Group	subID	trial	TimePressure	TimeConstraint	Vagueness	Vaguenesscode	ID1	ID2	ID3	V1	V2	V3	ID_left	ID_middle	ID_right	Bid_left	Bid_middle	Bid_right	chosenItem	RT	RTvariance	chosenPosition	chosenID	chosenValue	fixation_time	option_time	choice_time	feedback_time	timeout
1	22102403	1	Low	10.0	Precise	1	10	15	5	8.9	35.8	5.2	5	15	10	5.2	35.8	8.9	1	0.426	0.001	R	10	8.9	3.150	5.333	5.760	5.763	0
1	22102403	2	Low	10.0	Precise	1	8	18	3	40.3	42.1	3.3	3	8	18	3.3	40.3	42.1	1	0.001	2.064	D	8	40.3	6.268	7.823	7.823	7.837	0
1	22102403	3	Low	10.0	Vague	2	4	18	20	38.1	42.1	1.8	20	4	18	1.8	38.1	42.1	2	0.518	0.000	R	18	42.1	8.341	9.361	9.879	9.882	0
1	22102403	4	Low	10.0	Precise	1	10	8	11	8.9	40.3	7.1	11	10	8	7.1	8.9	40.3	3	0.368	0.000	L	11	7.1	10.387	12.551	12.920	12.922	0
1	22102403	5	Low	10.0	Precise	1	10	18	5	8.9	42.1	5.2	10	5	18	8.9	5.2	42.1	3	0.393	0.001	D	5	5.2	13.426	16.191	16.584	16.588	0
1	22102403	6	Low	10.0	Precise	1	2	4	7	33.6	38.1	5.0	2	4	7	33.6	38.1	5.0	3	0.417	0.000	R	7	5.0	17.093	19.663	20.080	20.082	0
1	22102403	7	Low	10.0	Precise	1	15	18	5	35.8	42.1	5.2	18	5	15	42.1	5.2	35.8	2	0.407	0.001	L	18	42.1	20.585	21.521	21.928	21.930	0
1	22102403	8	Low	10.0	Vague	2	2	15	23	33.6	35.8	2.5	15	23	2	35.8	2.5	33.6	3	0.403	0.001	D	23	2.5	22.433	23.708	24.112	24.114	0
1	22102403	9	Low	10.0	Precise	1	10	15	9	8.9	35.8	2.2	10	15	9	8.9	35.8	2.2	1	0.453	0.001	L	10	8.9	24.617	25.139	25.592	25.594	0
1	22102403	10	Low	10.0	Precise	1	2	15	9	33.6	35.8	2.2	2	9	15	33.6	2.2	35.8	2	0.338	0.000	R	15	35.8	26.096	28.678	29.015	29.018	0
1	22102403	11	Low	10.0	Vague	2	2	18	23	33.6	42.1	2.5	18	23	2	42.1	2.5	33.6	2	0.715	0.001	L	18	42.1	29.521	32.212	32.927	32.930	0
1	22102403	12	Low	10.0	Precise	1	15	18	9	35.8	42.1	2.2	9	18	15	2.2	42.1	35.8	2	0.000	2.078	D	18	42.1	33.432	35.005	35.006	35.015	0
1	22102403	13	Low	10.0	Vague	2	4	8	19	38.1	40.3	2.4	19	4	8	2.4	38.1	40.3	2	0.458	0.000	R	8	40.3	35.518	37.293	37.751	37.754	0
1	22102403	14	Low	10.0	Vague	2	2	18	20	33.6	42.1	1.8	18	2	20	42.1	33.6	1.8	1	0.539	0.001	D	2	33.6	38.256	40.645	41.184	41.186	0
1	22102403	15	Low	10.0	Vague	2	2	15	20	33.6	35.8	1.8	2	15	20	33.6	35.8	1.8	1	0.174	0.001	L	2	33.6	41.689	42.994	43.168	43.171	0
1	22102403	16	Low	10.0	Precise	1	8	18	11	40.3	42.1	7.1	18	11	8	42.1	7.1	40.3	2	0.039	0.001	L	18	42.1	43.673	45.873	45.911	45.914	0
1	22102403	17	Low	10.0	Precise	1	4	18	5	38.1	42.1	5.2	4	18	5	38.1	42.1	5.2	1	4.191	0.000	L	4	38.1	46.417	48.424	52.616	52.618	0
1	22102403	18	Low	10.0	Precise	1	10	2	7	8.9	33.6	5.0	7	2	10	5.0	33.6	8.9	1	1.230	0.001	R	10	8.9	53.121	55.282	56.512	56.514	0
1	22102403	19	Low	10.0	Precise	1	2	15	13	33.6	35.8	3.8	13	2	15	3.8	33.6	35.8	3	0.437	0.000	L	13	3.8	57.016	59.507	59.944	59.946	0
1	22102403	20	Low	10.0	Precise	1	10	4	3	8.9	38.1	3.3	3	4	10	3.3	38.1	8.9	2	0.281	0.000	D	4	38.1	60.449	60.951	61.231	61.234	0
1	22102403	21	Low	10.0	Vague	2	2	18	31	33.6	42.1	4.1	18	2	31	42.1	33.6	4.1	3	5.533	0.000	R	31	4.1	61.737	64.650	70.183	70.186	0
1	22102403	22	Low	10.0	Precise	1	10	4	5	8.9	38.1	5.2	5	10	4	5.2	8.9	38.1	3	0.667	0.001	L	5	5.2	70.689	72.988	73.655	73.658	0
1	22102403	23	Low	10.0	Vague	2	10	8	23	8.9	40.3	2.5	8	23	10	40.3	2.5	8.9	1	0.884	0.001	R	10	8.9	74.160	75.987	76.872	76.874	0
1	22102403	24	Low	10.0	Vague	2	4	8	23	38.1	40.3	2.5	4	23	8	38.1	2.5	40.3	1	0.568	0.000	L	4	38.1	77.377	78.432	78.999	79.002	0
1	22102403	25	Low	10.0	Vague	2	4	18	31	38.1	42.1	4.1	18	4	31	42.1	38.1	4.1	2	4.025	0.001	L	18	42.1	79.504	82.366	86.391	86.394	0
1	22102403	26	Low	10.0	Vague	2	15	18	20	35.8	42.1	1.8	20	15	18	1.8	35.8	42.1	3	1.010	0.000	L	20	1.8	86.896	88.325	89.335	89.338	0
1	22102403	27	Low	10.0	Vague	2	2	4	33	33.6	38.1	5.0	4	33	2	38.1	5.0	33.6	3	1.789	0.001	D	33	5.0	89.840	92.410	94.200	94.202	0
1	22102403	28	Low	10.0	Vague	2	15	4	31	35.8	38.1	4.1	4	15	31	38.1	35.8	4.1	3	0.855	0.000	R	31	4.1	94.705	95.457	96.312	96.314	0
1	22102403	29	Low	10.0	Vague	2	10	8	19	8.9	40.3	2.4	8	19	10	40.3	2.4	8.9	1	1.180	0.001	R	10	8.9	96.817	98.835	100.015	100.018	0
1	22102403	30	Low	10.0	Vague	2	10	4	33	8.9	38.1	5.0	4	10	33	38.1	8.9	5.0	2	0.389	0.000	L	4	38.1	100.520	102.266	102.655	102.658	0
1	22102403	31	Low	10.0	Vague	2	10	18	20	8.9	42.1	1.8	20	10	18	1.8	8.9	42.1	3	0.644	0.000	L	20	1.8	103.160	106.075	106.719	106.722	0
1	22102403	32	Low	10.0	Vague	2	4	8	20	38.1	40.3	1.8	4	20	8	38.1	1.8	40.3	2	2.633	0.000	R	8	40.3	107.224	108.023	110.655	110.658	0
1	22102403	33	Low	10.0	Precise	1	4	18	9	38.1	42.1	2.2	18	4	9	42.1	38.1	2.2	2	0.743	0.000	L	18	42.1	111.160	113.360	114.103	114.106	0
1	22102403	34	Low	10.0	Vague	2	4	18	30	38.1	42.1	3.4	30	4	18	3.4	38.1	42.1	1	0.510	0.000	D	4	38.1	114.608	116.609	117.120	117.122	0
1	22102403	35	Low	10.0	Vague	2	10	15	31	8.9	35.8	4.1	10	15	31	8.9	35.8	4.1	1	0.528	0.000	L	10	8.9	117.624	118.911	119.439	119.442	0
1	22102403	36	Low	10.0	Vague	2	15	4	30	35.8	38.1	3.4	4	15	30	38.1	35.8	3.4	3	0.367	0.001	R	30	3.4	119.944	120.984	121.352	121.354	0
1	22102403	37	Low	10.0	Vague	2	15	4	19	35.8	38.1	2.4	15	4	19	35.8	38.1	2.4	2	0.383	0.000	D	4	38.1	121.856	122.432	122.815	122.818	0
1	22102403	38	Low	10.0	Vague	2	10	4	23	8.9	38.1	2.5	4	23	10	38.1	2.5	8.9	2	0.322	0.000	L	4	38.1	123.320	124.549	124.871	124.874	0
1	22102403	39	Low	10.0	Precise	1	10	8	13	8.9	40.3	3.8	10	8	13	8.9	40.3	3.8	2	0.672	0.000	D	8	40.3	125.377	128.287	128.959	128.962	0
1	22102403	40	Low	10.0	Precise	1	2	15	3	33.6	35.8	3.3	2	3	15	33.6	3.3	35.8	2	0.730	0.001	R	15	35.8	129.465	130.877	131.607	131.610	0
1	22102403	41	Low	10.0	Vague	2	10	15	20	8.9	35.8	1.8	20	10	15	1.8	8.9	35.8	3	0.533	0.000	L	20	1.8	132.112	132.714	133.247	133.250	0
1	22102403	42	Low	10.0	Vague	2	2	4	23	33.6	38.1	2.5	2	4	23	33.6	38.1	2.5	2	0.102	0.000	D	4	38.1	133.752	134.746	134.847	134.850	0
1	22102403	43	Low	10.0	Vague	2	2	4	19	33.6	38.1	2.4	2	4	19	33.6	38.1	2.4	3	2.136	0.000	R	19	2.4	135.352	135.871	138.007	138.010	0
1	22102403	44	Low	10.0	Vague	2	2	8	19	33.6	40.3	2.4	19	8	2	2.4	40.3	33.6	2	0.647	0.001	D	8	40.3	138.512	139.417	140.064	140.066	0
1	22102403	45	Low	10.0	Precise	1	10	4	11	8.9	38.1	7.1	11	4	10	7.1	38.1	8.9	3	0.810	0.001	L	11	7.1	140.570	143.358	144.168	144.170	0
1	22102403	46	Low	10.0	Precise	1	10	2	3	8.9	33.6	3.3	10	2	3	8.9	33.6	3.3	1	8.367	0.001	L	10	8.9	144.673	145.224	153.591	153.594	0
1	22102403	47	Low	10.0	Vague	2	10	4	31	8.9	38.1	4.1	4	10	31	38.1	8.9	4.1	3	0.937	0.001	R	31	4.1	154.096	155.254	156.191	156.194	0
1	22102403	48	Low	10.0	Vague	2	2	18	19	33.6	42.1	2.4	18	2	19	42.1	33.6	2.4	1	1.050	0.000	D	2	33.6	156.697	158.877	159.927	159.930	0
1	22102403	49	Low	10.0	Vague	2	8	18	30	40.3	42.1	3.4	18	30	8	42.1	3.4	40.3	2	0.485	0.000	L	18	42.1	160.432	161.746	162.231	162.234	0
1	22102403	50	Low	10.0	Precise	1	2	4	5	33.6	38.1	5.2	4	5	2	38.1	5.2	33.6	1	0.538	0.000	R	2	33.6	162.737	164.973	165.511	165.514	0
1	22102403	51	Low	10.0	Precise	1	2	4	9	33.6	38.1	2.2	4	9	2	38.1	2.2	33.6	2	0.404	0.001	L	4	38.1	166.016	167.556	167.960	167.962	0
1	22102403	52	Low	10.0	Precise	1	2	8	5	33.6	40.3	5.2	5	2	8	5.2	33.6	40.3	NaN	NaN	NaN	NaN	NaN	NaN	168.465	170.718	NaN	180.709	1
1	22102403	53	Low	10.0	Vague	2	10	4	19	8.9	38.1	2.4	4	10	19	38.1	8.9	2.4	1	0.038	0.001	D	10	8.9	182.713	185.265	185.303	185.307	0
1	22102403	54	Low	10.0	Precise	1	15	8	11	35.8	40.3	7.1	11	15	8	7.1	35.8	40.3	3	0.649	0.000	L	11	7.1	185.810	187.503	188.151	188.154	0
1	22102403	55	Low	10.0	Vague	2	10	15	19	8.9	35.8	2.4	15	10	19	35.8	8.9	2.4	3	1.040	0.000	R	19	2.4	188.657	191.031	192.071	192.074	0
1	22102403	56	Low	10.0	Precise	1	4	18	7	38.1	42.1	5.0	4	7	18	38.1	5.0	42.1	3	0.428	0.000	D	7	5.0	192.576	195.507	195.935	195.938	0
1	22102403	57	Low	10.0	Vague	2	2	4	31	33.6	38.1	4.1	2	31	4	33.6	4.1	38.1	1	0.445	0.000	L	2	33.6	196.440	197.499	197.943	197.946	0
1	22102403	58	Low	10.0	Vague	2	2	15	19	33.6	35.8	2.4	15	19	2	35.8	2.4	33.6	1	0.494	0.000	R	2	33.6	198.448	200.017	200.511	200.514	0
1	22102403	59	Low	10.0	Vague	2	2	15	33	33.6	35.8	5.0	2	33	15	33.6	5.0	35.8	3	1.726	0.000	D	33	5.0	201.016	202.073	203.799	203.802	0
1	22102403	60	Low	10.0	Vague	2	8	18	19	40.3	42.1	2.4	19	18	8	2.4	42.1	40.3	1	0.687	0.001	R	8	40.3	204.304	205.216	205.903	205.906	0
1	22102403	61	Low	10.0	Precise	1	10	4	13	8.9	38.1	3.8	10	13	4	8.9	3.8	38.1	3	1.064	0.001	D	13	3.8	211.803	213.879	214.943	214.946	0
1	22102403	62	Low	10.0	Precise	1	15	4	3	35.8	38.1	3.3	4	3	15	38.1	3.3	35.8	2	0.506	0.001	L	4	38.1	215.449	216.822	217.328	217.330	0
1	22102403	63	Low	10.0	Vague	2	4	18	23	38.1	42.1	2.5	18	23	4	42.1	2.5	38.1	1	0.394	0.001	R	4	38.1	217.833	218.814	219.207	219.210	0
1	22102403	64	Low	10.0	Vague	2	15	8	31	35.8	40.3	4.1	31	15	8	4.1	35.8	40.3	3	1.314	0.000	L	31	4.1	219.713	221.437	222.751	222.754	0
1	22102403	65	Low	10.0	Precise	1	10	4	9	8.9	38.1	2.2	9	10	4	2.2	8.9	38.1	2	0.786	0.001	R	4	38.1	223.256	224.613	225.399	225.402	0
1	22102403	66	Low	10.0	Vague	2	2	8	33	33.6	40.3	5.0	33	2	8	5.0	33.6	40.3	1	0.977	0.001	D	2	33.6	225.904	228.519	229.496	229.498	0
1	22102403	67	Low	10.0	Vague	2	2	8	23	33.6	40.3	2.5	2	8	23	33.6	40.3	2.5	3	2.060	0.001	R	23	2.5	230.001	232.707	234.767	234.770	0
1	22102403	68	Low	10.0	Precise	1	8	18	5	40.3	42.1	5.2	8	5	18	40.3	5.2	42.1	1	0.646	0.000	L	8	40.3	235.273	236.929	237.575	237.578	0
1	22102403	69	Low	10.0	Precise	1	4	8	13	38.1	40.3	3.8	13	8	4	3.8	40.3	38.1	2	0.155	0.001	D	8	40.3	238.080	238.692	238.847	238.850	0
1	22102403	70	Low	10.0	Precise	1	10	2	11	8.9	33.6	7.1	10	11	2	8.9	7.1	33.6	1	0.395	0.000	L	10	8.9	239.352	240.508	240.903	240.906	0
1	22102403	71	Low	10.0	Vague	2	10	8	31	8.9	40.3	4.1	8	31	10	40.3	4.1	8.9	3	0.516	0.001	D	31	4.1	241.408	242.067	242.583	242.586	0
1	22102403	72	Low	10.0	Precise	1	15	8	9	35.8	40.3	2.2	9	8	15	2.2	40.3	35.8	1	0.534	0.000	R	15	35.8	243.088	244.482	245.015	245.018	0
1	22102403	73	Low	10.0	Vague	2	15	18	23	35.8	42.1	2.5	15	18	23	35.8	42.1	2.5	1	0.000	2.742	L	15	35.8	245.520	247.757	247.757	247.762	0
1	22102403	74	Low	10.0	Precise	1	2	4	13	33.6	38.1	3.8	13	4	2	3.8	38.1	33.6	2	1.413	0.001	D	4	38.1	248.265	248.979	250.392	250.394	0
1	22102403	75	Low	10.0	Vague	2	15	18	30	35.8	42.1	3.4	18	30	15	42.1	3.4	35.8	3	2.298	0.001	D	30	3.4	250.897	252.229	254.528	254.530	0
1	22102403	76	Low	10.0	Precise	1	2	8	3	33.6	40.3	3.3	3	8	2	3.3	40.3	33.6	1	3.895	0.000	R	2	33.6	255.033	256.017	259.911	259.914	0
1	22102403	77	Low	10.0	Precise	1	10	8	5	8.9	40.3	5.2	10	5	8	8.9	5.2	40.3	1	0.457	0.000	L	10	8.9	260.416	263.391	263.847	263.850	0
1	22102403	78	Low	10.0	Precise	1	2	18	7	33.6	42.1	5.0	18	7	2	42.1	5.0	33.6	3	1.067	0.000	D	7	5.0	264.352	265.548	266.615	266.617	0
1	22102403	79	Low	10.0	Precise	1	15	18	3	35.8	42.1	3.3	3	15	18	3.3	35.8	42.1	2	0.935	0.000	R	18	42.1	267.120	267.744	268.679	268.681	0
1	22102403	80	Low	10.0	Precise	1	2	8	11	33.6	40.3	7.1	8	11	2	40.3	7.1	33.6	2	1.360	0.000	L	8	40.3	269.184	270.983	272.343	272.346	0
1	22102403	81	Low	10.0	Precise	1	2	18	9	33.6	42.1	2.2	9	2	18	2.2	33.6	42.1	1	0.676	0.000	D	2	33.6	272.848	274.900	275.575	275.578	0
1	22102403	82	Low	10.0	Vague	2	10	18	31	8.9	42.1	4.1	18	10	31	42.1	8.9	4.1	3	0.949	0.001	R	31	4.1	276.080	277.451	278.399	278.402	0
1	22102403	83	Low	10.0	Vague	2	2	8	20	33.6	40.3	1.8	20	2	8	1.8	33.6	40.3	3	0.708	0.001	L	20	1.8	278.905	281.827	282.536	282.538	0
1	22102403	84	Low	10.0	Precise	1	15	8	3	35.8	40.3	3.3	8	3	15	40.3	3.3	35.8	3	0.645	0.000	D	3	3.3	283.041	283.818	284.463	284.466	0
1	22102403	85	Low	10.0	Vague	2	2	4	20	33.6	38.1	1.8	2	20	4	33.6	1.8	38.1	3	0.996	0.001	D	20	1.8	284.969	286.171	287.167	287.170	0
1	22102403	86	Low	10.0	Precise	1	4	8	3	38.1	40.3	3.3	4	3	8	38.1	3.3	40.3	1	0.731	0.001	L	4	38.1	287.673	290.596	291.327	291.330	0
1	22102403	87	Low	10.0	Precise	1	8	18	13	40.3	42.1	3.8	18	8	13	42.1	40.3	3.8	1	0.710	0.000	D	8	40.3	291.832	293.009	293.719	293.721	0
1	22102403	88	Low	10.0	Precise	1	10	18	7	8.9	42.1	5.0	18	7	10	42.1	5.0	8.9	3	1.115	0.001	D	7	5.0	294.224	297.132	298.247	298.250	0
1	22102403	89	Low	10.0	Vague	2	8	18	23	40.3	42.1	2.5	8	23	18	40.3	2.5	42.1	1	0.941	0.000	L	8	40.3	298.752	299.890	300.831	300.833	0
1	22102403	90	Low	10.0	Precise	1	15	8	13	35.8	40.3	3.8	13	15	8	3.8	35.8	40.3	2	0.733	0.001	R	8	40.3	301.336	303.042	303.775	303.778	0
1	22102403	91	Low	10.0	Precise	1	2	8	9	33.6	40.3	2.2	8	9	2	40.3	2.2	33.6	2	7.993	0.001	L	8	40.3	304.280	307.230	315.223	315.226	0
1	22102403	92	Low	10.0	Vague	2	10	18	33	8.9	42.1	5.0	18	33	10	42.1	5.0	8.9	1	0.971	0.000	R	10	8.9	315.729	316.828	317.799	317.802	0
1	22102403	93	Low	10.0	Precise	1	2	8	7	33.6	40.3	5.0	2	8	7	33.6	40.3	5.0	1	1.186	0.000	L	2	33.6	318.304	320.389	321.575	321.578	0
1	22102403	94	Low	10.0	Vague	2	15	4	33	35.8	38.1	5.0	15	33	4	35.8	5.0	38.1	3	1.289	0.000	D	33	5.0	322.080	324.909	326.199	326.202	0
1	22102403	95	Low	10.0	Precise	1	10	8	7	8.9	40.3	5.0	10	7	8	8.9	5.0	40.3	3	0.628	0.001	D	7	5.0	326.704	327.324	327.951	327.954	0
1	22102403	96	Low	10.0	Precise	1	15	4	9	35.8	38.1	2.2	4	9	15	38.1	2.2	35.8	3	0.610	0.000	D	9	2.2	328.457	328.998	329.607	329.609	0
1	22102403	97	Low	10.0	Precise	1	15	18	13	35.8	42.1	3.8	18	15	13	42.1	35.8	3.8	2	0.413	0.000	L	18	42.1	330.113	330.842	331.255	331.258	0
1	22102403	98	Low	10.0	Vague	2	10	4	30	8.9	38.1	3.4	4	10	30	38.1	8.9	3.4	1	0.628	0.000	D	10	8.9	331.761	333.571	334.199	334.202	0
1	22102403	99	Low	10.0	Vague	2	8	18	31	40.3	42.1	4.1	8	31	18	40.3	4.1	42.1	3	0.717	0.000	D	31	4.1	334.704	335.458	336.175	336.178	0
1	22102403	100	Low	10.0	Precise	1	15	8	7	35.8	40.3	5.0	8	7	15	40.3	5.0	35.8	3	1.123	0.000	D	7	5.0	336.680	338.452	339.575	339.578	0
1	22102403	101	Low	10.0	Vague	2	10	2	33	8.9	33.6	5.0	33	2	10	5.0	33.6	8.9	2	1.050	0.001	D	2	33.6	340.080	341.518	342.567	342.570	0
1	22102403	102	Low	10.0	Vague	2	10	2	23	8.9	33.6	2.5	10	2	23	8.9	33.6	2.5	2	1.092	0.001	D	2	33.6	343.072	345.643	346.735	346.738	0
1	22102403	103	Low	10.0	Precise	1	2	18	13	33.6	42.1	3.8	18	2	13	42.1	33.6	3.8	1	0.924	0.000	D	2	33.6	347.241	348.451	349.375	349.378	0
1	22102403	104	Low	10.0	Precise	1	2	18	5	33.6	42.1	5.2	5	2	18	5.2	33.6	42.1	3	0.940	0.001	L	5	5.2	349.881	351.499	352.439	352.444	0
1	22102403	105	Low	10.0	Vague	2	4	8	31	38.1	40.3	4.1	31	4	8	4.1	38.1	40.3	1	0.153	0.001	D	4	38.1	352.947	355.910	356.063	356.066	0
1	22102403	106	Low	10.0	Precise	1	10	2	13	8.9	33.6	3.8	2	10	13	33.6	8.9	3.8	1	0.461	0.000	D	10	8.9	356.568	359.250	359.711	359.714	0
1	22102403	107	Low	10.0	Vague	2	15	8	20	35.8	40.3	1.8	20	15	8	1.8	35.8	40.3	3	8.280	0.000	L	20	1.8	360.217	361.686	369.967	369.969	0
1	22102403	108	Low	10.0	Precise	1	4	8	11	38.1	40.3	7.1	4	11	8	38.1	7.1	40.3	3	0.906	0.001	D	11	7.1	370.472	371.685	372.591	372.594	0
1	22102403	109	Low	10.0	Vague	2	15	4	20	35.8	38.1	1.8	15	4	20	35.8	38.1	1.8	3	0.639	0.000	R	20	1.8	373.096	375.056	375.695	375.697	0
1	22102403	110	Low	10.0	Vague	2	15	18	31	35.8	42.1	4.1	31	15	18	4.1	35.8	42.1	1	1.024	0.001	D	15	35.8	376.200	377.136	378.159	378.162	0
1	22102403	111	Low	10.0	Vague	2	10	2	20	8.9	33.6	1.8	10	20	2	8.9	1.8	33.6	3	2.280	0.001	D	20	1.8	378.665	379.160	381.439	381.442	0
1	22102403	112	Low	10.0	Precise	1	4	8	7	38.1	40.3	5.0	7	4	8	5.0	38.1	40.3	3	1.084	0.000	L	7	5.0	381.944	383.852	384.935	384.937	0
1	22102403	113	Low	10.0	Vague	2	15	8	30	35.8	40.3	3.4	15	8	30	35.8	40.3	3.4	2	1.144	0.000	D	8	40.3	385.440	387.023	388.167	388.170	0
1	22102403	114	Low	10.0	Vague	2	2	4	30	33.6	38.1	3.4	2	30	4	33.6	3.4	38.1	2	1.549	0.001	R	4	38.1	388.672	390.058	391.607	391.610	0
1	22102403	115	Low	10.0	Vague	2	2	18	33	33.6	42.1	5.0	33	2	18	5.0	33.6	42.1	1	0.608	0.001	D	2	33.6	392.112	394.088	394.695	394.698	0
1	22102403	116	Low	10.0	Precise	1	10	15	3	8.9	35.8	3.3	15	3	10	35.8	3.3	8.9	2	0.812	0.001	L	15	35.8	395.200	395.907	396.719	396.722	0
1	22102403	117	Low	10.0	Vague	2	10	8	33	8.9	40.3	5.0	33	8	10	5.0	40.3	8.9	1	0.271	0.000	R	10	8.9	397.225	398.648	398.919	398.921	0
1	22102403	118	Low	10.0	Precise	1	10	8	9	8.9	40.3	2.2	9	8	10	2.2	40.3	8.9	2	1.487	0.001	D	8	40.3	399.424	400.265	401.751	401.754	0
1	22102403	119	Low	10.0	Precise	1	8	18	9	40.3	42.1	2.2	18	8	9	42.1	40.3	2.2	2	0.769	0.000	L	18	42.1	402.256	403.342	404.111	404.114	0
1	22102403	120	Low	10.0	Precise	1	2	4	11	33.6	38.1	7.1	11	4	2	7.1	38.1	33.6	2	0.796	0.001	D	4	38.1	404.616	405.795	406.591	406.593	0
1	22102403	121	Low	10.0	Vague	2	4	8	30	38.1	40.3	3.4	4	8	30	38.1	40.3	3.4	1	0.297	0.000	L	4	38.1	410.987	411.510	411.807	411.810	0
1	22102403	122	Low	10.0	Precise	1	4	18	11	38.1	42.1	7.1	4	11	18	38.1	7.1	42.1	2	0.470	0.000	R	18	42.1	412.312	413.273	413.743	413.746	0
1	22102403	123	Low	10.0	Precise	1	15	18	7	35.8	42.1	5.0	7	18	15	5.0	42.1	35.8	1	0.482	0.000	R	15	35.8	414.248	416.228	416.711	416.714	0
1	22102403	124	Low	10.0	Vague	2	10	8	30	8.9	40.3	3.4	8	30	10	40.3	3.4	8.9	2	0.538	0.000	L	8	40.3	417.216	418.349	418.887	418.890	0
1	22102403	125	Low	10.0	Vague	2	10	18	30	8.9	42.1	3.4	18	10	30	42.1	8.9	3.4	1	0.245	0.001	D	10	8.9	419.392	421.426	421.671	421.674	0
1	22102403	126	Low	10.0	Vague	2	15	8	19	35.8	40.3	2.4	19	8	15	2.4	40.3	35.8	3	0.000	2.166	L	19	2.4	422.176	423.837	423.837	423.847	0
1	22102403	127	Low	10.0	Vague	2	2	18	30	33.6	42.1	3.4	2	30	18	33.6	3.4	42.1	2	0.132	0.001	R	18	42.1	424.351	426.771	426.903	426.906	0
1	22102403	128	Low	10.0	Vague	2	15	18	19	35.8	42.1	2.4	18	19	15	42.1	2.4	35.8	2	0.000	3.285	L	18	42.1	427.410	430.187	430.188	430.203	0
1	22102403	129	Low	10.0	Precise	1	15	18	11	35.8	42.1	7.1	15	18	11	35.8	42.1	7.1	2	0.279	0.001	D	18	42.1	430.706	432.064	432.343	432.346	0
1	22102403	130	Low	10.0	Vague	2	10	18	19	8.9	42.1	2.4	19	10	18	2.4	8.9	42.1	2	0.421	0.001	R	18	42.1	432.848	435.450	435.871	435.874	0
1	22102403	131	Low	10.0	Precise	1	2	18	3	33.6	42.1	3.3	2	3	18	33.6	3.3	42.1	1	0.627	0.000	L	2	33.6	436.376	439.260	439.887	439.890	0
1	22102403	132	Low	10.0	Vague	2	4	18	19	38.1	42.1	2.4	18	4	19	42.1	38.1	2.4	1	0.656	0.000	D	4	38.1	440.393	443.367	444.023	444.026	0
1	22102403	133	Low	10.0	Precise	1	4	18	3	38.1	42.1	3.3	3	18	4	3.3	42.1	38.1	2	1.127	0.000	D	18	42.1	444.528	446.136	447.263	447.265	0
1	22102403	134	Low	10.0	Vague	2	2	8	30	33.6	40.3	3.4	30	8	2	3.4	40.3	33.6	3	0.842	0.000	L	30	3.4	447.768	449.981	450.823	450.826	0
1	22102403	135	Low	10.0	Precise	1	10	18	11	8.9	42.1	7.1	11	18	10	7.1	42.1	8.9	3	1.337	0.000	L	11	7.1	451.328	453.862	455.199	455.201	0
1	22102403	136	Low	10.0	Precise	1	2	4	3	33.6	38.1	3.3	2	4	3	33.6	38.1	3.3	1	0.845	0.000	L	2	33.6	455.704	458.010	458.855	458.857	0
1	22102403	137	Low	10.0	Precise	1	10	18	9	8.9	42.1	2.2	18	10	9	42.1	8.9	2.2	2	1.380	0.001	L	18	42.1	459.360	461.043	462.423	462.425	0
1	22102403	138	Low	10.0	Vague	2	10	2	31	8.9	33.6	4.1	10	31	2	8.9	4.1	33.6	1	2.224	0.001	L	10	8.9	462.928	464.488	466.711	466.714	0
1	22102403	139	Low	10.0	Vague	2	15	8	33	35.8	40.3	5.0	33	15	8	5.0	35.8	40.3	1	0.793	0.000	D	15	35.8	467.217	468.823	469.615	469.618	0
1	22102403	140	Low	10.0	Precise	1	10	15	7	8.9	35.8	5.0	7	15	10	5.0	35.8	8.9	3	0.682	0.000	L	7	5.0	470.120	471.589	472.271	472.273	0
1	22102403	141	Low	10.0	Precise	1	4	8	5	38.1	40.3	5.2	5	4	8	5.2	38.1	40.3	3	1.366	0.000	L	5	5.2	472.776	473.465	474.831	474.833	0
1	22102403	142	Low	10.0	Vague	2	4	8	33	38.1	40.3	5.0	4	33	8	38.1	5.0	40.3	2	1.353	0.000	R	8	40.3	475.336	475.958	477.311	477.314	0
1	22102403	143	Low	10.0	Precise	1	10	18	3	8.9	42.1	3.3	18	3	10	42.1	3.3	8.9	2	0.910	0.001	L	18	42.1	477.816	480.393	481.303	481.306	0
1	22102403	144	Low	10.0	Precise	1	2	18	11	33.6	42.1	7.1	2	11	18	33.6	7.1	42.1	1	0.815	0.000	L	2	33.6	481.808	484.032	484.847	484.849	0
1	22102403	145	Low	10.0	Vague	2	8	18	33	40.3	42.1	5.0	8	18	33	40.3	42.1	5.0	1	0.892	0.001	L	8	40.3	485.352	486.452	487.343	487.346	0
1	22102403	146	Low	10.0	Precise	1	15	4	7	35.8	38.1	5.0	4	15	7	38.1	35.8	5.0	1	0.389	0.001	D	15	35.8	487.848	490.434	490.823	490.826	0
1	22102403	147	Low	10.0	Precise	1	10	15	13	8.9	35.8	3.8	13	15	10	3.8	35.8	8.9	2	0.823	0.000	D	15	35.8	491.328	492.840	493.663	493.665	0
1	22102403	148	Low	10.0	Precise	1	10	4	7	8.9	38.1	5.0	4	7	10	38.1	5.0	8.9	2	0.927	0.000	L	4	38.1	494.168	497.120	498.047	498.049	0
1	22102403	149	Low	10.0	Precise	1	2	15	5	33.6	35.8	5.2	5	15	2	5.2	35.8	33.6	2	0.633	0.000	D	15	35.8	498.552	499.846	500.479	500.482	0
1	22102403	150	Low	10.0	Vague	2	10	15	30	8.9	35.8	3.4	15	30	10	35.8	3.4	8.9	1	1.127	0.000	R	10	8.9	500.985	502.504	503.631	503.634	0
1	22102403	151	Low	10.0	Vague	2	8	18	20	40.3	42.1	1.8	20	8	18	1.8	40.3	42.1	3	0.553	0.001	L	20	1.8	504.136	506.382	506.935	506.937	0
1	22102403	152	Low	10.0	Vague	2	10	18	23	8.9	42.1	2.5	18	23	10	42.1	2.5	8.9	2	0.871	0.001	L	18	42.1	507.441	509.256	510.127	510.129	0
1	22102403	153	Low	10.0	Precise	1	10	2	9	8.9	33.6	2.2	2	9	10	33.6	2.2	8.9	1	4.170	0.000	R	10	8.9	510.632	513.429	517.599	517.602	0
1	22102403	154	Low	10.0	Precise	1	4	8	9	38.1	40.3	2.2	9	8	4	2.2	40.3	38.1	2	2.686	0.000	D	8	40.3	518.104	518.945	521.631	521.633	0
1	22102403	155	Low	10.0	Vague	2	15	8	23	35.8	40.3	2.5	23	15	8	2.5	35.8	40.3	1	2.289	0.000	D	15	35.8	522.136	525.093	527.383	527.386	0
1	22102403	156	Low	10.0	Vague	2	10	15	23	8.9	35.8	2.5	10	15	23	8.9	35.8	2.5	1	1.069	0.000	L	10	8.9	527.888	528.442	529.511	529.513	0
1	22102403	157	Low	10.0	Vague	2	2	15	31	33.6	35.8	4.1	31	2	15	4.1	33.6	35.8	2	4.507	0.001	R	15	35.8	530.016	531.292	535.799	535.802	0
1	22102403	158	Low	10.0	Vague	2	10	4	20	8.9	38.1	1.8	10	20	4	8.9	1.8	38.1	3	0.861	0.001	D	20	1.8	536.304	538.962	539.823	539.825	0
1	22102403	159	Low	10.0	Precise	1	8	18	7	40.3	42.1	5.0	8	7	18	40.3	5.0	42.1	2	1.148	0.001	R	18	42.1	540.328	543.139	544.287	544.289	0
1	22102403	160	Low	10.0	Precise	1	15	4	13	35.8	38.1	3.8	13	4	15	3.8	38.1	35.8	2	0.966	0.001	D	4	38.1	544.792	546.017	546.983	546.985	0
1	22102403	161	Low	10.0	Precise	1	15	4	11	35.8	38.1	7.1	11	4	15	7.1	38.1	35.8	3	1.184	0.001	L	11	7.1	547.488	549.959	551.143	551.145	0
1	22102403	162	Low	10.0	Vague	2	10	15	33	8.9	35.8	5.0	33	10	15	5.0	8.9	35.8	2	3.239	0.000	R	15	35.8	551.648	553.416	556.655	556.657	0
1	22102403	163	Low	10.0	Precise	1	2	15	7	33.6	35.8	5.0	7	15	2	5.0	35.8	33.6	2	0.727	0.001	D	15	35.8	557.160	558.256	558.983	558.986	0
1	22102403	164	Low	10.0	Precise	1	4	18	13	38.1	42.1	3.8	18	13	4	42.1	3.8	38.1	2	0.757	0.000	L	18	42.1	559.488	560.378	561.135	561.137	0
1	22102403	165	Low	10.0	Precise	1	10	15	11	8.9	35.8	7.1	11	10	15	7.1	8.9	35.8	3	0.686	0.000	L	11	7.1	561.640	562.817	563.503	563.505	0
1	22102403	166	Low	10.0	Vague	2	15	4	23	35.8	38.1	2.5	4	23	15	38.1	2.5	35.8	3	0.492	0.000	D	23	2.5	564.008	566.891	567.383	567.385	0
1	22102403	167	Low	10.0	Precise	1	2	8	13	33.6	40.3	3.8	2	13	8	33.6	3.8	40.3	1	0.652	0.000	L	2	33.6	567.888	569.579	570.231	570.233	0
1	22102403	168	Low	10.0	Precise	1	10	8	3	8.9	40.3	3.3	10	8	3	8.9	40.3	3.3	1	0.504	0.001	L	10	8.9	570.736	573.135	573.639	573.642	0
1	22102403	169	Low	10.0	Precise	1	15	4	5	35.8	38.1	5.2	4	5	15	38.1	5.2	35.8	3	0.869	0.000	D	5	5.2	574.144	575.266	576.135	576.137	0
1	22102403	170	Low	10.0	Vague	2	10	2	19	8.9	33.6	2.4	19	2	10	2.4	33.6	8.9	1	0.342	0.001	R	10	8.9	576.640	578.249	578.591	578.594	0
1	22102403	171	Low	10.0	Precise	1	10	2	5	8.9	33.6	5.2	10	2	5	8.9	33.6	5.2	1	1.091	0.000	L	10	8.9	579.096	579.756	580.847	580.849	0
1	22102403	172	Low	10.0	Precise	1	10	18	13	8.9	42.1	3.8	13	10	18	3.8	8.9	42.1	1	0.814	0.000	D	10	8.9	581.352	582.361	583.175	583.177	0
1	22102403	173	Low	10.0	Vague	2	10	8	20	8.9	40.3	1.8	10	20	8	8.9	1.8	40.3	2	1.029	0.000	R	8	40.3	583.680	586.218	587.247	587.249	0
1	22102403	174	Low	10.0	Vague	2	10	2	30	8.9	33.6	3.4	2	10	30	33.6	8.9	3.4	2	0.575	0.001	L	2	33.6	587.752	589.408	589.983	589.985	0
1	22102403	175	Low	10.0	Vague	2	4	18	33	38.1	42.1	5.0	33	18	4	5.0	42.1	38.1	1	0.618	0.001	R	4	38.1	590.488	591.653	592.271	592.273	0
1	22102403	176	Low	10.0	Vague	2	15	18	33	35.8	42.1	5.0	18	15	33	42.1	35.8	5.0	1	0.499	0.000	D	15	35.8	592.776	594.676	595.175	595.178	0
1	22102403	177	Low	10.0	Vague	2	2	8	31	33.6	40.3	4.1	8	31	2	40.3	4.1	33.6	2	1.158	0.000	L	8	40.3	595.680	596.217	597.375	597.377	0
1	22102403	178	Low	10.0	Precise	1	2	15	11	33.6	35.8	7.1	11	15	2	7.1	35.8	33.6	2	2.244	0.000	D	15	35.8	597.880	598.474	600.719	600.721	0
1	22102403	179	Low	10.0	Vague	2	2	15	30	33.6	35.8	3.4	15	30	2	35.8	3.4	33.6	3	1.738	0.000	D	30	3.4	601.224	603.533	605.271	605.273	0
1	22102403	180	Low	10.0	Precise	1	15	8	5	35.8	40.3	5.2	15	5	8	35.8	5.2	40.3	1	0.560	0.000	L	15	35.8	605.776	606.791	607.351	607.353	0
1	22102403	181	High	1.5	Precise	1	15	18	6	35.8	42.1	2.7	6	18	15	2.7	42.1	35.8	1	0.514	0.000	R	15	35.8	614.188	615.149	615.663	615.666	0
1	22102403	182	High	1.5	Vague	2	2	18	27	33.6	42.1	3.1	27	18	2	3.1	42.1	33.6	3	0.751	0.000	L	27	3.1	616.168	618.512	619.263	619.265	0
1	22102403	183	High	1.5	Vague	2	15	4	36	35.8	38.1	2.5	15	4	36	35.8	38.1	2.5	2	1.007	0.000	D	4	38.1	619.768	620.423	621.431	621.433	0
1	22102403	184	High	1.5	Vague	2	10	2	24	8.9	33.6	1.6	2	10	24	33.6	8.9	1.6	3	0.426	0.001	R	24	1.6	621.936	623.813	624.239	624.241	0
1	22102403	185	High	1.5	Vague	2	2	8	24	33.6	40.3	1.6	2	8	24	33.6	40.3	1.6	NaN	NaN	NaN	NaN	NaN	NaN	624.744	625.333	NaN	626.823	1
1	22102403	186	High	1.5	Precise	1	15	18	1	35.8	42.1	5.2	15	18	1	35.8	42.1	5.2	2	0.481	0.000	D	18	42.1	628.825	630.678	631.159	631.161	0
1	22102403	187	High	1.5	Precise	1	15	8	12	35.8	40.3	7.2	15	8	12	35.8	40.3	7.2	1	0.627	0.000	L	15	35.8	631.664	632.339	632.967	632.969	0
1	22102403	188	High	1.5	Vague	2	8	18	27	40.3	42.1	3.1	8	18	27	40.3	42.1	3.1	3	0.805	0.000	R	27	3.1	633.472	634.994	635.799	635.801	0
1	22102403	189	High	1.5	Vague	2	10	15	34	8.9	35.8	3.9	15	10	34	35.8	8.9	3.9	2	0.642	0.001	L	15	35.8	636.304	637.869	638.511	638.514	0
1	22102403	190	High	1.5	Vague	2	15	8	34	35.8	40.3	3.9	34	15	8	3.9	35.8	40.3	1	0.797	0.000	D	15	35.8	639.016	641.002	641.799	641.801	0
1	22102403	191	High	1.5	Vague	2	2	4	32	33.6	38.1	4.6	2	32	4	33.6	4.6	38.1	2	0.589	0.000	R	4	38.1	642.304	643.930	644.519	644.522	0
1	22102403	192	High	1.5	Precise	1	10	2	12	8.9	33.6	7.2	12	2	10	7.2	33.6	8.9	3	0.755	0.000	L	12	7.2	645.024	647.883	648.639	648.641	0
1	22102403	193	High	1.5	Precise	1	15	18	12	35.8	42.1	7.2	12	18	15	7.2	42.1	35.8	3	0.608	0.001	L	12	7.2	649.144	650.663	651.271	651.273	0
1	22102403	194	High	1.5	Precise	1	4	8	16	38.1	40.3	5.3	16	8	4	5.3	40.3	38.1	3	0.755	0.000	L	16	5.3	651.776	652.620	653.375	653.377	0
1	22102403	195	High	1.5	Precise	1	10	2	1	8.9	33.6	5.2	1	10	2	5.2	8.9	33.6	1	0.514	0.000	D	10	8.9	653.880	654.989	655.503	655.505	0
1	22102403	196	High	1.5	Precise	1	15	8	16	35.8	40.3	5.3	15	8	16	35.8	40.3	5.3	3	0.534	0.001	R	16	5.3	656.008	657.665	658.199	658.202	0
1	22102403	197	High	1.5	Vague	2	15	4	27	35.8	38.1	3.1	27	4	15	3.1	38.1	35.8	3	0.573	0.001	L	27	3.1	658.705	660.858	661.431	661.433	0
1	22102403	198	High	1.5	Precise	1	10	15	16	8.9	35.8	5.3	16	15	10	5.3	35.8	8.9	2	0.468	0.001	D	15	35.8	661.936	664.331	664.799	664.801	0
1	22102403	199	High	1.5	Vague	2	2	18	34	33.6	42.1	3.9	18	2	34	42.1	33.6	3.9	3	0.459	0.000	R	34	3.9	665.304	667.780	668.239	668.241	0
1	22102403	200	High	1.5	Vague	2	4	18	32	38.1	42.1	4.6	4	32	18	38.1	4.6	42.1	1	0.385	0.000	L	4	38.1	668.744	670.166	670.551	670.553	0
1	22102403	201	High	1.5	Precise	1	10	8	12	8.9	40.3	7.2	8	10	12	40.3	8.9	7.2	1	0.579	0.001	D	10	8.9	671.056	671.668	672.247	672.250	0
1	22102403	202	High	1.5	Precise	1	10	15	17	8.9	35.8	4.5	17	15	10	4.5	35.8	8.9	3	0.881	0.000	L	17	4.5	672.752	674.373	675.255	675.257	0
1	22102403	203	High	1.5	Vague	2	2	4	36	33.6	38.1	2.5	4	2	36	38.1	33.6	2.5	1	0.620	0.000	D	2	33.6	675.760	678.410	679.031	679.033	0
1	22102403	204	High	1.5	Precise	1	8	18	12	40.3	42.1	7.2	8	18	12	40.3	42.1	7.2	3	0.667	0.000	R	12	7.2	679.535	681.579	682.247	682.249	0
1	22102403	205	High	1.5	Precise	1	8	18	16	40.3	42.1	5.3	16	18	8	5.3	42.1	40.3	2	0.496	0.000	D	18	42.1	682.751	683.759	684.255	684.257	0
1	22102403	206	High	1.5	Precise	1	2	18	1	33.6	42.1	5.2	18	2	1	42.1	33.6	5.2	1	1.365	0.001	D	2	33.6	684.760	686.074	687.439	687.442	0
1	22102403	207	High	1.5	Precise	1	2	8	1	33.6	40.3	5.2	2	8	1	33.6	40.3	5.2	NaN	NaN	NaN	NaN	NaN	NaN	687.945	690.868	NaN	692.354	1
1	22102403	208	High	1.5	Vague	2	10	4	34	8.9	38.1	3.9	34	10	4	3.9	8.9	38.1	NaN	NaN	NaN	NaN	NaN	NaN	694.357	695.663	NaN	697.150	1
1	22102403	209	High	1.5	Precise	1	8	18	1	40.3	42.1	5.2	18	8	1	42.1	40.3	5.2	NaN	NaN	NaN	NaN	NaN	NaN	699.152	699.985	NaN	701.472	1
1	22102403	210	High	1.5	Precise	1	2	8	12	33.6	40.3	7.2	2	12	8	33.6	7.2	40.3	1	0.486	0.000	L	2	33.6	703.476	705.145	705.631	705.633	0
1	22102403	211	High	1.5	Precise	1	2	15	12	33.6	35.8	7.2	2	15	12	33.6	35.8	7.2	1	0.770	0.000	L	2	33.6	706.137	706.973	707.743	707.745	0
1	22102403	212	High	1.5	Vague	2	2	15	27	33.6	35.8	3.1	15	2	27	35.8	33.6	3.1	3	0.639	0.000	R	27	3.1	708.248	709.720	710.359	710.361	0
1	22102403	213	High	1.5	Precise	1	15	4	1	35.8	38.1	5.2	4	15	1	38.1	35.8	5.2	NaN	NaN	NaN	NaN	NaN	NaN	710.864	712.345	NaN	713.832	1
1	22102403	214	High	1.5	Vague	2	8	18	34	40.3	42.1	3.9	18	34	8	42.1	3.9	40.3	1	0.571	0.000	R	8	40.3	715.835	717.060	717.631	717.633	0
1	22102403	215	High	1.5	Precise	1	4	8	12	38.1	40.3	7.2	8	12	4	40.3	7.2	38.1	NaN	NaN	NaN	NaN	NaN	NaN	718.136	718.983	NaN	720.469	1
1	22102403	216	High	1.5	Precise	1	10	2	14	8.9	33.6	3.5	10	2	14	8.9	33.6	3.5	NaN	NaN	NaN	NaN	NaN	NaN	722.472	724.128	NaN	725.615	1
1	22102403	217	High	1.5	Precise	1	15	18	14	35.8	42.1	3.5	18	15	14	42.1	35.8	3.5	3	0.781	0.000	R	14	3.5	727.618	729.202	729.983	729.985	0
1	22102403	218	High	1.5	Precise	1	2	4	1	33.6	38.1	5.2	2	4	1	33.6	38.1	5.2	1	1.267	0.000	L	2	33.6	730.488	731.276	732.543	732.545	0
1	22102403	219	High	1.5	Precise	1	15	18	17	35.8	42.1	4.5	17	18	15	4.5	42.1	35.8	NaN	NaN	NaN	NaN	NaN	NaN	733.048	733.824	NaN	735.311	1
1	22102403	220	High	1.5	Vague	2	4	8	24	38.1	40.3	1.6	24	8	4	1.6	40.3	38.1	3	0.107	0.000	L	24	1.6	737.314	737.948	738.055	738.057	0
1	22102403	221	High	1.5	Precise	1	2	4	14	33.6	38.1	3.5	4	2	14	38.1	33.6	3.5	3	0.745	0.000	R	14	3.5	738.560	739.326	740.071	740.074	0
1	22102403	222	High	1.5	Vague	2	10	15	21	8.9	35.8	1.8	10	21	15	8.9	1.8	35.8	3	1.061	0.000	D	21	1.8	740.576	742.098	743.159	743.161	0
1	22102403	223	High	1.5	Vague	2	4	8	34	38.1	40.3	3.9	4	34	8	38.1	3.9	40.3	2	0.611	0.000	R	8	40.3	743.664	746.491	747.102	747.105	0
1	22102403	224	High	1.5	Vague	2	2	15	36	33.6	35.8	2.5	2	36	15	33.6	2.5	35.8	1	1.205	0.001	L	2	33.6	747.608	750.394	751.599	751.601	0
1	22102403	225	High	1.5	Vague	2	10	15	36	8.9	35.8	2.5	15	10	36	35.8	8.9	2.5	3	1.237	0.001	R	36	2.5	752.104	754.153	755.391	755.394	0
1	22102403	226	High	1.5	Precise	1	2	18	14	33.6	42.1	3.5	14	18	2	3.5	42.1	33.6	2	0.697	0.001	D	18	42.1	755.897	757.429	758.127	758.129	0
1	22102403	227	High	1.5	Precise	1	10	4	16	8.9	38.1	5.3	4	16	10	38.1	5.3	8.9	3	0.653	0.000	D	16	5.3	758.632	761.338	761.991	761.993	0
1	22102403	228	High	1.5	Precise	1	10	8	1	8.9	40.3	5.2	8	10	1	40.3	8.9	5.2	3	0.651	0.000	R	1	5.2	762.496	764.020	764.671	764.673	0
1	22102403	229	High	1.5	Vague	2	15	4	21	35.8	38.1	1.8	4	21	15	38.1	1.8	35.8	2	0.184	0.001	L	4	38.1	765.175	767.823	768.007	768.009	0
1	22102403	230	High	1.5	Precise	1	4	18	16	38.1	42.1	5.3	16	18	4	5.3	42.1	38.1	2	1.075	0.000	D	18	42.1	768.512	770.332	771.407	771.409	0
1	22102403	231	High	1.5	Vague	2	15	4	32	35.8	38.1	4.6	4	32	15	38.1	4.6	35.8	1	0.699	0.000	R	15	35.8	771.912	773.172	773.870	773.873	0
1	22102403	232	High	1.5	Vague	2	15	8	21	35.8	40.3	1.8	15	8	21	35.8	40.3	1.8	NaN	NaN	NaN	NaN	NaN	NaN	774.375	776.649	NaN	778.136	1
1	22102403	233	High	1.5	Precise	1	10	18	12	8.9	42.1	7.2	18	10	12	42.1	8.9	7.2	3	0.339	0.000	R	12	7.2	780.138	782.411	782.750	782.753	0
1	22102403	234	High	1.5	Vague	2	10	18	27	8.9	42.1	3.1	18	27	10	42.1	3.1	8.9	1	0.545	0.000	R	10	8.9	783.256	784.526	785.070	785.073	0
1	22102403	235	High	1.5	Vague	2	10	8	27	8.9	40.3	3.1	27	8	10	3.1	40.3	8.9	2	0.675	0.001	D	8	40.3	785.576	787.100	787.775	787.778	0
1	22102403	236	High	1.5	Precise	1	4	18	17	38.1	42.1	4.5	4	17	18	38.1	4.5	42.1	3	0.375	0.000	D	17	4.5	788.280	789.640	790.015	790.017	0
1	22102403	237	High	1.5	Precise	1	2	4	17	33.6	38.1	4.5	17	2	4	4.5	33.6	38.1	1	0.264	0.001	D	2	33.6	790.520	791.663	791.927	791.929	0
1	22102403	238	High	1.5	Vague	2	15	18	24	35.8	42.1	1.6	18	15	24	42.1	35.8	1.6	1	0.301	0.000	D	15	35.8	792.432	793.505	793.807	793.809	0
1	22102403	239	High	1.5	Vague	2	10	18	34	8.9	42.1	3.9	18	34	10	42.1	3.9	8.9	3	0.282	0.001	D	34	3.9	794.312	795.573	795.855	795.857	0
1	22102403	240	High	1.5	Precise	1	4	18	12	38.1	42.1	7.2	12	4	18	7.2	38.1	42.1	1	0.452	0.000	D	4	38.1	796.360	796.939	797.390	797.393	0
1	22102403	241	High	1.5	Precise	1	4	8	14	38.1	40.3	3.5	8	4	14	40.3	38.1	3.5	1	0.410	0.000	D	4	38.1	802.573	804.452	804.862	804.865	0
1	22102403	242	High	1.5	Vague	2	15	8	27	35.8	40.3	3.1	8	27	15	40.3	3.1	35.8	3	0.000	1.856	D	27	3.1	805.368	806.718	806.718	806.723	0
1	22102403	243	High	1.5	Precise	1	10	8	17	8.9	40.3	4.5	8	10	17	40.3	8.9	4.5	1	0.290	0.000	D	10	8.9	807.226	809.349	809.638	809.641	0
1	22102403	244	High	1.5	Precise	1	10	15	12	8.9	35.8	7.2	10	12	15	8.9	7.2	35.8	3	0.374	0.000	D	12	7.2	810.144	811.633	812.006	812.010	0
1	22102403	245	High	1.5	Vague	2	8	18	21	40.3	42.1	1.8	21	8	18	1.8	40.3	42.1	NaN	NaN	NaN	NaN	NaN	NaN	812.512	813.783	NaN	815.272	1
1	22102403	246	High	1.5	Precise	1	10	18	14	8.9	42.1	3.5	18	14	10	42.1	3.5	8.9	3	1.107	0.000	D	14	3.5	817.274	818.404	819.511	819.513	0
1	22102403	247	High	1.5	Vague	2	10	2	36	8.9	33.6	2.5	36	10	2	2.5	8.9	33.6	2	0.378	0.000	R	2	33.6	820.016	821.621	821.999	822.001	0
1	22102403	248	High	1.5	Precise	1	2	4	12	33.6	38.1	7.2	12	2	4	7.2	33.6	38.1	1	0.522	0.001	D	2	33.6	822.503	824.029	824.551	824.554	0
1	22102403	249	High	1.5	Vague	2	8	18	36	40.3	42.1	2.5	18	36	8	42.1	2.5	40.3	1	0.526	0.000	R	8	40.3	825.057	827.528	828.054	828.057	0
1	22102403	250	High	1.5	Vague	2	2	15	32	33.6	35.8	4.6	32	2	15	4.6	33.6	35.8	3	0.863	0.000	L	32	4.6	828.560	829.991	830.854	830.857	0
1	22102403	251	High	1.5	Vague	2	4	8	27	38.1	40.3	3.1	8	27	4	40.3	3.1	38.1	3	0.521	0.000	D	27	3.1	831.361	833.758	834.279	834.281	0
1	22102403	252	High	1.5	Precise	1	10	15	14	8.9	35.8	3.5	10	15	14	8.9	35.8	3.5	1	0.280	0.000	L	10	8.9	834.784	836.262	836.542	836.546	0
1	22102403	253	High	1.5	Vague	2	15	8	32	35.8	40.3	4.6	32	8	15	4.6	40.3	35.8	NaN	NaN	NaN	NaN	NaN	NaN	837.048	838.604	NaN	840.091	1
1	22102403	254	High	1.5	Vague	2	8	18	32	40.3	42.1	4.6	18	32	8	42.1	4.6	40.3	NaN	NaN	NaN	NaN	NaN	NaN	842.094	844.216	NaN	845.702	1
1	22102403	255	High	1.5	Precise	1	15	8	1	35.8	40.3	5.2	1	15	8	5.2	35.8	40.3	NaN	NaN	NaN	NaN	NaN	NaN	847.705	848.842	NaN	850.329	1
1	22102403	256	High	1.5	Precise	1	10	2	17	8.9	33.6	4.5	10	17	2	8.9	4.5	33.6	1	0.422	0.000	L	10	8.9	852.332	854.464	854.886	854.889	0
1	22102403	257	High	1.5	Precise	1	10	18	16	8.9	42.1	5.3	18	16	10	42.1	5.3	8.9	1	0.832	0.000	R	10	8.9	855.391	858.078	858.911	858.913	0
1	22102403	258	High	1.5	Vague	2	2	15	34	33.6	35.8	3.9	34	15	2	3.9	35.8	33.6	3	0.484	0.000	L	34	3.9	859.415	862.027	862.511	862.513	0
1	22102403	259	High	1.5	Vague	2	10	8	34	8.9	40.3	3.9	10	8	34	8.9	40.3	3.9	2	0.452	0.000	D	8	40.3	863.015	864.859	865.311	865.313	0
1	22102403	260	High	1.5	Vague	2	15	4	24	35.8	38.1	1.6	24	15	4	1.6	35.8	38.1	NaN	NaN	NaN	NaN	NaN	NaN	865.816	868.437	NaN	869.923	1
1	22102403	261	High	1.5	Vague	2	10	4	36	8.9	38.1	2.5	10	4	36	8.9	38.1	2.5	2	0.377	0.001	D	4	38.1	871.926	874.750	875.127	875.129	0
1	22102403	262	High	1.5	Precise	1	4	18	14	38.1	42.1	3.5	18	4	14	42.1	38.1	3.5	2	0.450	0.000	L	18	42.1	875.633	876.133	876.583	876.585	0
1	22102403	263	High	1.5	Vague	2	2	8	32	33.6	40.3	4.6	32	2	8	4.6	33.6	40.3	1	0.539	0.000	D	2	33.6	877.088	878.411	878.951	878.953	0
1	22102403	264	High	1.5	Precise	1	10	4	12	8.9	38.1	7.2	10	4	12	8.9	38.1	7.2	1	0.545	0.000	L	10	8.9	879.456	881.886	882.431	882.433	0
1	22102403	265	High	1.5	Precise	1	15	8	17	35.8	40.3	4.5	15	8	17	35.8	40.3	4.5	2	0.875	0.000	D	8	40.3	882.935	883.588	884.463	884.465	0
1	22102403	266	High	1.5	Precise	1	2	15	17	33.6	35.8	4.5	2	15	17	33.6	35.8	4.5	3	0.021	0.001	R	17	4.5	884.967	886.106	886.127	886.129	0
1	22102403	267	High	1.5	Vague	2	15	18	27	35.8	42.1	3.1	15	27	18	35.8	3.1	42.1	1	1.288	0.001	L	15	35.8	886.632	887.975	889.263	889.265	0
1	22102403	268	High	1.5	Precise	1	15	4	17	35.8	38.1	4.5	15	4	17	35.8	38.1	4.5	1	0.000	3.117	L	15	35.8	889.768	892.379	892.380	892.391	0
1	22102403	269	High	1.5	Vague	2	4	8	32	38.1	40.3	4.6	32	4	8	4.6	38.1	40.3	2	0.200	0.000	R	8	40.3	892.894	895.350	895.550	895.553	0
1	22102403	270	High	1.5	Precise	1	2	15	6	33.6	35.8	2.7	2	6	15	33.6	2.7	35.8	1	0.682	0.001	L	2	33.6	896.056	896.797	897.479	897.481	0
1	22102403	271	High	1.5	Vague	2	4	18	34	38.1	42.1	3.9	18	34	4	42.1	3.9	38.1	3	0.434	0.000	D	34	3.9	897.984	898.965	899.399	899.401	0
1	22102403	272	High	1.5	Vague	2	4	8	21	38.1	40.3	1.8	4	8	21	38.1	40.3	1.8	3	0.314	0.000	R	21	1.8	899.904	900.805	901.118	901.121	0
1	22102403	273	High	1.5	Vague	2	2	18	24	33.6	42.1	1.6	2	18	24	33.6	42.1	1.6	1	0.364	0.000	L	2	33.6	901.624	902.979	903.342	903.345	0
1	22102403	274	High	1.5	Vague	2	15	18	21	35.8	42.1	1.8	21	15	18	1.8	35.8	42.1	1	0.417	0.000	D	15	35.8	903.848	905.830	906.247	906.249	0
1	22102403	275	High	1.5	Vague	2	2	8	21	33.6	40.3	1.8	21	2	8	1.8	33.6	40.3	2	0.484	0.000	R	8	40.3	906.752	907.531	908.015	908.017	0
1	22102403	276	High	1.5	Precise	1	10	8	16	8.9	40.3	5.3	16	8	10	5.3	40.3	8.9	2	0.358	0.000	D	8	40.3	908.520	910.481	910.839	910.841	0
1	22102403	277	High	1.5	Precise	1	10	4	1	8.9	38.1	5.2	10	4	1	8.9	38.1	5.2	1	0.482	0.000	L	10	8.9	911.343	913.788	914.270	914.273	0
1	22102403	278	High	1.5	Precise	1	15	18	16	35.8	42.1	5.3	15	16	18	35.8	5.3	42.1	3	0.542	0.000	D	16	5.3	914.776	916.129	916.671	916.673	0
1	22102403	279	High	1.5	Vague	2	2	8	36	33.6	40.3	2.5	36	2	8	2.5	33.6	40.3	2	0.749	0.000	R	8	40.3	917.176	918.266	919.014	919.017	0
1	22102403	280	High	1.5	Precise	1	4	8	1	38.1	40.3	5.2	4	8	1	38.1	40.3	5.2	3	0.890	0.001	R	1	5.2	919.520	921.548	922.439	922.441	0
1	22102403	281	High	1.5	Vague	2	2	4	24	33.6	38.1	1.6	4	2	24	38.1	33.6	1.6	2	0.854	0.000	L	4	38.1	922.944	925.697	926.551	926.553	0
1	22102403	282	High	1.5	Precise	1	10	15	1	8.9	35.8	5.2	1	15	10	5.2	35.8	8.9	NaN	NaN	NaN	NaN	NaN	NaN	927.056	929.154	NaN	930.641	1
1	22102403	283	High	1.5	Vague	2	4	8	36	38.1	40.3	2.5	8	36	4	40.3	2.5	38.1	NaN	NaN	NaN	NaN	NaN	NaN	932.644	935.111	NaN	936.598	1
1	22102403	284	High	1.5	Vague	2	2	15	24	33.6	35.8	1.6	15	24	2	35.8	1.6	33.6	NaN	NaN	NaN	NaN	NaN	NaN	938.600	939.875	NaN	941.362	1
1	22102403	285	High	1.5	Precise	1	15	4	6	35.8	38.1	2.7	4	15	6	38.1	35.8	2.7	3	0.519	0.000	R	6	2.7	943.364	945.104	945.623	945.625	0
1	22102403	286	High	1.5	Precise	1	10	4	14	8.9	38.1	3.5	14	4	10	3.5	38.1	8.9	3	0.715	0.000	L	14	3.5	946.128	948.187	948.902	948.905	0
1	22102403	287	High	1.5	Precise	1	10	2	16	8.9	33.6	5.3	2	10	16	33.6	8.9	5.3	1	0.616	0.000	D	10	8.9	949.408	950.647	951.263	951.265	0
1	22102403	288	High	1.5	Precise	1	4	18	6	38.1	42.1	2.7	6	4	18	2.7	38.1	42.1	2	1.068	0.000	R	18	42.1	951.768	952.891	953.959	953.961	0
1	22102403	289	High	1.5	Precise	1	2	18	6	33.6	42.1	2.7	18	2	6	42.1	33.6	2.7	2	0.790	0.000	L	18	42.1	954.464	956.465	957.254	957.257	0
1	22102403	290	High	1.5	Vague	2	10	4	21	8.9	38.1	1.8	21	10	4	1.8	8.9	38.1	2	0.746	0.001	R	4	38.1	957.759	958.477	959.223	959.225	0
1	22102403	291	High	1.5	Vague	2	15	18	34	35.8	42.1	3.9	34	18	15	3.9	42.1	35.8	2	0.651	0.000	D	18	42.1	959.728	960.627	961.278	961.281	0
1	22102403	292	High	1.5	Precise	1	2	4	6	33.6	38.1	2.7	6	4	2	2.7	38.1	33.6	3	0.619	0.000	L	6	2.7	961.783	962.907	963.526	963.529	0
1	22102403	293	High	1.5	Vague	2	10	15	32	8.9	35.8	4.6	10	15	32	8.9	35.8	4.6	2	0.582	0.001	D	15	35.8	964.031	966.713	967.295	967.297	0
1	22102403	294	High	1.5	Precise	1	10	18	17	8.9	42.1	4.5	10	17	18	8.9	4.5	42.1	2	0.882	0.000	R	18	42.1	967.800	969.061	969.942	969.945	0
1	22102403	295	High	1.5	Precise	1	10	4	17	8.9	38.1	4.5	10	4	17	8.9	38.1	4.5	NaN	NaN	NaN	NaN	NaN	NaN	970.447	972.879	NaN	974.366	1
1	22102403	296	High	1.5	Vague	2	8	18	24	40.3	42.1	1.6	8	18	24	40.3	42.1	1.6	2	0.326	0.000	D	18	42.1	976.368	978.392	978.718	978.721	0
1	22102403	297	High	1.5	Vague	2	10	2	34	8.9	33.6	3.9	2	34	10	33.6	3.9	8.9	2	0.508	0.000	L	2	33.6	979.224	980.122	980.630	980.633	0
1	22102403	298	High	1.5	Precise	1	10	2	6	8.9	33.6	2.7	10	6	2	8.9	2.7	33.6	2	0.027	0.000	R	2	33.6	981.135	983.403	983.430	983.433	0
1	22102403	299	High	1.5	Precise	1	2	8	6	33.6	40.3	2.7	8	2	6	40.3	33.6	2.7	2	0.693	0.000	L	8	40.3	983.935	984.850	985.542	985.545	0
1	22102403	300	High	1.5	Vague	2	10	8	32	8.9	40.3	4.6	8	10	32	40.3	8.9	4.6	3	0.908	0.000	R	32	4.6	986.048	986.898	987.806	987.810	0
1	22102403	301	High	1.5	Vague	2	10	2	27	8.9	33.6	3.1	10	2	27	8.9	33.6	3.1	1	0.618	0.001	L	10	8.9	991.092	991.740	992.359	992.361	0
1	22102403	302	High	1.5	Precise	1	10	18	6	8.9	42.1	2.7	10	18	6	8.9	42.1	2.7	2	1.160	0.001	D	18	42.1	992.863	995.831	996.991	996.993	0
1	22102403	303	High	1.5	Precise	1	4	8	17	38.1	40.3	4.5	8	4	17	40.3	38.1	4.5	2	0.675	0.001	L	8	40.3	997.496	998.323	998.999	999.001	0
1	22102403	304	High	1.5	Precise	1	2	15	14	33.6	35.8	3.5	2	14	15	33.6	3.5	35.8	3	0.518	0.001	D	14	3.5	999.504	1001.673	1002.191	1002.194	0
1	22102403	305	High	1.5	Precise	1	10	8	14	8.9	40.3	3.5	8	10	14	40.3	8.9	3.5	2	0.685	0.001	L	8	40.3	1002.697	1003.538	1004.223	1004.225	0
1	22102403	306	High	1.5	Precise	1	10	15	6	8.9	35.8	2.7	15	6	10	35.8	2.7	8.9	3	0.473	0.000	D	6	2.7	1004.728	1005.382	1005.855	1005.857	0
1	22102403	307	High	1.5	Vague	2	10	15	27	8.9	35.8	3.1	10	15	27	8.9	35.8	3.1	3	0.621	0.000	R	27	3.1	1006.359	1007.289	1007.910	1007.914	0
1	22102403	308	High	1.5	Precise	1	10	18	1	8.9	42.1	5.2	1	10	18	5.2	8.9	42.1	NaN	NaN	NaN	NaN	NaN	NaN	1008.417	1010.806	NaN	1012.296	1
1	22102403	309	High	1.5	Vague	2	10	18	24	8.9	42.1	1.6	18	10	24	42.1	8.9	1.6	3	0.045	0.000	R	24	1.6	1014.299	1016.170	1016.214	1016.217	0
1	22102403	310	High	1.5	Vague	2	15	18	32	35.8	42.1	4.6	32	15	18	4.6	35.8	42.1	3	0.180	0.001	L	32	4.6	1016.720	1017.587	1017.767	1017.770	0
1	22102403	311	High	1.5	Vague	2	10	8	36	8.9	40.3	2.5	10	8	36	8.9	40.3	2.5	1	0.550	0.001	L	10	8.9	1018.272	1020.504	1021.055	1021.058	0
1	22102403	312	High	1.5	Precise	1	15	4	12	35.8	38.1	7.2	15	4	12	35.8	38.1	7.2	2	0.506	0.000	D	4	38.1	1021.560	1024.196	1024.702	1024.705	0
1	22102403	313	High	1.5	Vague	2	2	18	32	33.6	42.1	4.6	18	32	2	42.1	4.6	33.6	1	0.825	0.000	R	2	33.6	1025.208	1025.878	1026.703	1026.705	0
1	22102403	314	High	1.5	Precise	1	8	18	6	40.3	42.1	2.7	8	18	6	40.3	42.1	2.7	1	0.563	0.000	L	8	40.3	1027.208	1029.699	1030.262	1030.265	0
1	22102403	315	High	1.5	Precise	1	2	15	16	33.6	35.8	5.3	16	15	2	5.3	35.8	33.6	2	0.560	0.000	D	15	35.8	1030.768	1032.575	1033.135	1033.137	0
1	22102403	316	High	1.5	Vague	2	10	18	21	8.9	42.1	1.8	18	10	21	42.1	8.9	1.8	1	0.563	0.000	D	10	8.9	1033.640	1034.660	1035.222	1035.225	0
1	22102403	317	High	1.5	Precise	1	2	18	16	33.6	42.1	5.3	18	2	16	42.1	33.6	5.3	2	0.388	0.000	L	18	42.1	1035.728	1036.331	1036.719	1036.721	0
1	22102403	318	High	1.5	Vague	2	2	4	34	33.6	38.1	3.9	34	4	2	3.9	38.1	33.6	1	0.064	0.000	R	2	33.6	1037.224	1039.550	1039.614	1039.618	0
1	22102403	319	High	1.5	Vague	2	2	4	21	33.6	38.1	1.8	21	2	4	1.8	33.6	38.1	3	0.000	2.632	L	21	1.8	1040.121	1042.246	1042.246	1042.266	0
1	22102403	320	High	1.5	Precise	1	10	8	6	8.9	40.3	2.7	6	8	10	2.7	40.3	8.9	2	0.121	0.000	D	8	40.3	1042.770	1043.621	1043.742	1043.745	0
1	22102403	321	High	1.5	Vague	2	10	2	32	8.9	33.6	4.6	32	10	2	4.6	8.9	33.6	3	0.339	0.001	L	32	4.6	1044.247	1045.148	1045.486	1045.489	0
1	22102403	322	High	1.5	Vague	2	10	18	36	8.9	42.1	2.5	10	18	36	8.9	42.1	2.5	2	0.089	0.001	D	18	42.1	1045.992	1047.237	1047.327	1047.329	0
1	22102403	323	High	1.5	Vague	2	10	15	24	8.9	35.8	1.6	15	24	10	35.8	1.6	8.9	2	0.000	1.281	L	15	35.8	1047.832	1048.607	1048.608	1048.623	0
1	22102403	324	High	1.5	Precise	1	15	8	6	35.8	40.3	2.7	6	8	15	2.7	40.3	35.8	3	0.576	0.000	L	6	2.7	1049.125	1051.630	1052.207	1052.209	0
1	22102403	325	High	1.5	Vague	2	10	2	21	8.9	33.6	1.8	10	2	21	8.9	33.6	1.8	3	0.614	0.000	R	21	1.8	1052.712	1053.984	1054.598	1054.601	0
1	22102403	326	High	1.5	Vague	2	10	4	32	8.9	38.1	4.6	32	4	10	4.6	38.1	8.9	2	0.539	0.000	D	4	38.1	1055.103	1056.819	1057.358	1057.361	0
1	22102403	327	High	1.5	Vague	2	2	18	36	33.6	42.1	2.5	18	36	2	42.1	2.5	33.6	1	1.163	0.000	R	2	33.6	1057.863	1059.612	1060.774	1060.777	0
1	22102403	328	High	1.5	Precise	1	2	15	1	33.6	35.8	5.2	2	15	1	33.6	35.8	5.2	1	0.697	0.000	L	2	33.6	1061.279	1062.342	1063.038	1063.041	0
1	22102403	329	High	1.5	Vague	2	4	18	21	38.1	42.1	1.8	4	18	21	38.1	42.1	1.8	2	0.848	0.000	D	18	42.1	1063.543	1064.215	1065.063	1065.065	0
1	22102403	330	High	1.5	Vague	2	2	8	34	33.6	40.3	3.9	34	2	8	3.9	33.6	40.3	2	0.475	0.000	R	8	40.3	1065.568	1067.955	1068.431	1068.433	0
1	22102403	331	High	1.5	Vague	2	10	8	24	8.9	40.3	1.6	10	8	24	8.9	40.3	1.6	1	0.492	0.001	L	10	8.9	1068.935	1071.731	1072.223	1072.225	0
1	22102403	332	High	1.5	Vague	2	15	18	36	35.8	42.1	2.5	15	18	36	35.8	42.1	2.5	2	1.078	0.001	D	18	42.1	1072.728	1073.481	1074.559	1074.561	0
1	22102403	333	High	1.5	Precise	1	8	18	14	40.3	42.1	3.5	8	14	18	40.3	3.5	42.1	2	0.522	0.001	R	18	42.1	1075.064	1075.860	1076.382	1076.385	0
1	22102403	334	High	1.5	Precise	1	4	18	1	38.1	42.1	5.2	4	18	1	38.1	42.1	5.2	1	0.521	0.001	L	4	38.1	1076.887	1078.501	1079.022	1079.025	0
1	22102403	335	High	1.5	Precise	1	15	4	16	35.8	38.1	5.3	15	16	4	35.8	5.3	38.1	3	0.456	0.000	D	16	5.3	1079.528	1081.230	1081.686	1081.689	0
1	22102403	336	High	1.5	Vague	2	15	4	34	35.8	38.1	3.9	15	34	4	35.8	3.9	38.1	3	0.626	0.001	D	34	3.9	1082.192	1083.213	1083.839	1083.841	0
1	22102403	337	High	1.5	Precise	1	2	4	16	33.6	38.1	5.3	16	4	2	5.3	38.1	33.6	3	0.204	0.001	L	16	5.3	1084.344	1084.930	1085.135	1085.137	0
1	22102403	338	High	1.5	Precise	1	8	18	17	40.3	42.1	4.5	17	8	18	4.5	40.3	42.1	2	0.217	0.000	R	18	42.1	1085.639	1088.053	1088.270	1088.273	0
1	22102403	339	High	1.5	Precise	1	2	18	12	33.6	42.1	7.2	12	2	18	7.2	33.6	42.1	NaN	NaN	NaN	NaN	NaN	NaN	1088.775	1090.706	NaN	1092.193	1
1	22102403	340	High	1.5	Vague	2	4	18	24	38.1	42.1	1.6	24	4	18	1.6	38.1	42.1	2	0.523	0.001	R	18	42.1	1094.195	1094.796	1095.318	1095.321	0
1	22102403	341	High	1.5	Vague	2	15	8	24	35.8	40.3	1.6	8	24	15	40.3	1.6	35.8	NaN	NaN	NaN	NaN	NaN	NaN	1095.824	1097.755	NaN	1099.241	1
1	22102403	342	High	1.5	Precise	1	15	4	14	35.8	38.1	3.5	15	14	4	35.8	3.5	38.1	NaN	NaN	NaN	NaN	NaN	NaN	1101.244	1103.348	NaN	1104.834	1
1	22102403	343	High	1.5	Precise	1	15	8	14	35.8	40.3	3.5	15	14	8	35.8	3.5	40.3	2	0.654	0.000	R	8	40.3	1106.837	1109.328	1109.982	1109.985	0
1	22102403	344	High	1.5	Vague	2	10	18	32	8.9	42.1	4.6	32	10	18	4.6	8.9	42.1	2	0.727	0.001	R	18	42.1	1110.488	1111.023	1111.751	1111.753	0
1	22102403	345	High	1.5	Vague	2	2	8	27	33.6	40.3	3.1	2	27	8	33.6	3.1	40.3	3	0.180	0.001	D	27	3.1	1112.255	1113.291	1113.470	1113.473	0
1	22102403	346	High	1.5	Vague	2	4	18	27	38.1	42.1	3.1	18	4	27	42.1	38.1	3.1	2	0.638	0.000	L	18	42.1	1113.976	1116.529	1117.166	1117.169	0
1	22102403	347	High	1.5	Vague	2	2	4	27	33.6	38.1	3.1	2	4	27	33.6	38.1	3.1	2	0.617	0.001	D	4	38.1	1117.671	1118.301	1118.918	1118.921	0
1	22102403	348	High	1.5	Precise	1	4	8	6	38.1	40.3	2.7	6	4	8	2.7	38.1	40.3	2	0.003	0.001	R	8	40.3	1119.423	1121.660	1121.663	1121.679	0
1	22102403	349	High	1.5	Vague	2	2	15	21	33.6	35.8	1.8	15	21	2	35.8	1.8	33.6	3	0.994	0.000	D	21	1.8	1122.182	1124.060	1125.054	1125.057	0
1	22102403	350	High	1.5	Precise	1	10	4	6	8.9	38.1	2.7	4	10	6	38.1	8.9	2.7	NaN	NaN	NaN	NaN	NaN	NaN	1125.560	1127.109	NaN	1128.595	1
1	22102403	351	High	1.5	Precise	1	2	8	16	33.6	40.3	5.3	2	8	16	33.6	40.3	5.3	2	0.106	0.001	D	8	40.3	1130.598	1131.236	1131.342	1131.345	0
1	22102403	352	High	1.5	Vague	2	2	18	21	33.6	42.1	1.8	21	18	2	1.8	42.1	33.6	1	0.566	0.001	R	2	33.6	1131.849	1133.953	1134.519	1134.521	0
1	22102403	353	High	1.5	Vague	2	15	8	36	35.8	40.3	2.5	8	36	15	40.3	2.5	35.8	2	0.502	0.000	L	8	40.3	1135.024	1135.761	1136.263	1136.265	0
1	22102403	354	High	1.5	Vague	2	4	18	36	38.1	42.1	2.5	18	36	4	42.1	2.5	38.1	3	0.446	0.000	D	36	2.5	1136.768	1137.888	1138.334	1138.337	0
1	22102403	355	High	1.5	Precise	1	2	8	17	33.6	40.3	4.5	2	17	8	33.6	4.5	40.3	2	0.479	0.001	R	8	40.3	1138.840	1140.711	1141.191	1141.193	0
1	22102403	356	High	1.5	Precise	1	2	8	14	33.6	40.3	3.5	2	14	8	33.6	3.5	40.3	1	0.925	0.000	L	2	33.6	1141.696	1143.569	1144.494	1144.497	0
1	22102403	357	High	1.5	Vague	2	10	4	24	8.9	38.1	1.6	4	10	24	38.1	8.9	1.6	1	0.502	0.000	D	10	8.9	1145.000	1146.400	1146.902	1146.905	0
1	22102403	358	High	1.5	Precise	1	2	18	17	33.6	42.1	4.5	2	17	18	33.6	4.5	42.1	2	0.519	0.000	R	18	42.1	1147.407	1150.047	1150.566	1150.569	0
1	22102403	359	High	1.5	Vague	2	10	4	27	8.9	38.1	3.1	27	10	4	3.1	8.9	38.1	1	0.402	0.000	D	10	8.9	1151.072	1153.268	1153.671	1153.673	0
1	22102403	360	High	1.5	Vague	2	10	8	21	8.9	40.3	1.8	8	21	10	40.3	1.8	8.9	1	0.448	0.000	R	10	8.9	1154.176	1156.742	1157.190	1157.193	0
