Group	subID	trial	TimePressure	TimeConstraint	Vagueness	Vaguenesscode	ID1	ID2	ID3	V1	V2	V3	ID_left	ID_middle	ID_right	Bid_left	Bid_middle	Bid_right	chosenItem	RT	RTvariance	chosenPosition	chosenID	chosenValue	fixation_time	option_time	choice_time	feedback_time	timeout
1	22071805	1	Low	10.0	Vague	2	10	17	23	65.2	86.5	11.8	23	10	17	11.8	65.2	86.5	2	0.914	0.001	R	17	86.5	7.103	8.501	9.415	9.418	0
1	22071805	2	Low	10.0	Precise	1	16	15	14	58.9	67.6	33.8	15	14	16	67.6	33.8	58.9	2	2.090	0.000	L	15	67.6	9.922	12.348	14.438	14.442	0
1	22071805	3	Low	10.0	Vague	2	15	17	24	67.6	86.5	14.6	15	17	24	67.6	86.5	14.6	2	2.217	0.000	D	17	86.5	14.947	16.598	18.815	18.817	0
1	22071805	4	Low	10.0	Vague	2	12	18	27	38.2	89.4	16.8	12	18	27	38.2	89.4	16.8	2	1.980	0.000	D	18	89.4	19.320	19.867	21.847	21.849	0
1	22071805	5	Low	10.0	Vague	2	12	18	28	38.2	89.4	20.1	12	28	18	38.2	20.1	89.4	2	1.001	0.000	R	18	89.4	22.353	23.214	24.214	24.219	0
1	22071805	6	Low	10.0	Precise	1	16	17	7	58.9	86.5	21.0	7	17	16	21.0	86.5	58.9	2	1.059	0.000	D	17	86.5	24.723	25.907	26.966	26.969	0
1	22071805	7	Low	10.0	Vague	2	17	18	28	86.5	89.4	20.1	28	18	17	20.1	89.4	86.5	2	1.431	0.001	D	18	89.4	27.472	30.160	31.591	31.594	0
1	22071805	8	Low	10.0	Precise	1	12	15	7	38.2	67.6	21.0	15	12	7	67.6	38.2	21.0	3	1.560	0.001	R	7	21.0	32.096	33.327	34.887	34.889	0
1	22071805	9	Low	10.0	Precise	1	12	16	4	38.2	58.9	21.8	12	16	4	38.2	58.9	21.8	3	1.294	0.001	R	4	21.8	35.391	36.848	38.143	38.145	0
1	22071805	10	Low	10.0	Precise	1	15	18	7	67.6	89.4	21.0	18	7	15	89.4	21.0	67.6	2	1.382	0.000	L	18	89.4	38.648	41.505	42.886	42.889	0
1	22071805	11	Low	10.0	Vague	2	16	10	24	58.9	65.2	14.6	16	10	24	58.9	65.2	14.6	3	1.449	0.001	R	24	14.6	43.392	44.742	46.191	46.193	0
1	22071805	12	Low	10.0	Precise	1	12	18	7	38.2	89.4	21.0	7	18	12	21.0	89.4	38.2	2	1.523	0.000	D	18	89.4	46.696	48.652	50.175	50.177	0
1	22071805	13	Low	10.0	Precise	1	10	15	7	65.2	67.6	21.0	7	10	15	21.0	65.2	67.6	1	1.207	0.000	D	10	65.2	50.680	51.543	52.751	52.753	0
1	22071805	14	Low	10.0	Precise	1	10	17	3	65.2	86.5	11.1	10	17	3	65.2	86.5	11.1	2	1.011	0.000	D	17	86.5	53.256	53.804	54.815	54.817	0
1	22071805	15	Low	10.0	Vague	2	15	18	27	67.6	89.4	16.8	18	27	15	89.4	16.8	67.6	2	1.088	0.000	L	18	89.4	55.320	55.863	56.951	56.953	0
1	22071805	16	Low	10.0	Vague	2	15	18	24	67.6	89.4	14.6	18	24	15	89.4	14.6	67.6	2	1.020	0.000	L	18	89.4	57.455	59.907	60.927	60.929	0
1	22071805	17	Low	10.0	Precise	1	16	18	14	58.9	89.4	33.8	14	16	18	33.8	58.9	89.4	2	1.091	0.001	R	18	89.4	61.432	64.052	65.143	65.145	0
1	22071805	18	Low	10.0	Precise	1	15	17	3	67.6	86.5	11.1	15	17	3	67.6	86.5	11.1	2	1.075	0.000	D	17	86.5	65.648	67.316	68.391	68.393	0
1	22071805	19	Low	10.0	Vague	2	16	10	23	58.9	65.2	11.8	10	16	23	65.2	58.9	11.8	2	1.233	0.001	L	10	65.2	68.896	70.358	71.591	71.594	0
1	22071805	20	Low	10.0	Precise	1	15	18	3	67.6	89.4	11.1	3	18	15	11.1	89.4	67.6	2	1.148	0.000	D	18	89.4	72.096	74.387	75.535	75.537	0
1	22071805	21	Low	10.0	Vague	2	12	16	24	38.2	58.9	14.6	12	24	16	38.2	14.6	58.9	3	1.367	0.001	D	24	14.6	76.040	78.064	79.431	79.433	0
1	22071805	22	Low	10.0	Vague	2	17	18	24	86.5	89.4	14.6	18	24	17	89.4	14.6	86.5	1	0.767	0.000	R	17	86.5	79.935	82.895	83.662	83.665	0
1	22071805	23	Low	10.0	Vague	2	10	15	25	65.2	67.6	31.0	15	10	25	67.6	65.2	31.0	1	1.439	0.001	D	10	65.2	84.167	86.488	87.927	87.929	0
1	22071805	24	Low	10.0	Vague	2	12	10	20	38.2	65.2	10.2	20	10	12	10.2	65.2	38.2	2	1.760	0.000	D	10	65.2	88.432	89.398	91.159	91.161	0
1	22071805	25	Low	10.0	Vague	2	12	15	25	38.2	67.6	31.0	12	15	25	38.2	67.6	31.0	3	1.809	0.000	R	25	31.0	91.664	92.806	94.614	94.617	0
1	22071805	26	Low	10.0	Vague	2	16	17	25	58.9	86.5	31.0	17	25	16	86.5	31.0	58.9	2	0.717	0.001	L	17	86.5	95.119	95.873	96.591	96.593	0
1	22071805	27	Low	10.0	Vague	2	10	17	25	65.2	86.5	31.0	10	17	25	65.2	86.5	31.0	2	0.642	0.001	D	17	86.5	97.096	99.837	100.479	100.481	0
1	22071805	28	Low	10.0	Precise	1	12	10	5	38.2	65.2	13.4	12	5	10	38.2	13.4	65.2	2	1.485	0.000	R	10	65.2	100.983	102.266	103.751	103.753	0
1	22071805	29	Low	10.0	Precise	1	10	17	5	65.2	86.5	13.4	5	10	17	13.4	65.2	86.5	2	0.678	0.000	R	17	86.5	104.255	106.272	106.950	106.953	0
1	22071805	30	Low	10.0	Vague	2	16	18	23	58.9	89.4	11.8	18	16	23	89.4	58.9	11.8	2	0.762	0.001	L	18	89.4	107.456	109.789	110.551	110.553	0
1	22071805	31	Low	10.0	Vague	2	10	15	27	65.2	67.6	16.8	27	15	10	16.8	67.6	65.2	1	0.928	0.000	R	10	65.2	111.056	112.446	113.375	113.377	0
1	22071805	32	Low	10.0	Vague	2	10	17	28	65.2	86.5	20.1	28	10	17	20.1	65.2	86.5	2	0.680	0.001	R	17	86.5	113.880	116.119	116.799	116.801	0
1	22071805	33	Low	10.0	Vague	2	12	10	23	38.2	65.2	11.8	10	12	23	65.2	38.2	11.8	2	1.270	0.000	L	10	65.2	117.304	118.520	119.790	119.793	0
1	22071805	34	Low	10.0	Vague	2	12	17	25	38.2	86.5	31.0	25	17	12	31.0	86.5	38.2	2	1.307	0.000	D	17	86.5	120.295	121.348	122.655	122.657	0
1	22071805	35	Low	10.0	Precise	1	12	18	4	38.2	89.4	21.8	12	18	4	38.2	89.4	21.8	2	1.215	0.001	D	18	89.4	123.160	124.160	125.375	125.377	0
1	22071805	36	Low	10.0	Precise	1	10	18	4	65.2	89.4	21.8	18	4	10	89.4	21.8	65.2	2	0.668	0.000	L	18	89.4	125.880	128.834	129.503	129.505	0
1	22071805	37	Low	10.0	Vague	2	12	15	20	38.2	67.6	10.2	15	12	20	67.6	38.2	10.2	2	1.910	0.000	L	15	67.6	130.007	131.568	133.478	133.481	0
1	22071805	38	Low	10.0	Vague	2	10	18	25	65.2	89.4	31.0	25	10	18	31.0	65.2	89.4	1	1.722	0.001	D	10	65.2	133.983	135.933	137.655	137.657	0
1	22071805	39	Low	10.0	Vague	2	15	17	25	67.6	86.5	31.0	17	25	15	86.5	31.0	67.6	2	1.013	0.000	L	17	86.5	138.159	140.865	141.878	141.881	0
1	22071805	40	Low	10.0	Vague	2	16	15	20	58.9	67.6	10.2	15	16	20	67.6	58.9	10.2	1	2.111	0.000	D	16	58.9	142.384	144.055	146.166	146.169	0
1	22071805	41	Low	10.0	Vague	2	12	15	28	38.2	67.6	20.1	15	28	12	67.6	20.1	38.2	2	2.068	0.001	L	15	67.6	146.671	148.683	150.751	150.753	0
1	22071805	42	Low	10.0	Precise	1	16	15	11	58.9	67.6	18.7	16	11	15	58.9	18.7	67.6	3	2.740	0.000	D	11	18.7	151.256	153.859	156.598	156.601	0
1	22071805	43	Low	10.0	Vague	2	12	17	24	38.2	86.5	14.6	17	12	24	86.5	38.2	14.6	2	0.847	0.000	L	17	86.5	157.104	159.224	160.071	160.073	0
1	22071805	44	Low	10.0	Precise	1	12	16	5	38.2	58.9	13.4	5	16	12	13.4	58.9	38.2	2	1.810	0.001	D	16	58.9	160.576	162.965	164.775	164.777	0
1	22071805	45	Low	10.0	Vague	2	12	18	25	38.2	89.4	31.0	12	18	25	38.2	89.4	31.0	2	0.844	0.000	D	18	89.4	165.280	168.170	169.015	169.017	0
1	22071805	46	Low	10.0	Vague	2	16	10	20	58.9	65.2	10.2	10	20	16	65.2	10.2	58.9	2	1.502	0.000	L	10	65.2	169.520	171.745	173.246	173.249	0
1	22071805	47	Low	10.0	Vague	2	10	17	27	65.2	86.5	16.8	17	10	27	86.5	65.2	16.8	2	0.781	0.000	L	17	86.5	173.752	174.905	175.687	175.689	0
1	22071805	48	Low	10.0	Precise	1	10	15	11	65.2	67.6	18.7	11	15	10	18.7	67.6	65.2	1	1.492	0.001	R	10	65.2	176.192	177.091	178.583	178.585	0
1	22071805	49	Low	10.0	Vague	2	16	17	28	58.9	86.5	20.1	16	17	28	58.9	86.5	20.1	2	1.124	0.000	D	17	86.5	179.088	180.506	181.631	181.633	0
1	22071805	50	Low	10.0	Precise	1	10	15	14	65.2	67.6	33.8	15	14	10	67.6	33.8	65.2	1	1.115	0.001	R	10	65.2	182.136	183.171	184.287	184.289	0
1	22071805	51	Low	10.0	Vague	2	12	16	28	38.2	58.9	20.1	12	28	16	38.2	20.1	58.9	2	1.803	0.000	R	16	58.9	184.793	187.627	189.430	189.433	0
1	22071805	52	Low	10.0	Precise	1	15	18	4	67.6	89.4	21.8	4	15	18	21.8	67.6	89.4	3	2.200	0.000	L	4	21.8	189.935	192.303	194.503	194.505	0
1	22071805	53	Low	10.0	Precise	1	10	15	5	65.2	67.6	13.4	5	15	10	13.4	67.6	65.2	1	1.407	0.000	R	10	65.2	195.008	197.807	199.214	199.217	0
1	22071805	54	Low	10.0	Precise	1	15	17	11	67.6	86.5	18.7	11	15	17	18.7	67.6	86.5	2	1.356	0.000	R	17	86.5	199.720	200.851	202.207	202.209	0
1	22071805	55	Low	10.0	Precise	1	10	18	14	65.2	89.4	33.8	18	14	10	89.4	33.8	65.2	1	1.040	0.000	R	10	65.2	202.712	203.399	204.438	204.441	0
1	22071805	56	Low	10.0	Vague	2	10	18	24	65.2	89.4	14.6	10	18	24	65.2	89.4	14.6	3	1.552	0.001	R	24	14.6	204.943	205.487	207.039	207.041	0
1	22071805	57	Low	10.0	Precise	1	17	18	4	86.5	89.4	21.8	17	18	4	86.5	89.4	21.8	1	0.824	0.001	L	17	86.5	207.543	208.054	208.879	208.881	0
1	22071805	58	Low	10.0	Vague	2	17	18	20	86.5	89.4	10.2	17	20	18	86.5	10.2	89.4	1	0.541	0.000	L	17	86.5	209.384	210.546	211.086	211.089	0
1	22071805	59	Low	10.0	Vague	2	16	10	27	58.9	65.2	16.8	16	27	10	58.9	16.8	65.2	2	0.669	0.000	R	10	65.2	211.592	213.577	214.247	214.249	0
1	22071805	60	Low	10.0	Vague	2	16	17	20	58.9	86.5	10.2	17	16	20	86.5	58.9	10.2	2	0.653	0.000	L	17	86.5	214.752	216.625	217.278	217.281	0
1	22071805	61	Low	10.0	Vague	2	10	18	20	65.2	89.4	10.2	10	18	20	65.2	89.4	10.2	2	0.759	0.000	D	18	89.4	225.960	226.904	227.663	227.665	0
1	22071805	62	Low	10.0	Precise	1	16	17	11	58.9	86.5	18.7	16	17	11	58.9	86.5	18.7	2	1.260	0.000	D	17	86.5	228.167	231.003	232.262	232.265	0
1	22071805	63	Low	10.0	Precise	1	12	17	7	38.2	86.5	21.0	17	12	7	86.5	38.2	21.0	2	0.937	0.000	L	17	86.5	232.767	234.893	235.831	235.833	0
1	22071805	64	Low	10.0	Vague	2	10	18	28	65.2	89.4	20.1	10	28	18	65.2	20.1	89.4	1	1.778	0.000	L	10	65.2	236.335	238.348	240.126	240.129	0
1	22071805	65	Low	10.0	Precise	1	12	15	11	38.2	67.6	18.7	12	15	11	38.2	67.6	18.7	3	1.563	0.000	R	11	18.7	240.632	242.548	244.110	244.113	0
1	22071805	66	Low	10.0	Vague	2	16	18	24	58.9	89.4	14.6	18	24	16	89.4	14.6	58.9	2	1.500	0.001	L	18	89.4	244.615	247.355	248.855	248.857	0
1	22071805	67	Low	10.0	Precise	1	16	18	5	58.9	89.4	13.4	5	16	18	13.4	58.9	89.4	2	1.153	0.000	R	18	89.4	249.359	251.838	252.990	252.993	0
1	22071805	68	Low	10.0	Vague	2	15	17	20	67.6	86.5	10.2	20	17	15	10.2	86.5	67.6	2	0.796	0.000	D	17	86.5	253.495	254.474	255.270	255.273	0
1	22071805	69	Low	10.0	Vague	2	15	18	20	67.6	89.4	10.2	20	15	18	10.2	67.6	89.4	2	0.902	0.001	R	18	89.4	255.775	256.384	257.287	257.289	0
1	22071805	70	Low	10.0	Precise	1	12	15	14	38.2	67.6	33.8	15	14	12	67.6	33.8	38.2	2	2.157	0.000	L	15	67.6	257.792	260.057	262.214	262.217	0
1	22071805	71	Low	10.0	Vague	2	12	10	24	38.2	65.2	14.6	10	24	12	65.2	14.6	38.2	2	1.175	0.000	L	10	65.2	262.720	263.520	264.695	264.697	0
1	22071805	72	Low	10.0	Precise	1	16	10	3	58.9	65.2	11.1	10	16	3	65.2	58.9	11.1	2	1.793	0.000	L	10	65.2	265.199	267.710	269.503	269.505	0
1	22071805	73	Low	10.0	Vague	2	16	18	20	58.9	89.4	10.2	18	20	16	89.4	10.2	58.9	2	1.327	0.001	L	18	89.4	270.008	271.215	272.543	272.545	0
1	22071805	74	Low	10.0	Vague	2	12	18	20	38.2	89.4	10.2	20	18	12	10.2	89.4	38.2	2	1.352	0.000	D	18	89.4	273.047	274.238	275.590	275.593	0
1	22071805	75	Low	10.0	Vague	2	15	18	25	67.6	89.4	31.0	18	25	15	89.4	31.0	67.6	2	1.437	0.000	L	18	89.4	276.096	278.097	279.534	279.537	0
1	22071805	76	Low	10.0	Vague	2	10	18	27	65.2	89.4	16.8	18	10	27	89.4	65.2	16.8	2	1.345	0.000	L	18	89.4	280.039	280.846	282.191	282.193	0
1	22071805	77	Low	10.0	Vague	2	17	18	27	86.5	89.4	16.8	17	18	27	86.5	89.4	16.8	1	0.701	0.000	L	17	86.5	282.695	284.985	285.687	285.689	0
1	22071805	78	Low	10.0	Vague	2	16	17	27	58.9	86.5	16.8	16	17	27	58.9	86.5	16.8	2	0.959	0.000	D	17	86.5	286.191	288.847	289.807	289.809	0
1	22071805	79	Low	10.0	Vague	2	12	16	23	38.2	58.9	11.8	23	12	16	11.8	38.2	58.9	1	1.994	0.000	D	12	38.2	290.313	292.972	294.967	294.969	0
1	22071805	80	Low	10.0	Vague	2	12	10	27	38.2	65.2	16.8	10	27	12	65.2	16.8	38.2	2	1.654	0.001	L	10	65.2	295.472	298.064	299.718	299.721	0
1	22071805	81	Low	10.0	Precise	1	16	15	3	58.9	67.6	11.1	3	16	15	11.1	58.9	67.6	3	1.052	0.000	L	3	11.1	300.223	302.634	303.686	303.689	0
1	22071805	82	Low	10.0	Precise	1	15	17	14	67.6	86.5	33.8	15	14	17	67.6	33.8	86.5	2	1.058	0.000	R	17	86.5	304.192	307.172	308.230	308.233	0
1	22071805	83	Low	10.0	Precise	1	16	15	7	58.9	67.6	21.0	16	15	7	58.9	67.6	21.0	1	2.392	0.001	L	16	58.9	308.736	309.335	311.727	311.729	0
1	22071805	84	Low	10.0	Vague	2	12	17	28	38.2	86.5	20.1	12	17	28	38.2	86.5	20.1	2	1.014	0.000	D	17	86.5	312.231	314.225	315.239	315.241	0
1	22071805	85	Low	10.0	Precise	1	16	15	4	58.9	67.6	21.8	16	15	4	58.9	67.6	21.8	3	1.173	0.001	R	4	21.8	315.743	316.665	317.839	317.841	0
1	22071805	86	Low	10.0	Precise	1	12	18	14	38.2	89.4	33.8	14	18	12	33.8	89.4	38.2	3	1.628	0.000	L	14	33.8	318.344	321.194	322.822	322.825	0
1	22071805	87	Low	10.0	Vague	2	17	18	25	86.5	89.4	31.0	18	25	17	89.4	31.0	86.5	1	1.135	0.000	R	17	86.5	323.328	325.199	326.334	326.337	0
1	22071805	88	Low	10.0	Precise	1	10	17	4	65.2	86.5	21.8	4	10	17	21.8	65.2	86.5	2	1.349	0.001	R	17	86.5	326.840	329.602	330.951	330.953	0
1	22071805	89	Low	10.0	Vague	2	16	15	27	58.9	67.6	16.8	27	15	16	16.8	67.6	58.9	2	2.131	0.001	D	15	67.6	331.456	333.628	335.759	335.761	0
1	22071805	90	Low	10.0	Precise	1	16	17	14	58.9	86.5	33.8	17	16	14	86.5	58.9	33.8	2	1.418	0.000	L	17	86.5	336.264	337.972	339.390	339.393	0
1	22071805	91	Low	10.0	Precise	1	12	16	11	38.2	58.9	18.7	16	12	11	58.9	38.2	18.7	1	1.866	0.000	D	12	38.2	339.895	340.829	342.694	342.697	0
1	22071805	92	Low	10.0	Vague	2	12	17	23	38.2	86.5	11.8	12	17	23	38.2	86.5	11.8	2	1.041	0.000	D	17	86.5	343.200	344.966	346.007	346.009	0
1	22071805	93	Low	10.0	Precise	1	16	10	4	58.9	65.2	21.8	16	4	10	58.9	21.8	65.2	3	1.102	0.000	D	4	21.8	346.512	347.337	348.438	348.441	0
1	22071805	94	Low	10.0	Precise	1	15	18	5	67.6	89.4	13.4	5	15	18	13.4	67.6	89.4	2	1.758	0.000	R	18	89.4	348.943	351.528	353.286	353.289	0
1	22071805	95	Low	10.0	Precise	1	12	17	4	38.2	86.5	21.8	4	17	12	21.8	86.5	38.2	2	1.708	0.000	D	17	86.5	353.791	356.363	358.071	358.073	0
1	22071805	96	Low	10.0	Vague	2	10	17	20	65.2	86.5	10.2	17	10	20	86.5	65.2	10.2	2	0.980	0.000	L	17	86.5	358.576	360.978	361.958	361.961	0
1	22071805	97	Low	10.0	Precise	1	10	15	4	65.2	67.6	21.8	10	15	4	65.2	67.6	21.8	3	1.834	0.001	R	4	21.8	362.463	363.924	365.759	365.761	0
1	22071805	98	Low	10.0	Vague	2	16	17	24	58.9	86.5	14.6	24	17	16	14.6	86.5	58.9	2	0.971	0.001	D	17	86.5	366.264	367.564	368.535	368.537	0
1	22071805	99	Low	10.0	Precise	1	15	17	5	67.6	86.5	13.4	15	5	17	67.6	13.4	86.5	2	0.930	0.000	R	17	86.5	369.040	371.260	372.190	372.193	0
1	22071805	100	Low	10.0	Vague	2	12	17	27	38.2	86.5	16.8	27	17	12	16.8	86.5	38.2	2	0.817	0.000	D	17	86.5	372.695	374.261	375.078	375.081	0
1	22071805	101	Low	10.0	Precise	1	16	10	5	58.9	65.2	13.4	5	16	10	13.4	58.9	65.2	2	1.199	0.001	R	10	65.2	375.584	377.240	378.439	378.441	0
1	22071805	102	Low	10.0	Vague	2	12	18	23	38.2	89.4	11.8	23	12	18	11.8	38.2	89.4	2	1.246	0.000	R	18	89.4	378.944	381.200	382.446	382.449	0
1	22071805	103	Low	10.0	Vague	2	12	18	24	38.2	89.4	14.6	18	12	24	89.4	38.2	14.6	2	0.933	0.000	L	18	89.4	382.951	383.457	384.390	384.393	0
1	22071805	104	Low	10.0	Precise	1	15	17	4	67.6	86.5	21.8	4	15	17	21.8	67.6	86.5	2	1.287	0.000	R	17	86.5	384.896	387.615	388.902	388.905	0
1	22071805	105	Low	10.0	Precise	1	16	17	4	58.9	86.5	21.8	16	4	17	58.9	21.8	86.5	2	0.621	0.000	R	17	86.5	389.407	390.993	391.614	391.617	0
1	22071805	106	Low	10.0	Precise	1	12	15	3	38.2	67.6	11.1	12	15	3	38.2	67.6	11.1	3	1.381	0.001	R	3	11.1	392.119	392.617	393.999	394.001	0
1	22071805	107	Low	10.0	Precise	1	12	16	3	38.2	58.9	11.1	3	16	12	11.1	58.9	38.2	3	0.634	0.000	L	3	11.1	394.503	396.212	396.846	396.849	0
1	22071805	108	Low	10.0	Precise	1	12	15	4	38.2	67.6	21.8	4	15	12	21.8	67.6	38.2	3	1.014	0.000	L	4	21.8	397.351	400.305	401.319	401.321	0
1	22071805	109	Low	10.0	Precise	1	12	10	3	38.2	65.2	11.1	10	12	3	65.2	38.2	11.1	3	1.322	0.000	R	3	11.1	401.823	403.901	405.223	405.225	0
1	22071805	110	Low	10.0	Vague	2	12	10	28	38.2	65.2	20.1	10	28	12	65.2	20.1	38.2	2	1.089	0.001	L	10	65.2	405.728	407.006	408.095	408.097	0
1	22071805	111	Low	10.0	Vague	2	16	15	28	58.9	67.6	20.1	16	28	15	58.9	20.1	67.6	2	1.799	0.001	R	15	67.6	408.600	409.344	411.143	411.145	0
1	22071805	112	Low	10.0	Precise	1	12	16	7	38.2	58.9	21.0	16	12	7	58.9	38.2	21.0	3	2.207	0.000	R	7	21.0	411.647	413.335	415.542	415.545	0
1	22071805	113	Low	10.0	Vague	2	16	10	25	58.9	65.2	31.0	16	25	10	58.9	31.0	65.2	3	2.167	0.001	D	25	31.0	416.048	418.872	421.038	421.041	0
1	22071805	114	Low	10.0	Precise	1	12	10	14	38.2	65.2	33.8	10	14	12	65.2	33.8	38.2	3	1.975	0.001	D	14	33.8	421.544	422.071	424.047	424.049	0
1	22071805	115	Low	10.0	Precise	1	17	18	7	86.5	89.4	21.0	18	7	17	89.4	21.0	86.5	1	0.884	0.000	R	17	86.5	424.552	425.178	426.062	426.065	0
1	22071805	116	Low	10.0	Precise	1	10	15	3	65.2	67.6	11.1	3	10	15	11.1	65.2	67.6	3	0.831	0.000	L	3	11.1	426.567	429.559	430.390	430.393	0
1	22071805	117	Low	10.0	Precise	1	12	10	11	38.2	65.2	18.7	12	10	11	38.2	65.2	18.7	3	1.642	0.000	R	11	18.7	430.895	432.972	434.614	434.617	0
1	22071805	118	Low	10.0	Precise	1	16	18	4	58.9	89.4	21.8	16	4	18	58.9	21.8	89.4	3	1.445	0.001	D	4	21.8	435.121	437.386	438.831	438.834	0
1	22071805	119	Low	10.0	Vague	2	12	15	23	38.2	67.6	11.8	12	15	23	38.2	67.6	11.8	2	2.154	0.000	D	15	67.6	439.336	441.804	443.958	443.961	0
1	22071805	120	Low	10.0	Precise	1	16	10	7	58.9	65.2	21.0	10	7	16	65.2	21.0	58.9	2	1.698	0.000	L	10	65.2	444.464	446.292	447.990	447.993	0
1	22071805	121	Low	10.0	Precise	1	10	18	11	65.2	89.4	18.7	10	18	11	65.2	89.4	18.7	2	1.020	0.000	D	18	89.4	462.419	465.083	466.102	466.105	0
1	22071805	122	Low	10.0	Precise	1	17	18	5	86.5	89.4	13.4	5	18	17	13.4	89.4	86.5	1	1.100	0.000	R	17	86.5	466.608	469.451	470.550	470.553	0
1	22071805	123	Low	10.0	Precise	1	12	18	3	38.2	89.4	11.1	3	18	12	11.1	89.4	38.2	3	1.007	0.000	L	3	11.1	471.055	472.319	473.326	473.329	0
1	22071805	124	Low	10.0	Precise	1	16	18	11	58.9	89.4	18.7	18	16	11	89.4	58.9	18.7	2	1.322	0.000	L	18	89.4	473.831	476.676	477.998	478.001	0
1	22071805	125	Low	10.0	Vague	2	15	17	28	67.6	86.5	20.1	28	15	17	20.1	67.6	86.5	2	0.712	0.001	R	17	86.5	478.504	479.918	480.630	480.633	0
1	22071805	126	Low	10.0	Precise	1	12	17	14	38.2	86.5	33.8	14	12	17	33.8	38.2	86.5	2	1.515	0.001	R	17	86.5	481.136	481.836	483.350	483.353	0
1	22071805	127	Low	10.0	Precise	1	16	10	11	58.9	65.2	18.7	10	16	11	65.2	58.9	18.7	2	1.512	0.000	L	10	65.2	483.856	486.302	487.814	487.817	0
1	22071805	128	Low	10.0	Vague	2	16	18	27	58.9	89.4	16.8	18	27	16	89.4	16.8	58.9	2	1.190	0.000	L	18	89.4	488.319	489.752	490.942	490.945	0
1	22071805	129	Low	10.0	Precise	1	10	18	7	65.2	89.4	21.0	10	7	18	65.2	21.0	89.4	2	0.795	0.000	R	18	89.4	491.447	492.611	493.406	493.409	0
1	22071805	130	Low	10.0	Precise	1	17	18	11	86.5	89.4	18.7	11	18	17	18.7	89.4	86.5	1	1.455	0.000	R	17	86.5	493.911	496.895	498.350	498.353	0
1	22071805	131	Low	10.0	Precise	1	12	17	11	38.2	86.5	18.7	12	17	11	38.2	86.5	18.7	2	1.053	0.000	D	17	86.5	498.855	500.801	501.854	501.857	0
1	22071805	132	Low	10.0	Precise	1	16	17	5	58.9	86.5	13.4	16	5	17	58.9	13.4	86.5	2	0.842	0.000	R	17	86.5	502.359	504.501	505.342	505.345	0
1	22071805	133	Low	10.0	Vague	2	10	15	20	65.2	67.6	10.2	10	20	15	65.2	10.2	67.6	2	1.623	0.000	R	15	67.6	505.847	508.063	509.686	509.689	0
1	22071805	134	Low	10.0	Vague	2	10	15	23	65.2	67.6	11.8	15	10	23	67.6	65.2	11.8	2	1.660	0.000	L	15	67.6	510.191	511.570	513.230	513.233	0
1	22071805	135	Low	10.0	Precise	1	10	18	3	65.2	89.4	11.1	18	10	3	89.4	65.2	11.1	3	1.705	0.000	R	3	11.1	513.735	515.469	517.174	517.177	0
1	22071805	136	Low	10.0	Vague	2	12	16	20	38.2	58.9	10.2	16	20	12	58.9	10.2	38.2	3	2.493	0.000	D	20	10.2	517.679	518.617	521.110	521.113	0
1	22071805	137	Low	10.0	Precise	1	12	17	3	38.2	86.5	11.1	12	3	17	38.2	11.1	86.5	2	0.878	0.000	R	17	86.5	521.615	523.688	524.566	524.569	0
1	22071805	138	Low	10.0	Precise	1	12	15	5	38.2	67.6	13.4	5	15	12	13.4	67.6	38.2	2	2.308	0.000	D	15	67.6	525.071	527.467	529.774	529.777	0
1	22071805	139	Low	10.0	Precise	1	17	18	3	86.5	89.4	11.1	3	18	17	11.1	89.4	86.5	1	0.960	0.001	R	17	86.5	530.279	531.095	532.054	532.057	0
1	22071805	140	Low	10.0	Precise	1	12	17	5	38.2	86.5	13.4	12	5	17	38.2	13.4	86.5	2	0.710	0.000	R	17	86.5	532.560	534.401	535.110	535.113	0
1	22071805	141	Low	10.0	Vague	2	12	10	25	38.2	65.2	31.0	10	12	25	65.2	38.2	31.0	3	1.291	0.000	R	25	31.0	535.615	536.459	537.750	537.753	0
1	22071805	142	Low	10.0	Vague	2	15	18	28	67.6	89.4	20.1	15	28	18	67.6	20.1	89.4	2	1.817	0.001	R	18	89.4	538.255	540.046	541.862	541.865	0
1	22071805	143	Low	10.0	Vague	2	15	17	23	67.6	86.5	11.8	15	23	17	67.6	11.8	86.5	2	1.083	0.000	R	17	86.5	542.368	542.987	544.070	544.073	0
1	22071805	144	Low	10.0	Vague	2	12	15	27	38.2	67.6	16.8	15	12	27	67.6	38.2	16.8	2	1.585	0.000	L	15	67.6	544.576	547.270	548.854	548.857	0
1	22071805	145	Low	10.0	Vague	2	12	16	27	38.2	58.9	16.8	16	27	12	58.9	16.8	38.2	1	1.569	0.000	R	12	38.2	549.359	550.101	551.670	551.673	0
1	22071805	146	Low	10.0	Precise	1	10	18	5	65.2	89.4	13.4	5	10	18	13.4	65.2	89.4	2	0.795	0.000	R	18	89.4	552.175	554.443	555.238	555.241	0
1	22071805	147	Low	10.0	Precise	1	15	17	7	67.6	86.5	21.0	17	7	15	86.5	21.0	67.6	2	0.724	0.001	L	17	86.5	555.743	558.714	559.438	559.441	0
1	22071805	148	Low	10.0	Vague	2	12	15	24	38.2	67.6	14.6	15	12	24	67.6	38.2	14.6	2	1.395	0.000	L	15	67.6	559.943	561.443	562.838	562.841	0
1	22071805	149	Low	10.0	Precise	1	12	18	5	38.2	89.4	13.4	12	5	18	38.2	13.4	89.4	2	0.927	0.000	R	18	89.4	563.343	564.511	565.438	565.441	0
1	22071805	150	Low	10.0	Precise	1	16	10	14	58.9	65.2	33.8	16	10	14	58.9	65.2	33.8	3	0.946	0.001	R	14	33.8	565.943	568.108	569.055	569.057	0
1	22071805	151	Low	10.0	Vague	2	15	17	27	67.6	86.5	16.8	27	17	15	16.8	86.5	67.6	2	1.156	0.000	D	17	86.5	569.560	571.179	572.334	572.337	0
1	22071805	152	Low	10.0	Precise	1	10	17	11	65.2	86.5	18.7	10	11	17	65.2	18.7	86.5	2	1.010	0.000	R	17	86.5	572.839	573.989	574.998	575.001	0
1	22071805	153	Low	10.0	Vague	2	16	15	25	58.9	67.6	31.0	25	15	16	31.0	67.6	58.9	3	1.925	0.000	L	25	31.0	575.503	576.417	578.342	578.344	0
1	22071805	154	Low	10.0	Precise	1	16	18	3	58.9	89.4	11.1	3	16	18	11.1	58.9	89.4	3	0.879	0.001	L	3	11.1	578.847	579.783	580.663	580.665	0
1	22071805	155	Low	10.0	Vague	2	15	18	23	67.6	89.4	11.8	23	18	15	11.8	89.4	67.6	2	1.702	0.000	D	18	89.4	581.168	582.977	584.678	584.681	0
1	22071805	156	Low	10.0	Precise	1	16	17	3	58.9	86.5	11.1	3	17	16	11.1	86.5	58.9	2	1.602	0.000	D	17	86.5	585.183	586.485	588.086	588.089	0
1	22071805	157	Low	10.0	Precise	1	10	17	7	65.2	86.5	21.0	17	7	10	86.5	21.0	65.2	2	1.066	0.000	L	17	86.5	588.592	590.196	591.262	591.265	0
1	22071805	158	Low	10.0	Vague	2	16	18	28	58.9	89.4	20.1	18	28	16	89.4	20.1	58.9	2	1.386	0.000	L	18	89.4	591.767	593.836	595.222	595.225	0
1	22071805	159	Low	10.0	Precise	1	12	10	4	38.2	65.2	21.8	10	4	12	65.2	21.8	38.2	3	1.248	0.001	D	4	21.8	595.727	596.463	597.711	597.713	0
1	22071805	160	Low	10.0	Precise	1	16	18	7	58.9	89.4	21.0	7	16	18	21.0	58.9	89.4	2	1.435	0.000	R	18	89.4	598.215	600.892	602.326	602.329	0
1	22071805	161	Low	10.0	Vague	2	17	18	23	86.5	89.4	11.8	18	23	17	89.4	11.8	86.5	1	0.819	0.001	R	17	86.5	602.831	605.627	606.446	606.449	0
1	22071805	162	Low	10.0	Precise	1	12	16	14	38.2	58.9	33.8	14	12	16	33.8	38.2	58.9	3	1.183	0.000	L	14	33.8	606.951	607.768	608.950	608.953	0
1	22071805	163	Low	10.0	Vague	2	10	15	24	65.2	67.6	14.6	24	15	10	14.6	67.6	65.2	2	1.412	0.001	D	15	67.6	609.456	609.978	611.391	611.393	0
1	22071805	164	Low	10.0	Precise	1	17	18	14	86.5	89.4	33.8	14	18	17	33.8	89.4	86.5	1	1.286	0.000	R	17	86.5	611.895	613.480	614.766	614.769	0
1	22071805	165	Low	10.0	Vague	2	16	15	23	58.9	67.6	11.8	16	23	15	58.9	11.8	67.6	2	1.172	0.001	R	15	67.6	615.271	616.106	617.278	617.281	0
1	22071805	166	Low	10.0	Vague	2	16	18	25	58.9	89.4	31.0	25	16	18	31.0	58.9	89.4	3	0.819	0.000	L	25	31.0	617.784	620.667	621.486	621.488	0
1	22071805	167	Low	10.0	Vague	2	12	17	20	38.2	86.5	10.2	20	12	17	10.2	38.2	86.5	2	0.725	0.000	R	17	86.5	621.991	623.833	624.558	624.561	0
1	22071805	168	Low	10.0	Vague	2	10	18	23	65.2	89.4	11.8	10	18	23	65.2	89.4	11.8	1	1.221	0.000	L	10	65.2	625.063	625.578	626.798	626.801	0
1	22071805	169	Low	10.0	Precise	1	10	17	14	65.2	86.5	33.8	14	17	10	33.8	86.5	65.2	3	1.282	0.001	L	14	33.8	627.303	629.157	630.439	630.441	0
1	22071805	170	Low	10.0	Precise	1	12	10	7	38.2	65.2	21.0	10	12	7	65.2	38.2	21.0	2	1.683	0.000	L	10	65.2	630.944	633.131	634.814	634.816	0
1	22071805	171	Low	10.0	Vague	2	16	17	23	58.9	86.5	11.8	17	23	16	86.5	11.8	58.9	2	0.795	0.000	L	17	86.5	635.319	638.139	638.934	638.937	0
1	22071805	172	Low	10.0	Precise	1	15	18	14	67.6	89.4	33.8	18	15	14	89.4	67.6	33.8	3	1.007	0.000	R	14	33.8	639.439	641.047	642.054	642.057	0
1	22071805	173	Low	10.0	Vague	2	16	15	24	58.9	67.6	14.6	16	24	15	58.9	14.6	67.6	2	1.527	0.000	R	15	67.6	642.559	644.056	645.582	645.585	0
1	22071805	174	Low	10.0	Vague	2	10	17	24	65.2	86.5	14.6	24	17	10	14.6	86.5	65.2	2	0.750	0.000	D	17	86.5	646.087	647.952	648.702	648.705	0
1	22071805	175	Low	10.0	Precise	1	16	15	5	58.9	67.6	13.4	15	16	5	67.6	58.9	13.4	2	1.091	0.000	L	15	67.6	649.207	651.923	653.014	653.017	0
1	22071805	176	Low	10.0	Precise	1	15	18	11	67.6	89.4	18.7	15	11	18	67.6	18.7	89.4	1	1.076	0.000	L	15	67.6	653.520	655.586	656.662	656.664	0
1	22071805	177	Low	10.0	Precise	1	12	18	11	38.2	89.4	18.7	18	12	11	89.4	38.2	18.7	1	0.994	0.001	D	12	38.2	657.167	659.981	660.975	660.977	0
1	22071805	178	Low	10.0	Vague	2	10	15	28	65.2	67.6	20.1	10	15	28	65.2	67.6	20.1	1	1.349	0.000	L	10	65.2	661.481	663.522	664.870	664.873	0
1	22071805	179	Low	10.0	Vague	2	16	10	28	58.9	65.2	20.1	16	10	28	58.9	65.2	20.1	2	0.917	0.001	D	10	65.2	665.375	668.210	669.127	669.129	0
1	22071805	180	Low	10.0	Vague	2	12	16	25	38.2	58.9	31.0	25	12	16	31.0	38.2	58.9	3	1.073	0.000	L	25	31.0	669.631	671.533	672.606	672.609	0
1	22071805	181	High	1.5	Vague	2	16	10	29	58.9	65.2	17.2	29	16	10	17.2	58.9	65.2	2	0.937	0.000	R	10	65.2	691.342	692.973	693.910	693.913	0
1	22071805	182	High	1.5	Precise	1	12	16	2	38.2	58.9	8.6	16	12	2	58.9	38.2	8.6	NaN	NaN	NaN	NaN	NaN	NaN	694.415	695.367	NaN	696.857	1
1	22071805	183	High	1.5	Precise	1	16	15	1	58.9	67.6	13.0	1	15	16	13.0	67.6	58.9	3	0.901	0.000	L	1	13.0	698.862	700.410	701.310	701.314	0
1	22071805	184	High	1.5	Vague	2	15	17	31	67.6	86.5	16.0	31	17	15	16.0	86.5	67.6	2	1.391	0.001	D	17	86.5	701.817	702.776	704.167	704.169	0
1	22071805	185	High	1.5	Precise	1	16	10	6	58.9	65.2	20.1	10	16	6	65.2	58.9	20.1	2	1.418	0.000	L	10	65.2	704.672	707.156	708.574	708.577	0
1	22071805	186	High	1.5	Vague	2	15	17	29	67.6	86.5	17.2	17	15	29	86.5	67.6	17.2	2	0.690	0.000	L	17	86.5	709.079	710.204	710.894	710.897	0
1	22071805	187	High	1.5	Precise	1	16	18	8	58.9	89.4	29.9	8	18	16	29.9	89.4	58.9	NaN	NaN	NaN	NaN	NaN	NaN	711.399	712.219	NaN	713.706	1
1	22071805	188	High	1.5	Vague	2	16	17	29	58.9	86.5	17.2	17	29	16	86.5	17.2	58.9	2	0.653	0.000	L	17	86.5	715.709	716.233	716.886	716.889	0
1	22071805	189	High	1.5	Vague	2	15	17	30	67.6	86.5	11.6	15	17	30	67.6	86.5	11.6	2	0.821	0.001	D	17	86.5	717.391	718.530	719.351	719.353	0
1	22071805	190	High	1.5	Precise	1	16	18	9	58.9	89.4	15.0	18	9	16	89.4	15.0	58.9	2	0.966	0.000	L	18	89.4	719.856	721.961	722.926	722.929	0
1	22071805	191	High	1.5	Vague	2	12	15	21	38.2	67.6	13.6	15	21	12	67.6	13.6	38.2	2	1.246	0.000	L	15	67.6	723.431	724.608	725.854	725.857	0
1	22071805	192	High	1.5	Vague	2	12	10	21	38.2	65.2	13.6	21	10	12	13.6	65.2	38.2	2	1.322	0.001	D	10	65.2	726.360	728.621	729.943	729.945	0
1	22071805	193	High	1.5	Vague	2	15	18	30	67.6	89.4	11.6	30	18	15	11.6	89.4	67.6	2	0.929	0.000	D	18	89.4	730.447	731.854	732.782	732.785	0
1	22071805	194	High	1.5	Precise	1	12	10	13	38.2	65.2	21.2	12	10	13	38.2	65.2	21.2	2	1.162	0.000	D	10	65.2	733.288	734.108	735.270	735.273	0
1	22071805	195	High	1.5	Vague	2	12	16	19	38.2	58.9	10.2	16	12	19	58.9	38.2	10.2	1	1.231	0.000	D	12	38.2	735.776	737.455	738.686	738.688	0
1	22071805	196	High	1.5	Vague	2	12	18	36	38.2	89.4	29.1	12	36	18	38.2	29.1	89.4	2	1.027	0.000	R	18	89.4	739.191	741.131	742.158	742.161	0
1	22071805	197	High	1.5	Precise	1	12	16	9	38.2	58.9	15.0	9	12	16	15.0	38.2	58.9	2	1.223	0.000	R	16	58.9	742.663	745.311	746.534	746.537	0
1	22071805	198	High	1.5	Precise	1	12	10	2	38.2	65.2	8.6	10	12	2	65.2	38.2	8.6	NaN	NaN	NaN	NaN	NaN	NaN	747.039	749.572	NaN	751.059	1
1	22071805	199	High	1.5	Vague	2	15	18	31	67.6	89.4	16.0	18	15	31	89.4	67.6	16.0	2	0.934	0.000	L	18	89.4	753.061	755.104	756.038	756.041	0
1	22071805	200	High	1.5	Vague	2	12	15	29	38.2	67.6	17.2	15	12	29	67.6	38.2	17.2	3	1.213	0.000	R	29	17.2	756.543	758.929	760.142	760.144	0
1	22071805	201	High	1.5	Vague	2	10	15	30	65.2	67.6	11.6	30	10	15	11.6	65.2	67.6	2	1.028	0.001	R	15	67.6	760.647	762.795	763.822	763.825	0
1	22071805	202	High	1.5	Precise	1	16	17	13	58.9	86.5	21.2	13	16	17	21.2	58.9	86.5	2	0.686	0.000	R	17	86.5	764.328	765.104	765.790	765.793	0
1	22071805	203	High	1.5	Vague	2	10	17	31	65.2	86.5	16.0	10	17	31	65.2	86.5	16.0	2	0.808	0.000	D	17	86.5	766.295	767.503	768.310	768.313	0
1	22071805	204	High	1.5	Vague	2	16	18	21	58.9	89.4	13.6	16	21	18	58.9	13.6	89.4	2	0.867	0.001	R	18	89.4	768.815	769.499	770.366	770.369	0
1	22071805	205	High	1.5	Vague	2	12	17	21	38.2	86.5	13.6	21	12	17	13.6	38.2	86.5	2	0.570	0.000	R	17	86.5	770.871	773.244	773.814	773.817	0
1	22071805	206	High	1.5	Vague	2	16	15	29	58.9	67.6	17.2	29	16	15	17.2	58.9	67.6	3	0.803	0.000	L	29	17.2	774.319	776.100	776.902	776.905	0
1	22071805	207	High	1.5	Vague	2	12	18	29	38.2	89.4	17.2	29	12	18	17.2	38.2	89.4	3	0.891	0.000	L	29	17.2	777.408	779.035	779.926	779.929	0
1	22071805	208	High	1.5	Precise	1	12	17	2	38.2	86.5	8.6	17	12	2	86.5	38.2	8.6	2	0.680	0.001	L	17	86.5	780.431	781.566	782.246	782.249	0
1	22071805	209	High	1.5	Vague	2	10	17	29	65.2	86.5	17.2	10	29	17	65.2	17.2	86.5	2	0.546	0.001	R	17	86.5	782.751	785.420	785.966	785.969	0
1	22071805	210	High	1.5	Vague	2	16	10	19	58.9	65.2	10.2	10	19	16	65.2	10.2	58.9	2	1.317	0.000	L	10	65.2	786.471	789.130	790.446	790.449	0
1	22071805	211	High	1.5	Vague	2	12	18	21	38.2	89.4	13.6	18	21	12	89.4	13.6	38.2	NaN	NaN	NaN	NaN	NaN	NaN	790.952	793.082	NaN	794.569	1
1	22071805	212	High	1.5	Precise	1	16	15	6	58.9	67.6	20.1	16	15	6	58.9	67.6	20.1	NaN	NaN	NaN	NaN	NaN	NaN	796.572	797.657	NaN	799.144	1
1	22071805	213	High	1.5	Vague	2	15	18	19	67.6	89.4	10.2	18	19	15	89.4	10.2	67.6	2	0.888	0.000	L	18	89.4	801.148	802.661	803.550	803.552	0
1	22071805	214	High	1.5	Vague	2	12	16	36	38.2	58.9	29.1	12	36	16	38.2	29.1	58.9	1	1.228	0.001	L	12	38.2	804.055	806.690	807.918	807.921	0
1	22071805	215	High	1.5	Vague	2	10	17	30	65.2	86.5	11.6	17	10	30	86.5	65.2	11.6	2	0.614	0.000	L	17	86.5	808.423	810.008	810.622	810.624	0
1	22071805	216	High	1.5	Precise	1	16	17	9	58.9	86.5	15.0	17	16	9	86.5	58.9	15.0	2	0.483	0.000	L	17	86.5	811.127	812.963	813.446	813.449	0
1	22071805	217	High	1.5	Precise	1	17	18	13	86.5	89.4	21.2	18	17	13	89.4	86.5	21.2	2	0.678	0.001	L	18	89.4	813.951	816.337	817.014	817.017	0
1	22071805	218	High	1.5	Vague	2	16	17	36	58.9	86.5	29.1	17	36	16	86.5	29.1	58.9	2	0.567	0.000	L	17	86.5	817.519	818.415	818.982	818.984	0
1	22071805	219	High	1.5	Vague	2	12	10	19	38.2	65.2	10.2	10	12	19	65.2	38.2	10.2	2	0.842	0.001	L	10	65.2	819.487	821.357	822.198	822.201	0
1	22071805	220	High	1.5	Precise	1	10	18	2	65.2	89.4	8.6	18	2	10	89.4	8.6	65.2	2	0.665	0.000	L	18	89.4	822.703	824.997	825.662	825.664	0
1	22071805	221	High	1.5	Precise	1	17	18	9	86.5	89.4	15.0	17	9	18	86.5	15.0	89.4	1	0.574	0.000	L	17	86.5	826.167	827.768	828.342	828.345	0
1	22071805	222	High	1.5	Precise	1	16	18	2	58.9	89.4	8.6	18	2	16	89.4	8.6	58.9	2	0.605	0.001	L	18	89.4	828.847	830.313	830.918	830.921	0
1	22071805	223	High	1.5	Precise	1	16	17	8	58.9	86.5	29.9	16	17	8	58.9	86.5	29.9	2	1.169	0.000	D	17	86.5	831.423	833.829	834.998	835.001	0
1	22071805	224	High	1.5	Vague	2	10	15	36	65.2	67.6	29.1	36	15	10	29.1	67.6	65.2	1	1.185	0.001	R	10	65.2	835.503	836.982	838.166	838.169	0
1	22071805	225	High	1.5	Vague	2	10	15	29	65.2	67.6	17.2	10	29	15	65.2	17.2	67.6	1	0.636	0.001	L	10	65.2	838.671	840.386	841.022	841.025	0
1	22071805	226	High	1.5	Vague	2	10	18	21	65.2	89.4	13.6	10	21	18	65.2	13.6	89.4	1	0.678	0.001	L	10	65.2	841.528	842.640	843.318	843.321	0
1	22071805	227	High	1.5	Precise	1	16	18	1	58.9	89.4	13.0	1	16	18	13.0	58.9	89.4	3	1.140	0.000	L	1	13.0	843.823	845.834	846.974	846.977	0
1	22071805	228	High	1.5	Precise	1	16	15	8	58.9	67.6	29.9	8	16	15	29.9	58.9	67.6	3	0.875	0.001	L	8	29.9	847.479	849.403	850.278	850.281	0
1	22071805	229	High	1.5	Precise	1	12	15	9	38.2	67.6	15.0	9	15	12	15.0	67.6	38.2	2	1.247	0.000	D	15	67.6	850.783	853.767	855.014	855.016	0
1	22071805	230	High	1.5	Vague	2	12	18	19	38.2	89.4	10.2	19	12	18	10.2	38.2	89.4	2	0.948	0.000	R	18	89.4	855.519	857.675	858.622	858.625	0
1	22071805	231	High	1.5	Precise	1	16	10	8	58.9	65.2	29.9	16	10	8	58.9	65.2	29.9	3	0.690	0.000	R	8	29.9	859.127	861.204	861.894	861.897	0
1	22071805	232	High	1.5	Precise	1	16	15	2	58.9	67.6	8.6	15	2	16	67.6	8.6	58.9	2	1.078	0.001	L	15	67.6	862.399	863.848	864.926	864.929	0
1	22071805	233	High	1.5	Precise	1	10	15	6	65.2	67.6	20.1	10	6	15	65.2	20.1	67.6	1	1.068	0.000	L	10	65.2	865.431	868.130	869.198	869.200	0
1	22071805	234	High	1.5	Vague	2	16	18	31	58.9	89.4	16.0	18	16	31	89.4	58.9	16.0	2	0.824	0.000	L	18	89.4	869.703	872.134	872.958	872.961	0
1	22071805	235	High	1.5	Vague	2	16	18	29	58.9	89.4	17.2	16	29	18	58.9	17.2	89.4	2	0.975	0.000	R	18	89.4	873.463	875.319	876.294	876.297	0
1	22071805	236	High	1.5	Precise	1	15	18	9	67.6	89.4	15.0	18	15	9	89.4	67.6	15.0	2	0.917	0.000	L	18	89.4	876.799	878.801	879.718	879.721	0
1	22071805	237	High	1.5	Vague	2	12	17	36	38.2	86.5	29.1	36	17	12	29.1	86.5	38.2	2	0.747	0.001	D	17	86.5	880.223	882.220	882.966	882.969	0
1	22071805	238	High	1.5	Precise	1	12	15	8	38.2	67.6	29.9	8	12	15	29.9	38.2	67.6	3	0.688	0.001	L	8	29.9	883.471	885.871	886.558	886.561	0
1	22071805	239	High	1.5	Vague	2	17	18	31	86.5	89.4	16.0	18	31	17	89.4	16.0	86.5	1	0.822	0.000	R	17	86.5	887.063	888.696	889.518	889.521	0
1	22071805	240	High	1.5	Vague	2	12	18	30	38.2	89.4	11.6	18	12	30	89.4	38.2	11.6	2	0.895	0.001	L	18	89.4	890.023	892.807	893.702	893.705	0
1	22071805	241	High	1.5	Vague	2	12	17	29	38.2	86.5	17.2	17	29	12	86.5	17.2	38.2	2	0.566	0.000	L	17	86.5	900.762	903.593	904.158	904.161	0
1	22071805	242	High	1.5	Vague	2	12	16	31	38.2	58.9	16.0	12	31	16	38.2	16.0	58.9	NaN	NaN	NaN	NaN	NaN	NaN	904.663	905.932	NaN	907.421	1
1	22071805	243	High	1.5	Precise	1	15	18	8	67.6	89.4	29.9	8	15	18	29.9	67.6	89.4	3	0.597	0.000	L	8	29.9	909.424	911.650	912.246	912.249	0
1	22071805	244	High	1.5	Precise	1	15	17	9	67.6	86.5	15.0	9	17	15	15.0	86.5	67.6	2	0.694	0.000	D	17	86.5	912.751	914.240	914.934	914.937	0
1	22071805	245	High	1.5	Precise	1	10	17	9	65.2	86.5	15.0	9	10	17	15.0	65.2	86.5	1	0.584	0.000	D	10	65.2	915.440	917.750	918.334	918.337	0
1	22071805	246	High	1.5	Precise	1	16	15	13	58.9	67.6	21.2	15	16	13	67.6	58.9	21.2	2	1.375	0.001	L	15	67.6	918.839	919.343	920.718	920.721	0
1	22071805	247	High	1.5	Precise	1	10	18	1	65.2	89.4	13.0	18	10	1	89.4	65.2	13.0	1	1.407	0.001	D	10	65.2	921.224	923.344	924.750	924.753	0
1	22071805	248	High	1.5	Precise	1	10	18	8	65.2	89.4	29.9	10	8	18	65.2	29.9	89.4	3	0.905	0.000	D	8	29.9	925.256	926.437	927.342	927.344	0
1	22071805	249	High	1.5	Precise	1	12	18	1	38.2	89.4	13.0	18	1	12	89.4	13.0	38.2	2	0.807	0.000	L	18	89.4	927.847	929.847	930.654	930.657	0
1	22071805	250	High	1.5	Vague	2	16	17	21	58.9	86.5	13.6	17	16	21	86.5	58.9	13.6	2	0.575	0.000	L	17	86.5	931.159	934.150	934.726	934.729	0
1	22071805	251	High	1.5	Precise	1	15	18	1	67.6	89.4	13.0	1	15	18	13.0	67.6	89.4	2	0.956	0.000	R	18	89.4	935.231	936.986	937.942	937.944	0
1	22071805	252	High	1.5	Precise	1	12	10	9	38.2	65.2	15.0	10	9	12	65.2	15.0	38.2	2	1.079	0.001	L	10	65.2	938.447	939.815	940.894	940.897	0
1	22071805	253	High	1.5	Precise	1	10	17	13	65.2	86.5	21.2	10	17	13	65.2	86.5	21.2	2	0.700	0.000	D	17	86.5	941.399	944.171	944.870	944.873	0
1	22071805	254	High	1.5	Vague	2	16	10	30	58.9	65.2	11.6	30	10	16	11.6	65.2	58.9	2	1.229	0.001	D	10	65.2	945.377	947.649	948.878	948.881	0
1	22071805	255	High	1.5	Precise	1	15	17	8	67.6	86.5	29.9	17	15	8	86.5	67.6	29.9	2	0.569	0.000	L	17	86.5	949.384	949.877	950.446	950.449	0
1	22071805	256	High	1.5	Vague	2	17	18	36	86.5	89.4	29.1	17	18	36	86.5	89.4	29.1	1	0.548	0.000	L	17	86.5	950.951	953.169	953.718	953.720	0
1	22071805	257	High	1.5	Vague	2	10	18	30	65.2	89.4	11.6	10	18	30	65.2	89.4	11.6	2	0.722	0.001	D	18	89.4	954.223	956.268	956.990	956.993	0
1	22071805	258	High	1.5	Precise	1	12	10	6	38.2	65.2	20.1	12	6	10	38.2	20.1	65.2	3	1.242	0.001	D	6	20.1	957.496	958.676	959.918	959.921	0
1	22071805	259	High	1.5	Vague	2	17	18	29	86.5	89.4	17.2	18	29	17	89.4	17.2	86.5	1	0.660	0.000	R	17	86.5	960.423	961.626	962.286	962.288	0
1	22071805	260	High	1.5	Precise	1	10	18	6	65.2	89.4	20.1	6	18	10	20.1	89.4	65.2	2	1.379	0.000	D	18	89.4	962.791	964.779	966.158	966.161	0
1	22071805	261	High	1.5	Vague	2	16	15	36	58.9	67.6	29.1	36	15	16	29.1	67.6	58.9	2	1.472	0.000	D	15	67.6	966.663	968.663	970.134	970.137	0
1	22071805	262	High	1.5	Precise	1	16	10	9	58.9	65.2	15.0	16	10	9	58.9	65.2	15.0	2	1.290	0.001	D	10	65.2	970.639	971.588	972.878	972.881	0
1	22071805	263	High	1.5	Precise	1	17	18	6	86.5	89.4	20.1	6	18	17	20.1	89.4	86.5	1	0.614	0.000	R	17	86.5	973.383	974.472	975.086	975.088	0
1	22071805	264	High	1.5	Precise	1	16	17	6	58.9	86.5	20.1	6	17	16	20.1	86.5	58.9	2	0.613	0.001	D	17	86.5	975.591	978.153	978.766	978.768	0
1	22071805	265	High	1.5	Vague	2	16	17	19	58.9	86.5	10.2	19	16	17	10.2	58.9	86.5	2	0.611	0.000	R	17	86.5	979.271	981.411	982.022	982.024	0
1	22071805	266	High	1.5	Vague	2	10	17	36	65.2	86.5	29.1	17	10	36	86.5	65.2	29.1	2	0.555	0.000	L	17	86.5	982.527	984.059	984.614	984.617	0
1	22071805	267	High	1.5	Precise	1	12	10	1	38.2	65.2	13.0	10	12	1	65.2	38.2	13.0	3	0.796	0.000	R	1	13.0	985.119	986.330	987.126	987.128	0
1	22071805	268	High	1.5	Vague	2	16	10	36	58.9	65.2	29.1	16	36	10	58.9	29.1	65.2	2	1.481	0.001	R	10	65.2	987.631	990.141	991.622	991.625	0
1	22071805	269	High	1.5	Precise	1	16	17	2	58.9	86.5	8.6	17	2	16	86.5	8.6	58.9	2	0.540	0.001	L	17	86.5	992.127	993.978	994.518	994.521	0
1	22071805	270	High	1.5	Vague	2	17	18	21	86.5	89.4	13.6	18	17	21	89.4	86.5	13.6	1	0.854	0.000	D	17	86.5	995.023	996.584	997.438	997.440	0
1	22071805	271	High	1.5	Vague	2	10	15	19	65.2	67.6	10.2	15	19	10	67.6	10.2	65.2	2	1.167	0.000	L	15	67.6	997.944	1000.727	1001.894	1001.897	0
1	22071805	272	High	1.5	Precise	1	17	18	1	86.5	89.4	13.0	1	17	18	13.0	86.5	89.4	1	0.713	0.001	D	17	86.5	1002.399	1004.950	1005.662	1005.665	0
1	22071805	273	High	1.5	Precise	1	15	17	2	67.6	86.5	8.6	2	15	17	8.6	67.6	86.5	2	0.596	0.001	R	17	86.5	1006.167	1008.467	1009.062	1009.065	0
1	22071805	274	High	1.5	Precise	1	10	15	9	65.2	67.6	15.0	9	15	10	15.0	67.6	65.2	1	1.322	0.000	R	10	65.2	1009.568	1010.692	1012.014	1012.016	0
1	22071805	275	High	1.5	Precise	1	16	18	6	58.9	89.4	20.1	6	16	18	20.1	58.9	89.4	2	1.206	0.000	R	18	89.4	1012.519	1014.576	1015.782	1015.785	0
1	22071805	276	High	1.5	Vague	2	10	17	19	65.2	86.5	10.2	19	10	17	10.2	65.2	86.5	2	0.556	0.000	R	17	86.5	1016.287	1018.866	1019.422	1019.425	0
1	22071805	277	High	1.5	Precise	1	17	18	2	86.5	89.4	8.6	17	2	18	86.5	8.6	89.4	1	0.530	0.001	L	17	86.5	1019.927	1020.869	1021.398	1021.401	0
1	22071805	278	High	1.5	Vague	2	12	10	31	38.2	65.2	16.0	10	12	31	65.2	38.2	16.0	NaN	NaN	NaN	NaN	NaN	NaN	1021.903	1023.581	NaN	1025.067	1
1	22071805	279	High	1.5	Vague	2	16	17	31	58.9	86.5	16.0	17	16	31	86.5	58.9	16.0	2	0.529	0.000	L	17	86.5	1027.070	1029.317	1029.846	1029.849	0
1	22071805	280	High	1.5	Vague	2	16	15	19	58.9	67.6	10.2	19	15	16	10.2	67.6	58.9	2	1.349	0.001	D	15	67.6	1030.351	1031.426	1032.774	1032.777	0
1	22071805	281	High	1.5	Vague	2	10	15	31	65.2	67.6	16.0	31	10	15	16.0	65.2	67.6	1	0.996	0.000	D	10	65.2	1033.280	1036.219	1037.214	1037.217	0
1	22071805	282	High	1.5	Precise	1	15	17	13	67.6	86.5	21.2	17	13	15	86.5	21.2	67.6	2	0.834	0.000	L	17	86.5	1037.719	1039.228	1040.062	1040.064	0
1	22071805	283	High	1.5	Vague	2	10	18	36	65.2	89.4	29.1	18	36	10	89.4	29.1	65.2	2	1.076	0.000	L	18	89.4	1040.567	1041.370	1042.446	1042.448	0
1	22071805	284	High	1.5	Precise	1	12	17	9	38.2	86.5	15.0	9	12	17	15.0	38.2	86.5	2	0.731	0.000	R	17	86.5	1042.951	1044.963	1045.694	1045.696	0
1	22071805	285	High	1.5	Vague	2	12	15	31	38.2	67.6	16.0	12	31	15	38.2	16.0	67.6	2	1.480	0.000	R	15	67.6	1046.199	1047.334	1048.814	1048.816	0
1	22071805	286	High	1.5	Vague	2	10	17	21	65.2	86.5	13.6	21	17	10	13.6	86.5	65.2	2	0.716	0.000	D	17	86.5	1049.319	1050.139	1050.854	1050.857	0
1	22071805	287	High	1.5	Precise	1	12	15	2	38.2	67.6	8.6	15	12	2	67.6	38.2	8.6	2	1.112	0.000	L	15	67.6	1051.359	1052.190	1053.302	1053.305	0
1	22071805	288	High	1.5	Precise	1	15	18	2	67.6	89.4	8.6	2	18	15	8.6	89.4	67.6	1	0.805	0.000	R	15	67.6	1053.808	1055.233	1056.038	1056.040	0
1	22071805	289	High	1.5	Precise	1	10	15	8	65.2	67.6	29.9	15	10	8	67.6	65.2	29.9	3	0.985	0.000	R	8	29.9	1056.543	1057.246	1058.230	1058.232	0
1	22071805	290	High	1.5	Precise	1	12	17	13	38.2	86.5	21.2	13	17	12	21.2	86.5	38.2	2	0.861	0.000	D	17	86.5	1058.735	1060.274	1061.134	1061.136	0
1	22071805	291	High	1.5	Vague	2	10	15	21	65.2	67.6	13.6	10	15	21	65.2	67.6	13.6	1	1.206	0.000	L	10	65.2	1061.639	1062.776	1063.982	1063.985	0
1	22071805	292	High	1.5	Precise	1	16	15	9	58.9	67.6	15.0	9	15	16	15.0	67.6	58.9	2	1.245	0.001	D	15	67.6	1064.487	1065.338	1066.582	1066.585	0
1	22071805	293	High	1.5	Precise	1	15	18	6	67.6	89.4	20.1	6	15	18	20.1	67.6	89.4	NaN	NaN	NaN	NaN	NaN	NaN	1067.088	1068.551	NaN	1070.037	1
1	22071805	294	High	1.5	Vague	2	10	18	29	65.2	89.4	17.2	18	10	29	89.4	65.2	17.2	1	1.173	0.000	D	10	65.2	1072.040	1072.665	1073.838	1073.840	0
1	22071805	295	High	1.5	Vague	2	12	10	36	38.2	65.2	29.1	10	36	12	65.2	29.1	38.2	2	0.905	0.000	L	10	65.2	1074.343	1075.493	1076.398	1076.400	0
1	22071805	296	High	1.5	Precise	1	12	16	13	38.2	58.9	21.2	13	12	16	21.2	38.2	58.9	NaN	NaN	NaN	NaN	NaN	NaN	1076.903	1078.099	NaN	1079.586	1
1	22071805	297	High	1.5	Precise	1	12	17	6	38.2	86.5	20.1	6	12	17	20.1	38.2	86.5	2	0.576	0.000	R	17	86.5	1081.588	1082.302	1082.878	1082.880	0
1	22071805	298	High	1.5	Precise	1	12	17	8	38.2	86.5	29.9	17	12	8	86.5	38.2	29.9	2	0.508	0.000	L	17	86.5	1083.383	1084.993	1085.502	1085.504	0
1	22071805	299	High	1.5	Vague	2	16	10	21	58.9	65.2	13.6	10	16	21	65.2	58.9	13.6	2	0.753	0.001	L	10	65.2	1086.007	1087.469	1088.222	1088.225	0
1	22071805	300	High	1.5	Vague	2	17	18	30	86.5	89.4	11.6	30	17	18	11.6	86.5	89.4	1	0.771	0.001	D	17	86.5	1088.727	1090.915	1091.686	1091.688	0
1	22071805	301	High	1.5	Vague	2	16	18	36	58.9	89.4	29.1	16	36	18	58.9	29.1	89.4	2	0.915	0.000	R	18	89.4	1098.203	1100.379	1101.294	1101.297	0
1	22071805	302	High	1.5	Vague	2	12	18	31	38.2	89.4	16.0	31	18	12	16.0	89.4	38.2	2	0.921	0.000	D	18	89.4	1101.799	1104.485	1105.406	1105.409	0
1	22071805	303	High	1.5	Precise	1	12	15	1	38.2	67.6	13.0	15	1	12	67.6	13.0	38.2	3	0.959	0.001	D	1	13.0	1105.912	1107.119	1108.078	1108.081	0
1	22071805	304	High	1.5	Vague	2	10	18	19	65.2	89.4	10.2	10	19	18	65.2	10.2	89.4	2	0.917	0.001	R	18	89.4	1108.584	1110.625	1111.542	1111.545	0
1	22071805	305	High	1.5	Vague	2	12	10	29	38.2	65.2	17.2	12	10	29	38.2	65.2	17.2	2	0.698	0.001	D	10	65.2	1112.047	1114.980	1115.678	1115.680	0
1	22071805	306	High	1.5	Vague	2	15	17	19	67.6	86.5	10.2	19	15	17	10.2	67.6	86.5	2	0.630	0.001	R	17	86.5	1116.183	1116.832	1117.462	1117.465	0
1	22071805	307	High	1.5	Precise	1	12	16	1	38.2	58.9	13.0	12	1	16	38.2	13.0	58.9	3	0.676	0.001	D	1	13.0	1117.967	1118.954	1119.630	1119.633	0
1	22071805	308	High	1.5	Precise	1	16	10	1	58.9	65.2	13.0	16	10	1	58.9	65.2	13.0	2	1.376	0.001	D	10	65.2	1120.135	1122.910	1124.286	1124.289	0
1	22071805	309	High	1.5	Precise	1	12	18	6	38.2	89.4	20.1	18	12	6	89.4	38.2	20.1	NaN	NaN	NaN	NaN	NaN	NaN	1124.791	1127.227	NaN	1128.716	1
1	22071805	310	High	1.5	Precise	1	12	16	8	38.2	58.9	29.9	12	16	8	38.2	58.9	29.9	3	0.747	0.000	R	8	29.9	1130.718	1132.154	1132.902	1132.905	0
1	22071805	311	High	1.5	Precise	1	10	15	13	65.2	67.6	21.2	15	10	13	67.6	65.2	21.2	1	1.077	0.001	D	10	65.2	1133.407	1135.954	1137.030	1137.033	0
1	22071805	312	High	1.5	Precise	1	12	17	1	38.2	86.5	13.0	17	12	1	86.5	38.2	13.0	2	0.779	0.000	L	17	86.5	1137.535	1138.187	1138.966	1138.968	0
1	22071805	313	High	1.5	Vague	2	15	18	21	67.6	89.4	13.6	21	18	15	13.6	89.4	67.6	2	1.147	0.001	D	18	89.4	1139.471	1140.667	1141.814	1141.817	0
1	22071805	314	High	1.5	Precise	1	17	18	8	86.5	89.4	29.9	17	8	18	86.5	29.9	89.4	1	0.575	0.001	L	17	86.5	1142.320	1143.831	1144.406	1144.409	0
1	22071805	315	High	1.5	Precise	1	10	15	2	65.2	67.6	8.6	10	2	15	65.2	8.6	67.6	1	1.002	0.000	L	10	65.2	1144.911	1145.796	1146.798	1146.800	0
1	22071805	316	High	1.5	Precise	1	12	18	13	38.2	89.4	21.2	12	13	18	38.2	21.2	89.4	2	0.921	0.000	R	18	89.4	1147.303	1149.957	1150.878	1150.881	0
1	22071805	317	High	1.5	Precise	1	12	10	8	38.2	65.2	29.9	12	10	8	38.2	65.2	29.9	3	0.708	0.001	R	8	29.9	1151.383	1153.507	1154.214	1154.217	0
1	22071805	318	High	1.5	Precise	1	16	10	13	58.9	65.2	21.2	16	13	10	58.9	21.2	65.2	2	1.065	0.000	R	10	65.2	1154.719	1157.341	1158.406	1158.408	0
1	22071805	319	High	1.5	Vague	2	12	10	30	38.2	65.2	11.6	10	30	12	65.2	11.6	38.2	2	1.041	0.000	L	10	65.2	1158.911	1161.237	1162.278	1162.281	0
1	22071805	320	High	1.5	Vague	2	12	15	36	38.2	67.6	29.1	12	15	36	38.2	67.6	29.1	2	1.317	0.000	D	15	67.6	1162.783	1164.265	1165.582	1165.584	0
1	22071805	321	High	1.5	Precise	1	10	15	1	65.2	67.6	13.0	1	10	15	13.0	65.2	67.6	1	1.341	0.000	D	10	65.2	1166.087	1168.609	1169.950	1169.953	0
1	22071805	322	High	1.5	Vague	2	15	18	29	67.6	89.4	17.2	29	15	18	17.2	67.6	89.4	NaN	NaN	NaN	NaN	NaN	NaN	1170.455	1172.338	NaN	1173.824	1
1	22071805	323	High	1.5	Vague	2	16	17	30	58.9	86.5	11.6	17	16	30	86.5	58.9	11.6	2	0.653	0.000	L	17	86.5	1175.827	1176.889	1177.542	1177.545	0
1	22071805	324	High	1.5	Vague	2	12	16	29	38.2	58.9	17.2	29	16	12	17.2	58.9	38.2	NaN	NaN	NaN	NaN	NaN	NaN	1178.047	1178.601	NaN	1180.088	1
1	22071805	325	High	1.5	Vague	2	15	17	36	67.6	86.5	29.1	17	15	36	86.5	67.6	29.1	2	0.549	0.000	L	17	86.5	1182.090	1182.609	1183.158	1183.161	0
1	22071805	326	High	1.5	Precise	1	10	17	2	65.2	86.5	8.6	17	10	2	86.5	65.2	8.6	2	0.549	0.001	L	17	86.5	1183.663	1185.770	1186.318	1186.321	0
1	22071805	327	High	1.5	Precise	1	15	18	13	67.6	89.4	21.2	15	18	13	67.6	89.4	21.2	2	1.080	0.000	D	18	89.4	1186.823	1189.198	1190.278	1190.280	0
1	22071805	328	High	1.5	Precise	1	10	17	6	65.2	86.5	20.1	10	6	17	65.2	20.1	86.5	2	0.596	0.000	R	17	86.5	1190.783	1192.042	1192.638	1192.640	0
1	22071805	329	High	1.5	Precise	1	10	18	13	65.2	89.4	21.2	18	13	10	89.4	21.2	65.2	1	0.816	0.000	R	10	65.2	1193.143	1193.902	1194.718	1194.721	0
1	22071805	330	High	1.5	Precise	1	12	18	9	38.2	89.4	15.0	12	9	18	38.2	15.0	89.4	2	0.980	0.000	R	18	89.4	1195.223	1196.058	1197.038	1197.040	0
1	22071805	331	High	1.5	Vague	2	12	17	19	38.2	86.5	10.2	17	12	19	86.5	38.2	10.2	2	0.593	0.001	L	17	86.5	1197.543	1200.285	1200.878	1200.881	0
1	22071805	332	High	1.5	Vague	2	16	15	31	58.9	67.6	16.0	31	16	15	16.0	58.9	67.6	2	1.314	0.000	R	15	67.6	1201.384	1202.548	1203.862	1203.864	0
1	22071805	333	High	1.5	Vague	2	12	17	30	38.2	86.5	11.6	30	12	17	11.6	38.2	86.5	2	0.611	0.001	R	17	86.5	1204.367	1206.891	1207.502	1207.505	0
1	22071805	334	High	1.5	Vague	2	12	16	21	38.2	58.9	13.6	12	21	16	38.2	13.6	58.9	NaN	NaN	NaN	NaN	NaN	NaN	1208.008	1210.887	NaN	1212.374	1
1	22071805	335	High	1.5	Precise	1	10	17	1	65.2	86.5	13.0	17	1	10	86.5	13.0	65.2	2	0.560	0.001	L	17	86.5	1214.376	1215.782	1216.342	1216.344	0
1	22071805	336	High	1.5	Vague	2	17	18	19	86.5	89.4	10.2	17	19	18	86.5	10.2	89.4	1	0.447	0.001	L	17	86.5	1216.847	1218.463	1218.910	1218.913	0
1	22071805	337	High	1.5	Precise	1	16	17	1	58.9	86.5	13.0	1	17	16	13.0	86.5	58.9	2	0.811	0.000	D	17	86.5	1219.415	1221.179	1221.990	1221.992	0
1	22071805	338	High	1.5	Precise	1	12	18	2	38.2	89.4	8.6	18	2	12	89.4	8.6	38.2	2	0.953	0.000	L	18	89.4	1222.495	1223.693	1224.646	1224.648	0
1	22071805	339	High	1.5	Precise	1	16	10	2	58.9	65.2	8.6	2	10	16	8.6	65.2	58.9	2	1.050	0.000	D	10	65.2	1225.151	1228.060	1229.110	1229.112	0
1	22071805	340	High	1.5	Precise	1	15	17	1	67.6	86.5	13.0	15	17	1	67.6	86.5	13.0	2	0.896	0.001	D	17	86.5	1229.615	1232.302	1233.198	1233.202	0
1	22071805	341	High	1.5	Vague	2	12	16	30	38.2	58.9	11.6	12	16	30	38.2	58.9	11.6	NaN	NaN	NaN	NaN	NaN	NaN	1233.704	1235.903	NaN	1237.389	1
1	22071805	342	High	1.5	Precise	1	10	18	9	65.2	89.4	15.0	18	10	9	89.4	65.2	15.0	1	0.965	0.001	D	10	65.2	1239.392	1241.353	1242.318	1242.320	0
1	22071805	343	High	1.5	Precise	1	12	15	13	38.2	67.6	21.2	15	13	12	67.6	21.2	38.2	2	1.088	0.001	L	15	67.6	1242.823	1243.527	1244.614	1244.616	0
1	22071805	344	High	1.5	Precise	1	15	17	6	67.6	86.5	20.1	15	6	17	67.6	20.1	86.5	2	0.822	0.000	R	17	86.5	1245.119	1247.864	1248.686	1248.688	0
1	22071805	345	High	1.5	Vague	2	12	15	19	38.2	67.6	10.2	19	15	12	10.2	67.6	38.2	2	1.119	0.001	D	15	67.6	1249.192	1249.807	1250.926	1250.929	0
1	22071805	346	High	1.5	Vague	2	10	18	31	65.2	89.4	16.0	31	10	18	16.0	65.2	89.4	1	0.895	0.000	D	10	65.2	1251.431	1253.303	1254.198	1254.200	0
1	22071805	347	High	1.5	Vague	2	16	15	21	58.9	67.6	13.6	15	21	16	67.6	13.6	58.9	2	0.937	0.000	L	15	67.6	1254.703	1255.453	1256.390	1256.392	0
1	22071805	348	High	1.5	Vague	2	12	17	31	38.2	86.5	16.0	12	31	17	38.2	16.0	86.5	2	0.856	0.000	R	17	86.5	1256.895	1259.590	1260.446	1260.448	0
1	22071805	349	High	1.5	Vague	2	16	10	31	58.9	65.2	16.0	10	16	31	65.2	58.9	16.0	2	0.925	0.000	L	10	65.2	1260.951	1263.537	1264.462	1264.464	0
1	22071805	350	High	1.5	Vague	2	15	17	21	67.6	86.5	13.6	17	21	15	86.5	13.6	67.6	2	0.592	0.000	L	17	86.5	1264.967	1266.358	1266.950	1266.952	0
1	22071805	351	High	1.5	Precise	1	12	18	8	38.2	89.4	29.9	18	12	8	89.4	38.2	29.9	3	1.008	0.000	R	8	29.9	1267.455	1269.030	1270.038	1270.040	0
1	22071805	352	High	1.5	Vague	2	16	18	30	58.9	89.4	11.6	30	18	16	11.6	89.4	58.9	2	1.096	0.001	D	18	89.4	1270.543	1272.390	1273.486	1273.489	0
1	22071805	353	High	1.5	Precise	1	10	17	8	65.2	86.5	29.9	8	17	10	29.9	86.5	65.2	2	0.793	0.000	D	17	86.5	1273.991	1276.909	1277.702	1277.704	0
1	22071805	354	High	1.5	Precise	1	12	16	6	38.2	58.9	20.1	6	16	12	20.1	58.9	38.2	NaN	NaN	NaN	NaN	NaN	NaN	1278.207	1279.673	NaN	1281.159	1
1	22071805	355	High	1.5	Vague	2	16	18	19	58.9	89.4	10.2	16	19	18	58.9	10.2	89.4	2	0.836	0.001	R	18	89.4	1283.162	1285.674	1286.510	1286.513	0
1	22071805	356	High	1.5	Precise	1	12	15	6	38.2	67.6	20.1	6	15	12	20.1	67.6	38.2	2	0.941	0.000	D	15	67.6	1287.015	1289.017	1289.958	1289.960	0
1	22071805	357	High	1.5	Vague	2	12	15	30	38.2	67.6	11.6	15	30	12	67.6	11.6	38.2	2	1.225	0.000	L	15	67.6	1290.463	1293.318	1294.542	1294.544	0
1	22071805	358	High	1.5	Vague	2	16	15	30	58.9	67.6	11.6	16	30	15	58.9	11.6	67.6	NaN	NaN	NaN	NaN	NaN	NaN	1295.047	1297.053	NaN	1298.539	1
1	22071805	359	High	1.5	Vague	2	15	18	36	67.6	89.4	29.1	36	15	18	29.1	67.6	89.4	1	0.788	0.000	D	15	67.6	1300.542	1303.410	1304.198	1304.200	0
1	22071805	360	High	1.5	Precise	1	16	18	13	58.9	89.4	21.2	18	13	16	89.4	21.2	58.9	2	0.810	0.000	L	18	89.4	1304.703	1307.036	1307.846	1307.848	0
