Group	subID	trial	TimePressure	TimeConstraint	Vagueness	Vaguenesscode	ID1	ID2	ID3	V1	V2	V3	ID_left	ID_middle	ID_right	Bid_left	Bid_middle	Bid_right	chosenItem	RT	RTvariance	chosenPosition	chosenID	chosenValue	fixation_time	option_time	choice_time	feedback_time	timeout
2	22102701	1	Low	10.0	Vague	2	36	26	9	44.4	88.2	11.5	26	36	9	88.2	44.4	11.5	2	1.072	0.000	L	26	88.2	17.005	18.308	19.380	19.384	0
2	22102701	2	Low	10.0	Vague	2	30	34	1	46.4	61.3	4.4	34	1	30	61.3	4.4	46.4	2	1.596	0.000	L	34	61.3	19.888	21.064	22.660	22.663	0
2	22102701	3	Low	10.0	Vague	2	30	34	2	46.4	61.3	6.7	34	30	2	61.3	46.4	6.7	2	1.110	0.000	L	34	61.3	23.166	25.247	26.356	26.359	0
2	22102701	4	Low	10.0	Precise	1	34	33	35	61.3	90.0	40.2	34	33	35	61.3	90.0	40.2	2	1.859	0.000	D	33	90.0	26.862	29.681	31.540	31.543	0
2	22102701	5	Low	10.0	Precise	1	26	33	31	88.2	90.0	20.9	26	31	33	88.2	20.9	90.0	2	1.164	0.000	R	33	90.0	32.046	34.992	36.156	36.160	0
2	22102701	6	Low	10.0	Precise	1	26	33	22	88.2	90.0	7.5	22	33	26	7.5	90.0	88.2	2	1.295	0.001	D	33	90.0	36.665	39.069	40.364	40.367	0
2	22102701	7	Low	10.0	Precise	1	30	34	35	46.4	61.3	40.2	35	34	30	40.2	61.3	46.4	2	1.540	0.001	D	34	61.3	40.869	42.056	43.596	43.599	0
2	22102701	8	Low	10.0	Precise	1	30	32	22	46.4	54.6	7.5	30	22	32	46.4	7.5	54.6	2	1.462	0.000	R	32	54.6	44.101	46.566	48.028	48.030	0
2	22102701	9	Low	10.0	Vague	2	36	34	5	44.4	61.3	6.3	5	36	34	6.3	44.4	61.3	2	1.121	0.000	R	34	61.3	48.534	51.163	52.284	52.287	0
2	22102701	10	Low	10.0	Vague	2	34	33	14	61.3	90.0	20.5	34	33	14	61.3	90.0	20.5	2	1.327	0.000	D	33	90.0	52.790	54.934	56.260	56.263	0
2	22102701	11	Low	10.0	Vague	2	26	33	2	88.2	90.0	6.7	26	2	33	88.2	6.7	90.0	1	0.765	0.000	L	26	88.2	56.765	59.726	60.492	60.494	0
2	22102701	12	Low	10.0	Precise	1	36	34	27	44.4	61.3	9.2	34	27	36	61.3	9.2	44.4	2	0.973	0.000	L	34	61.3	60.997	62.534	63.508	63.511	0
2	22102701	13	Low	10.0	Precise	1	36	30	29	44.4	46.4	8.6	36	29	30	44.4	8.6	46.4	3	1.189	0.000	D	29	8.6	64.014	66.703	67.892	67.894	0
2	22102701	14	Low	10.0	Vague	2	32	33	1	54.6	90.0	4.4	32	1	33	54.6	4.4	90.0	2	1.061	0.001	R	33	90.0	68.397	71.143	72.204	72.207	0
2	22102701	15	Low	10.0	Precise	1	36	26	29	44.4	88.2	8.6	36	26	29	44.4	88.2	8.6	3	0.895	0.000	R	29	8.6	72.710	73.477	74.372	74.375	0
2	22102701	16	Low	10.0	Vague	2	34	26	1	61.3	88.2	4.4	26	1	34	88.2	4.4	61.3	2	1.545	0.001	L	26	88.2	74.878	76.100	77.644	77.647	0
2	22102701	17	Low	10.0	Vague	2	26	33	1	88.2	90.0	4.4	26	33	1	88.2	90.0	4.4	2	0.953	0.000	D	33	90.0	78.150	80.043	80.996	80.999	0
2	22102701	18	Low	10.0	Vague	2	30	33	6	46.4	90.0	5.5	33	6	30	90.0	5.5	46.4	2	1.143	0.000	L	33	90.0	81.501	83.301	84.444	84.446	0
2	22102701	19	Low	10.0	Vague	2	30	32	2	46.4	54.6	6.7	2	32	30	6.7	54.6	46.4	2	1.371	0.001	D	32	54.6	84.949	86.817	88.188	88.190	0
2	22102701	20	Low	10.0	Vague	2	30	34	6	46.4	61.3	5.5	30	34	6	46.4	61.3	5.5	2	1.186	0.000	D	34	61.3	88.694	90.138	91.324	91.326	0
2	22102701	21	Low	10.0	Precise	1	32	26	27	54.6	88.2	9.2	32	27	26	54.6	9.2	88.2	1	1.153	0.000	L	32	54.6	91.829	92.875	94.028	94.030	0
2	22102701	22	Low	10.0	Vague	2	36	34	9	44.4	61.3	11.5	34	36	9	61.3	44.4	11.5	2	1.084	0.000	L	34	61.3	94.533	95.071	96.156	96.158	0
2	22102701	23	Low	10.0	Vague	2	36	32	6	44.4	54.6	5.5	6	36	32	5.5	44.4	54.6	2	0.849	0.000	R	32	54.6	96.661	98.939	99.788	99.790	0
2	22102701	24	Low	10.0	Vague	2	36	30	5	44.4	46.4	6.3	30	5	36	46.4	6.3	44.4	1	1.236	0.001	R	36	44.4	100.293	103.072	104.308	104.311	0
2	22102701	25	Low	10.0	Precise	1	36	32	27	44.4	54.6	9.2	32	36	27	54.6	44.4	9.2	2	1.264	0.000	L	32	54.6	104.814	105.564	106.828	106.830	0
2	22102701	26	Low	10.0	Precise	1	36	30	19	44.4	46.4	4.3	19	30	36	4.3	46.4	44.4	1	1.493	0.000	R	36	44.4	107.333	107.887	109.380	109.382	0
2	22102701	27	Low	10.0	Vague	2	36	33	5	44.4	90.0	6.3	36	33	5	44.4	90.0	6.3	2	0.906	0.000	D	33	90.0	109.885	112.842	113.748	113.750	0
2	22102701	28	Low	10.0	Precise	1	30	26	31	46.4	88.2	20.9	31	26	30	20.9	88.2	46.4	2	1.444	0.000	D	26	88.2	114.253	116.680	118.124	118.126	0
2	22102701	29	Low	10.0	Precise	1	30	32	35	46.4	54.6	40.2	30	32	35	46.4	54.6	40.2	2	1.256	0.000	D	32	54.6	118.629	119.668	120.924	120.926	0
2	22102701	30	Low	10.0	Precise	1	30	26	19	46.4	88.2	4.3	30	26	19	46.4	88.2	4.3	2	0.760	0.001	D	26	88.2	121.430	123.524	124.284	124.287	0
2	22102701	31	Low	10.0	Vague	2	36	33	9	44.4	90.0	11.5	36	9	33	44.4	11.5	90.0	2	1.110	0.001	R	33	90.0	124.789	126.878	127.988	127.990	0
2	22102701	32	Low	10.0	Vague	2	36	32	14	44.4	54.6	20.5	32	36	14	54.6	44.4	20.5	2	1.345	0.000	L	32	54.6	128.493	130.547	131.892	131.894	0
2	22102701	33	Low	10.0	Vague	2	34	33	9	61.3	90.0	11.5	9	34	33	11.5	61.3	90.0	2	0.759	0.000	R	33	90.0	132.397	133.821	134.580	134.582	0
2	22102701	34	Low	10.0	Precise	1	36	34	19	44.4	61.3	4.3	34	36	19	61.3	44.4	4.3	2	0.850	0.000	L	34	61.3	135.085	137.010	137.860	137.862	0
2	22102701	35	Low	10.0	Precise	1	30	26	27	46.4	88.2	9.2	26	30	27	88.2	46.4	9.2	2	0.870	0.000	L	26	88.2	138.365	139.678	140.548	140.551	0
2	22102701	36	Low	10.0	Vague	2	36	33	14	44.4	90.0	20.5	33	14	36	90.0	20.5	44.4	2	0.797	0.001	L	33	90.0	141.053	143.759	144.556	144.558	0
2	22102701	37	Low	10.0	Vague	2	30	33	1	46.4	90.0	4.4	33	30	1	90.0	46.4	4.4	2	0.640	0.001	L	33	90.0	145.061	147.788	148.428	148.431	0
2	22102701	38	Low	10.0	Vague	2	26	33	14	88.2	90.0	20.5	26	33	14	88.2	90.0	20.5	2	1.146	0.000	D	33	90.0	148.934	150.250	151.396	151.398	0
2	22102701	39	Low	10.0	Precise	1	34	26	22	61.3	88.2	7.5	34	22	26	61.3	7.5	88.2	2	1.051	0.000	R	26	88.2	151.901	153.449	154.500	154.502	0
2	22102701	40	Low	10.0	Vague	2	32	34	14	54.6	61.3	20.5	14	34	32	20.5	61.3	54.6	1	1.386	0.000	R	32	54.6	155.005	156.306	157.692	157.694	0
2	22102701	41	Low	10.0	Precise	1	34	26	19	61.3	88.2	4.3	19	34	26	4.3	61.3	88.2	2	1.277	0.001	R	26	88.2	158.197	160.959	162.236	162.239	0
2	22102701	42	Low	10.0	Vague	2	34	26	5	61.3	88.2	6.3	26	5	34	88.2	6.3	61.3	2	1.321	0.000	L	26	88.2	162.742	164.755	166.076	166.078	0
2	22102701	43	Low	10.0	Precise	1	32	26	29	54.6	88.2	8.6	29	32	26	8.6	54.6	88.2	3	0.870	0.000	L	29	8.6	166.581	169.566	170.436	170.438	0
2	22102701	44	Low	10.0	Precise	1	36	33	31	44.4	90.0	20.9	36	33	31	44.4	90.0	20.9	2	1.288	0.001	D	33	90.0	170.941	171.732	173.020	173.023	0
2	22102701	45	Low	10.0	Vague	2	32	26	1	54.6	88.2	4.4	1	32	26	4.4	54.6	88.2	2	1.079	0.000	R	26	88.2	173.525	176.093	177.172	177.174	0
2	22102701	46	Low	10.0	Precise	1	36	33	19	44.4	90.0	4.3	36	33	19	44.4	90.0	4.3	2	1.155	0.000	D	33	90.0	177.678	178.497	179.652	179.654	0
2	22102701	47	Low	10.0	Precise	1	30	32	19	46.4	54.6	4.3	19	32	30	4.3	54.6	46.4	2	1.455	0.001	D	32	54.6	180.157	182.702	184.156	184.159	0
2	22102701	48	Low	10.0	Vague	2	30	26	14	46.4	88.2	20.5	30	14	26	46.4	20.5	88.2	2	0.947	0.001	R	26	88.2	184.661	186.801	187.748	187.751	0
2	22102701	49	Low	10.0	Precise	1	34	26	35	61.3	88.2	40.2	26	34	35	88.2	61.3	40.2	2	0.742	0.000	L	26	88.2	188.253	190.813	191.556	191.558	0
2	22102701	50	Low	10.0	Precise	1	30	26	22	46.4	88.2	7.5	26	30	22	88.2	46.4	7.5	2	0.951	0.000	L	26	88.2	192.062	194.461	195.412	195.414	0
2	22102701	51	Low	10.0	Vague	2	34	33	2	61.3	90.0	6.7	2	33	34	6.7	90.0	61.3	2	0.943	0.000	D	33	90.0	195.918	198.013	198.956	198.959	0
2	22102701	52	Low	10.0	Precise	1	30	33	35	46.4	90.0	40.2	35	30	33	40.2	46.4	90.0	2	0.969	0.001	R	33	90.0	199.462	201.131	202.100	202.103	0
2	22102701	53	Low	10.0	Vague	2	30	33	9	46.4	90.0	11.5	33	9	30	90.0	11.5	46.4	2	0.790	0.000	L	33	90.0	202.606	205.030	205.820	205.822	0
2	22102701	54	Low	10.0	Vague	2	30	26	1	46.4	88.2	4.4	1	26	30	4.4	88.2	46.4	2	1.212	0.000	D	26	88.2	206.325	206.992	208.204	208.207	0
2	22102701	55	Low	10.0	Precise	1	36	34	35	44.4	61.3	40.2	34	35	36	61.3	40.2	44.4	2	0.926	0.001	L	34	61.3	208.710	211.070	211.996	211.999	0
2	22102701	56	Low	10.0	Precise	1	30	34	19	46.4	61.3	4.3	30	34	19	46.4	61.3	4.3	2	1.054	0.000	D	34	61.3	212.502	214.278	215.332	215.334	0
2	22102701	57	Low	10.0	Vague	2	32	33	5	54.6	90.0	6.3	5	33	32	6.3	90.0	54.6	2	0.954	0.000	D	33	90.0	215.837	217.698	218.652	218.654	0
2	22102701	58	Low	10.0	Vague	2	36	30	2	44.4	46.4	6.7	36	30	2	44.4	46.4	6.7	1	0.902	0.000	L	36	44.4	219.157	220.254	221.156	221.158	0
2	22102701	59	Low	10.0	Precise	1	32	34	29	54.6	61.3	8.6	29	34	32	8.6	61.3	54.6	3	0.870	0.000	L	29	8.6	221.661	222.654	223.524	223.526	0
2	22102701	60	Low	10.0	Precise	1	32	33	22	54.6	90.0	7.5	32	33	22	54.6	90.0	7.5	2	1.101	0.000	D	33	90.0	224.030	224.935	226.036	226.038	0
2	22102701	61	Low	10.0	Precise	1	36	26	31	44.4	88.2	20.9	36	31	26	44.4	20.9	88.2	2	1.507	0.000	R	26	88.2	239.416	241.265	242.772	242.774	0
2	22102701	62	Low	10.0	Precise	1	36	33	35	44.4	90.0	40.2	36	35	33	44.4	40.2	90.0	2	0.725	0.000	R	33	90.0	243.277	244.416	245.140	245.142	0
2	22102701	63	Low	10.0	Vague	2	30	26	9	46.4	88.2	11.5	26	30	9	88.2	46.4	11.5	2	1.009	0.000	L	26	88.2	245.645	246.555	247.564	247.566	0
2	22102701	64	Low	10.0	Precise	1	30	33	19	46.4	90.0	4.3	19	30	33	4.3	46.4	90.0	2	0.580	0.001	R	33	90.0	248.069	250.440	251.020	251.023	0
2	22102701	65	Low	10.0	Precise	1	30	33	22	46.4	90.0	7.5	30	33	22	46.4	90.0	7.5	2	1.043	0.001	D	33	90.0	251.525	252.273	253.316	253.319	0
2	22102701	66	Low	10.0	Precise	1	36	30	22	44.4	46.4	7.5	30	36	22	46.4	44.4	7.5	1	0.953	0.000	D	36	44.4	253.822	256.035	256.988	256.991	0
2	22102701	67	Low	10.0	Precise	1	30	32	29	46.4	54.6	8.6	30	32	29	46.4	54.6	8.6	3	0.831	0.001	R	29	8.6	257.494	258.621	259.452	259.455	0
2	22102701	68	Low	10.0	Precise	1	26	33	27	88.2	90.0	9.2	26	27	33	88.2	9.2	90.0	2	0.898	0.000	R	33	90.0	259.958	261.250	262.148	262.150	0
2	22102701	69	Low	10.0	Precise	1	30	33	31	46.4	90.0	20.9	33	30	31	90.0	46.4	20.9	2	0.801	0.000	L	33	90.0	262.654	264.716	265.516	265.519	0
2	22102701	70	Low	10.0	Vague	2	30	33	14	46.4	90.0	20.5	33	14	30	90.0	20.5	46.4	2	0.610	0.000	L	33	90.0	266.022	268.554	269.164	269.166	0
2	22102701	71	Low	10.0	Vague	2	36	30	14	44.4	46.4	20.5	14	30	36	20.5	46.4	44.4	1	1.049	0.000	R	36	44.4	269.669	270.203	271.252	271.254	0
2	22102701	72	Low	10.0	Precise	1	36	32	29	44.4	54.6	8.6	36	32	29	44.4	54.6	8.6	3	0.850	0.000	R	29	8.6	271.758	273.298	274.148	274.150	0
2	22102701	73	Low	10.0	Precise	1	32	26	31	54.6	88.2	20.9	32	26	31	54.6	88.2	20.9	2	1.286	0.001	D	26	88.2	274.653	276.606	277.892	277.895	0
2	22102701	74	Low	10.0	Precise	1	32	33	29	54.6	90.0	8.6	29	33	32	8.6	90.0	54.6	3	0.991	0.000	L	29	8.6	278.398	280.013	281.004	281.006	0
2	22102701	75	Low	10.0	Vague	2	30	26	6	46.4	88.2	5.5	30	26	6	46.4	88.2	5.5	2	1.211	0.000	D	26	88.2	281.510	283.481	284.692	284.694	0
2	22102701	76	Low	10.0	Precise	1	34	33	31	61.3	90.0	20.9	33	31	34	90.0	20.9	61.3	2	0.834	0.000	L	33	90.0	285.198	286.193	287.028	287.031	0
2	22102701	77	Low	10.0	Vague	2	34	33	5	61.3	90.0	6.3	34	5	33	61.3	6.3	90.0	2	0.686	0.001	R	33	90.0	287.534	290.374	291.060	291.063	0
2	22102701	78	Low	10.0	Precise	1	36	26	35	44.4	88.2	40.2	36	35	26	44.4	40.2	88.2	2	0.963	0.000	R	26	88.2	291.565	293.345	294.308	294.310	0
2	22102701	79	Low	10.0	Precise	1	30	33	27	46.4	90.0	9.2	27	33	30	9.2	90.0	46.4	2	0.783	0.001	D	33	90.0	294.813	295.869	296.652	296.654	0
2	22102701	80	Low	10.0	Precise	1	32	33	19	54.6	90.0	4.3	19	33	32	4.3	90.0	54.6	2	0.655	0.000	D	33	90.0	297.157	299.261	299.916	299.918	0
2	22102701	81	Low	10.0	Precise	1	36	32	35	44.4	54.6	40.2	36	32	35	44.4	54.6	40.2	1	1.195	0.000	L	36	44.4	300.421	303.360	304.556	304.558	0
2	22102701	82	Low	10.0	Vague	2	32	34	9	54.6	61.3	11.5	34	9	32	61.3	11.5	54.6	2	1.687	0.000	L	34	61.3	305.062	307.765	309.452	309.454	0
2	22102701	83	Low	10.0	Vague	2	36	30	9	44.4	46.4	11.5	30	36	9	46.4	44.4	11.5	1	1.572	0.000	D	36	44.4	309.957	310.624	312.196	312.198	0
2	22102701	84	Low	10.0	Precise	1	30	34	29	46.4	61.3	8.6	30	34	29	46.4	61.3	8.6	3	0.832	0.000	R	29	8.6	312.701	315.540	316.372	316.374	0
2	22102701	85	Low	10.0	Precise	1	36	33	29	44.4	90.0	8.6	36	29	33	44.4	8.6	90.0	2	0.846	0.000	R	33	90.0	316.877	318.455	319.300	319.302	0
2	22102701	86	Low	10.0	Vague	2	34	26	9	61.3	88.2	11.5	34	26	9	61.3	88.2	11.5	1	0.877	0.001	L	34	61.3	319.806	321.447	322.324	322.326	0
2	22102701	87	Low	10.0	Vague	2	26	33	9	88.2	90.0	11.5	26	33	9	88.2	90.0	11.5	2	0.998	0.000	D	33	90.0	322.829	324.238	325.236	325.238	0
2	22102701	88	Low	10.0	Vague	2	30	26	5	46.4	88.2	6.3	5	30	26	6.3	46.4	88.2	2	0.939	0.000	R	26	88.2	325.741	327.025	327.964	327.966	0
2	22102701	89	Low	10.0	Vague	2	36	32	5	44.4	54.6	6.3	32	36	5	54.6	44.4	6.3	1	1.183	0.001	D	36	44.4	328.469	329.542	330.724	330.727	0
2	22102701	90	Low	10.0	Vague	2	30	32	9	46.4	54.6	11.5	9	30	32	11.5	46.4	54.6	2	1.349	0.001	R	32	54.6	331.229	332.975	334.324	334.327	0
2	22102701	91	Low	10.0	Vague	2	30	32	14	46.4	54.6	20.5	14	30	32	20.5	46.4	54.6	2	0.973	0.000	R	32	54.6	334.829	336.358	337.332	337.334	0
2	22102701	92	Low	10.0	Vague	2	36	33	6	44.4	90.0	5.5	6	36	33	5.5	44.4	90.0	2	0.747	0.001	R	33	90.0	337.837	340.681	341.428	341.430	0
2	22102701	93	Low	10.0	Vague	2	36	34	14	44.4	61.3	20.5	34	14	36	61.3	20.5	44.4	1	1.269	0.000	R	36	44.4	341.933	342.935	344.204	344.206	0
2	22102701	94	Low	10.0	Precise	1	30	32	31	46.4	54.6	20.9	32	31	30	54.6	20.9	46.4	2	0.854	0.001	L	32	54.6	344.709	346.142	346.996	346.998	0
2	22102701	95	Low	10.0	Precise	1	36	26	19	44.4	88.2	4.3	19	26	36	4.3	88.2	44.4	1	0.650	0.000	R	36	44.4	347.501	349.450	350.100	350.102	0
2	22102701	96	Low	10.0	Vague	2	30	33	5	46.4	90.0	6.3	33	5	30	90.0	6.3	46.4	2	0.968	0.001	L	33	90.0	350.605	353.156	354.124	354.127	0
2	22102701	97	Low	10.0	Vague	2	32	26	9	54.6	88.2	11.5	26	32	9	88.2	54.6	11.5	2	1.308	0.001	L	26	88.2	354.629	356.528	357.836	357.838	0
2	22102701	98	Low	10.0	Vague	2	36	26	5	44.4	88.2	6.3	36	5	26	44.4	6.3	88.2	2	0.754	0.000	R	26	88.2	358.341	359.962	360.716	360.718	0
2	22102701	99	Low	10.0	Precise	1	34	26	29	61.3	88.2	8.6	34	26	29	61.3	88.2	8.6	3	0.770	0.001	R	29	8.6	361.221	361.963	362.732	362.735	0
2	22102701	100	Low	10.0	Vague	2	32	34	1	54.6	61.3	4.4	1	32	34	4.4	54.6	61.3	2	1.043	0.000	R	34	61.3	363.238	365.729	366.772	366.774	0
2	22102701	101	Low	10.0	Precise	1	32	33	35	54.6	90.0	40.2	33	35	32	90.0	40.2	54.6	2	0.733	0.000	L	33	90.0	367.277	370.102	370.836	370.838	0
2	22102701	102	Low	10.0	Vague	2	32	33	2	54.6	90.0	6.7	32	2	33	54.6	6.7	90.0	2	0.731	0.000	R	33	90.0	371.341	372.345	373.076	373.078	0
2	22102701	103	Low	10.0	Precise	1	30	34	31	46.4	61.3	20.9	31	34	30	20.9	61.3	46.4	2	1.172	0.000	D	34	61.3	373.581	375.296	376.468	376.471	0
2	22102701	104	Low	10.0	Precise	1	34	33	19	61.3	90.0	4.3	34	19	33	61.3	4.3	90.0	2	0.679	0.001	R	33	90.0	376.973	378.069	378.748	378.751	0
2	22102701	105	Low	10.0	Vague	2	32	26	2	54.6	88.2	6.7	26	2	32	88.2	6.7	54.6	2	0.932	0.000	L	26	88.2	379.254	380.208	381.140	381.142	0
2	22102701	106	Low	10.0	Precise	1	30	33	29	46.4	90.0	8.6	33	29	30	90.0	8.6	46.4	2	0.770	0.000	L	33	90.0	381.645	382.754	383.524	383.526	0
2	22102701	107	Low	10.0	Precise	1	36	32	22	44.4	54.6	7.5	36	32	22	44.4	54.6	7.5	1	1.234	0.000	L	36	44.4	384.029	386.730	387.964	387.966	0
2	22102701	108	Low	10.0	Vague	2	30	34	5	46.4	61.3	6.3	5	34	30	6.3	61.3	46.4	2	1.107	0.000	D	34	61.3	388.469	390.433	391.540	391.543	0
2	22102701	109	Low	10.0	Precise	1	36	34	31	44.4	61.3	20.9	31	36	34	20.9	44.4	61.3	2	1.884	0.000	R	34	61.3	392.046	392.824	394.708	394.711	0
2	22102701	110	Low	10.0	Vague	2	34	26	2	61.3	88.2	6.7	2	34	26	6.7	61.3	88.2	2	0.910	0.000	R	26	88.2	395.214	396.302	397.212	397.214	0
2	22102701	111	Low	10.0	Vague	2	34	33	1	61.3	90.0	4.4	34	1	33	61.3	4.4	90.0	2	0.727	0.001	R	33	90.0	397.717	400.533	401.260	401.263	0
2	22102701	112	Low	10.0	Precise	1	36	34	29	44.4	61.3	8.6	34	36	29	61.3	44.4	8.6	3	0.742	0.000	R	29	8.6	401.765	402.998	403.740	403.742	0
2	22102701	113	Low	10.0	Vague	2	36	26	1	44.4	88.2	4.4	26	1	36	88.2	4.4	44.4	1	2.210	0.001	R	36	44.4	404.246	405.890	408.100	408.103	0
2	22102701	114	Low	10.0	Vague	2	36	30	1	44.4	46.4	4.4	1	30	36	4.4	46.4	44.4	1	1.148	0.001	R	36	44.4	408.606	410.432	411.580	411.582	0
2	22102701	115	Low	10.0	Precise	1	32	34	22	54.6	61.3	7.5	34	32	22	61.3	54.6	7.5	2	1.216	0.000	L	34	61.3	412.086	414.373	415.588	415.591	0
2	22102701	116	Low	10.0	Vague	2	36	30	6	44.4	46.4	5.5	36	6	30	44.4	5.5	46.4	1	1.182	0.001	L	36	44.4	416.093	418.398	419.580	419.583	0
2	22102701	117	Low	10.0	Vague	2	26	33	6	88.2	90.0	5.5	6	33	26	5.5	90.0	88.2	2	0.888	0.001	D	33	90.0	420.086	421.596	422.484	422.486	0
2	22102701	118	Low	10.0	Vague	2	36	26	2	44.4	88.2	6.7	2	26	36	6.7	88.2	44.4	2	1.035	0.000	D	26	88.2	422.989	425.937	426.972	426.974	0
2	22102701	119	Low	10.0	Precise	1	26	33	35	88.2	90.0	40.2	33	26	35	90.0	88.2	40.2	2	0.907	0.000	L	33	90.0	427.478	428.481	429.388	429.390	0
2	22102701	120	Low	10.0	Vague	2	30	33	2	46.4	90.0	6.7	2	30	33	6.7	46.4	90.0	2	0.661	0.000	R	33	90.0	429.894	431.495	432.156	432.159	0
2	22102701	121	Low	10.0	Vague	2	30	32	5	46.4	54.6	6.3	30	32	5	46.4	54.6	6.3	2	1.421	0.001	D	32	54.6	446.638	449.607	451.028	451.031	0
2	22102701	122	Low	10.0	Vague	2	32	26	5	54.6	88.2	6.3	26	32	5	88.2	54.6	6.3	2	0.687	0.001	L	26	88.2	451.534	453.605	454.292	454.294	0
2	22102701	123	Low	10.0	Precise	1	36	32	19	44.4	54.6	4.3	36	19	32	44.4	4.3	54.6	1	0.983	0.001	L	36	44.4	454.798	455.349	456.332	456.335	0
2	22102701	124	Low	10.0	Vague	2	32	34	5	54.6	61.3	6.3	34	32	5	61.3	54.6	6.3	2	0.860	0.001	L	34	61.3	456.837	458.401	459.260	459.262	0
2	22102701	125	Low	10.0	Vague	2	32	34	6	54.6	61.3	5.5	6	34	32	5.5	61.3	54.6	2	1.314	0.000	D	34	61.3	459.765	460.482	461.796	461.798	0
2	22102701	126	Low	10.0	Vague	2	26	33	5	88.2	90.0	6.3	5	33	26	6.3	90.0	88.2	2	1.130	0.000	D	33	90.0	462.301	464.690	465.820	465.823	0
2	22102701	127	Low	10.0	Precise	1	32	34	35	54.6	61.3	40.2	35	32	34	40.2	54.6	61.3	2	1.198	0.000	R	34	61.3	466.325	467.405	468.604	468.606	0
2	22102701	128	Low	10.0	Precise	1	30	26	35	46.4	88.2	40.2	35	30	26	40.2	46.4	88.2	2	0.982	0.000	R	26	88.2	469.110	470.174	471.156	471.158	0
2	22102701	129	Low	10.0	Precise	1	30	34	27	46.4	61.3	9.2	30	27	34	46.4	9.2	61.3	2	0.976	0.000	R	34	61.3	471.661	472.603	473.580	473.582	0
2	22102701	130	Low	10.0	Vague	2	36	32	2	44.4	54.6	6.7	36	32	2	44.4	54.6	6.7	1	0.880	0.000	L	36	44.4	474.085	475.436	476.316	476.319	0
2	22102701	131	Low	10.0	Vague	2	32	33	6	54.6	90.0	5.5	33	6	32	90.0	5.5	54.6	2	1.178	0.000	L	33	90.0	476.822	477.338	478.516	478.519	0
2	22102701	132	Low	10.0	Precise	1	30	34	22	46.4	61.3	7.5	30	22	34	46.4	7.5	61.3	2	0.961	0.000	R	34	61.3	479.022	480.587	481.548	481.551	0
2	22102701	133	Low	10.0	Vague	2	36	26	6	44.4	88.2	5.5	6	36	26	5.5	44.4	88.2	2	1.179	0.000	R	26	88.2	482.053	485.041	486.220	486.223	0
2	22102701	134	Low	10.0	Vague	2	32	26	14	54.6	88.2	20.5	26	32	14	88.2	54.6	20.5	2	0.888	0.000	L	26	88.2	486.725	489.164	490.052	490.054	0
2	22102701	135	Low	10.0	Precise	1	36	32	31	44.4	54.6	20.9	31	32	36	20.9	54.6	44.4	1	0.788	0.000	R	36	44.4	490.557	491.687	492.476	492.478	0
2	22102701	136	Low	10.0	Vague	2	36	34	1	44.4	61.3	4.4	36	34	1	44.4	61.3	4.4	1	0.923	0.000	L	36	44.4	492.981	494.137	495.060	495.063	0
2	22102701	137	Low	10.0	Vague	2	34	26	14	61.3	88.2	20.5	34	14	26	61.3	20.5	88.2	2	1.120	0.000	R	26	88.2	495.565	497.620	498.740	498.742	0
2	22102701	138	Low	10.0	Vague	2	36	32	1	44.4	54.6	4.4	32	36	1	54.6	44.4	4.4	2	1.628	0.000	L	32	54.6	499.246	499.831	501.460	501.462	0
2	22102701	139	Low	10.0	Precise	1	26	33	29	88.2	90.0	8.6	29	26	33	8.6	88.2	90.0	2	0.940	0.001	R	33	90.0	501.965	503.784	504.724	504.727	0
2	22102701	140	Low	10.0	Precise	1	32	26	22	54.6	88.2	7.5	32	26	22	54.6	88.2	7.5	2	1.268	0.000	D	26	88.2	505.229	507.368	508.636	508.639	0
2	22102701	141	Low	10.0	Precise	1	30	26	29	46.4	88.2	8.6	29	26	30	8.6	88.2	46.4	2	1.278	0.000	D	26	88.2	509.141	511.334	512.612	512.614	0
2	22102701	142	Low	10.0	Precise	1	36	30	35	44.4	46.4	40.2	35	36	30	40.2	44.4	46.4	1	0.942	0.001	D	36	44.4	513.117	514.830	515.772	515.775	0
2	22102701	143	Low	10.0	Precise	1	36	33	22	44.4	90.0	7.5	22	33	36	7.5	90.0	44.4	2	1.377	0.000	D	33	90.0	516.278	516.891	518.268	518.270	0
2	22102701	144	Low	10.0	Precise	1	32	34	19	54.6	61.3	4.3	19	34	32	4.3	61.3	54.6	2	0.952	0.001	D	34	61.3	518.773	520.836	521.788	521.791	0
2	22102701	145	Low	10.0	Precise	1	36	30	27	44.4	46.4	9.2	36	30	27	44.4	46.4	9.2	1	0.913	0.001	L	36	44.4	522.294	525.027	525.940	525.943	0
2	22102701	146	Low	10.0	Precise	1	34	33	27	61.3	90.0	9.2	33	27	34	90.0	9.2	61.3	1	0.683	0.000	R	34	61.3	526.445	527.689	528.372	528.374	0
2	22102701	147	Low	10.0	Vague	2	30	26	2	46.4	88.2	6.7	2	30	26	6.7	46.4	88.2	2	0.658	0.000	R	26	88.2	528.878	531.146	531.804	531.807	0
2	22102701	148	Low	10.0	Precise	1	32	33	27	54.6	90.0	9.2	27	33	32	9.2	90.0	54.6	2	0.728	0.001	D	33	90.0	532.310	535.156	535.884	535.887	0
2	22102701	149	Low	10.0	Precise	1	26	33	19	88.2	90.0	4.3	33	19	26	90.0	4.3	88.2	2	0.692	0.000	L	33	90.0	536.389	537.977	538.668	538.670	0
2	22102701	150	Low	10.0	Precise	1	32	26	35	54.6	88.2	40.2	26	32	35	88.2	54.6	40.2	2	1.239	0.000	L	26	88.2	539.173	539.725	540.964	540.966	0
2	22102701	151	Low	10.0	Precise	1	36	26	27	44.4	88.2	9.2	26	27	36	88.2	9.2	44.4	2	0.937	0.001	L	26	88.2	541.469	542.755	543.692	543.695	0
2	22102701	152	Low	10.0	Vague	2	34	33	6	61.3	90.0	5.5	34	33	6	61.3	90.0	5.5	2	0.934	0.001	D	33	90.0	544.198	546.454	547.388	547.391	0
2	22102701	153	Low	10.0	Vague	2	36	26	14	44.4	88.2	20.5	14	36	26	20.5	44.4	88.2	2	0.839	0.000	R	26	88.2	547.894	550.773	551.612	551.614	0
2	22102701	154	Low	10.0	Vague	2	36	33	1	44.4	90.0	4.4	1	33	36	4.4	90.0	44.4	2	0.912	0.000	D	33	90.0	552.117	553.484	554.396	554.398	0
2	22102701	155	Low	10.0	Vague	2	36	33	2	44.4	90.0	6.7	36	2	33	44.4	6.7	90.0	2	0.693	0.000	R	33	90.0	554.901	557.407	558.100	558.103	0
2	22102701	156	Low	10.0	Precise	1	30	32	27	46.4	54.6	9.2	27	32	30	9.2	54.6	46.4	2	1.094	0.001	D	32	54.6	558.605	560.799	561.892	561.895	0
2	22102701	157	Low	10.0	Vague	2	32	26	6	54.6	88.2	5.5	6	32	26	5.5	54.6	88.2	2	1.586	0.000	R	26	88.2	562.397	563.930	565.516	565.519	0
2	22102701	158	Low	10.0	Precise	1	36	33	27	44.4	90.0	9.2	33	27	36	90.0	9.2	44.4	2	1.043	0.001	L	33	90.0	566.022	567.705	568.748	568.751	0
2	22102701	159	Low	10.0	Vague	2	32	34	2	54.6	61.3	6.7	2	34	32	6.7	61.3	54.6	2	0.901	0.000	D	34	61.3	569.254	571.880	572.780	572.783	0
2	22102701	160	Low	10.0	Vague	2	36	34	6	44.4	61.3	5.5	6	34	36	5.5	61.3	44.4	1	1.140	0.000	R	36	44.4	573.285	574.336	575.476	575.479	0
2	22102701	161	Low	10.0	Precise	1	36	26	22	44.4	88.2	7.5	22	36	26	7.5	44.4	88.2	2	0.739	0.001	R	26	88.2	575.982	577.954	578.692	578.695	0
2	22102701	162	Low	10.0	Vague	2	34	26	6	61.3	88.2	5.5	26	34	6	88.2	61.3	5.5	2	0.902	0.000	L	26	88.2	579.198	581.077	581.980	581.982	0
2	22102701	163	Low	10.0	Precise	1	32	33	31	54.6	90.0	20.9	33	32	31	90.0	54.6	20.9	2	0.684	0.000	L	33	90.0	582.485	584.520	585.204	585.207	0
2	22102701	164	Low	10.0	Precise	1	32	34	31	54.6	61.3	20.9	32	31	34	54.6	20.9	61.3	2	1.294	0.001	R	34	61.3	585.710	588.254	589.548	589.550	0
2	22102701	165	Low	10.0	Precise	1	36	30	31	44.4	46.4	20.9	30	36	31	46.4	44.4	20.9	1	1.557	0.000	D	36	44.4	590.054	592.391	593.948	593.950	0
2	22102701	166	Low	10.0	Precise	1	34	33	29	61.3	90.0	8.6	33	29	34	90.0	8.6	61.3	2	0.772	0.000	L	33	90.0	594.454	597.392	598.164	598.166	0
2	22102701	167	Low	10.0	Vague	2	32	33	14	54.6	90.0	20.5	33	14	32	90.0	20.5	54.6	2	0.776	0.001	L	33	90.0	598.669	601.204	601.980	601.983	0
2	22102701	168	Low	10.0	Precise	1	34	26	27	61.3	88.2	9.2	26	27	34	88.2	9.2	61.3	2	0.927	0.001	L	26	88.2	602.486	603.270	604.196	604.199	0
2	22102701	169	Low	10.0	Vague	2	30	32	6	46.4	54.6	5.5	30	32	6	46.4	54.6	5.5	2	0.907	0.001	D	32	54.6	604.702	606.609	607.516	607.519	0
2	22102701	170	Low	10.0	Precise	1	32	26	19	54.6	88.2	4.3	32	26	19	54.6	88.2	4.3	2	0.959	0.000	D	26	88.2	608.022	609.638	610.596	610.599	0
2	22102701	171	Low	10.0	Vague	2	30	34	14	46.4	61.3	20.5	14	30	34	20.5	46.4	61.3	2	1.116	0.000	R	34	61.3	611.102	613.584	614.700	614.702	0
2	22102701	172	Low	10.0	Precise	1	34	33	22	61.3	90.0	7.5	33	34	22	90.0	61.3	7.5	2	0.680	0.001	L	33	90.0	615.205	616.740	617.420	617.423	0
2	22102701	173	Low	10.0	Vague	2	32	33	9	54.6	90.0	11.5	9	33	32	11.5	90.0	54.6	1	1.238	0.000	R	32	54.6	617.925	618.918	620.156	620.158	0
2	22102701	174	Low	10.0	Precise	1	36	34	22	44.4	61.3	7.5	36	22	34	44.4	7.5	61.3	2	1.148	0.000	R	34	61.3	620.662	623.208	624.356	624.359	0
2	22102701	175	Low	10.0	Vague	2	36	32	9	44.4	54.6	11.5	36	32	9	44.4	54.6	11.5	1	1.369	0.000	L	36	44.4	624.861	625.939	627.308	627.310	0
2	22102701	176	Low	10.0	Vague	2	30	34	9	46.4	61.3	11.5	34	30	9	61.3	46.4	11.5	2	1.304	0.000	L	34	61.3	627.814	628.996	630.300	630.302	0
2	22102701	177	Low	10.0	Precise	1	34	26	31	61.3	88.2	20.9	26	31	34	88.2	20.9	61.3	2	0.743	0.001	L	26	88.2	630.806	632.861	633.604	633.607	0
2	22102701	178	Low	10.0	Vague	2	30	32	1	46.4	54.6	4.4	30	1	32	46.4	4.4	54.6	2	0.982	0.000	R	32	54.6	634.109	635.006	635.988	635.991	0
2	22102701	179	Low	10.0	Precise	1	32	34	27	54.6	61.3	9.2	34	32	27	61.3	54.6	9.2	2	0.772	0.000	L	34	61.3	636.493	637.328	638.100	638.102	0
2	22102701	180	Low	10.0	Vague	2	36	34	2	44.4	61.3	6.7	2	34	36	6.7	61.3	44.4	1	0.918	0.000	R	36	44.4	638.605	639.454	640.372	640.375	0
2	22102701	181	High	1.5	Precise	1	36	32	25	44.4	54.6	12.7	36	25	32	44.4	12.7	54.6	1	0.809	0.001	L	36	44.4	662.255	664.467	665.276	665.279	0
2	22102701	182	High	1.5	Precise	1	26	33	25	88.2	90.0	12.7	26	33	25	88.2	90.0	12.7	1	0.662	0.000	L	26	88.2	665.782	667.726	668.388	668.390	0
2	22102701	183	High	1.5	Vague	2	32	26	11	54.6	88.2	5.2	26	32	11	88.2	54.6	5.2	2	0.922	0.000	L	26	88.2	668.893	669.962	670.884	670.886	0
2	22102701	184	High	1.5	Precise	1	36	33	21	44.4	90.0	7.5	36	21	33	44.4	7.5	90.0	2	0.683	0.000	R	33	90.0	671.389	673.161	673.844	673.846	0
2	22102701	185	High	1.5	Vague	2	32	34	3	54.6	61.3	5.8	3	34	32	5.8	61.3	54.6	1	0.708	0.000	R	32	54.6	674.350	676.864	677.572	677.574	0
2	22102701	186	High	1.5	Precise	1	36	33	25	44.4	90.0	12.7	33	36	25	90.0	44.4	12.7	2	0.738	0.000	L	33	90.0	678.077	678.938	679.676	679.678	0
2	22102701	187	High	1.5	Vague	2	26	33	3	88.2	90.0	5.8	26	3	33	88.2	5.8	90.0	2	0.632	0.001	R	33	90.0	680.181	680.956	681.588	681.590	0
2	22102701	188	High	1.5	Precise	1	36	34	21	44.4	61.3	7.5	21	36	34	7.5	44.4	61.3	2	0.698	0.000	R	34	61.3	682.094	683.874	684.572	684.575	0
2	22102701	189	High	1.5	Precise	1	32	33	28	54.6	90.0	30.0	32	33	28	54.6	90.0	30.0	3	1.052	0.000	R	28	30.0	685.078	685.977	687.028	687.031	0
2	22102701	190	High	1.5	Vague	2	32	26	4	54.6	88.2	11.0	26	4	32	88.2	11.0	54.6	2	0.749	0.000	L	26	88.2	687.534	688.967	689.716	689.718	0
2	22102701	191	High	1.5	Vague	2	32	26	8	54.6	88.2	16.9	32	26	8	54.6	88.2	16.9	2	1.132	0.001	D	26	88.2	690.221	691.424	692.556	692.559	0
2	22102701	192	High	1.5	Vague	2	32	34	11	54.6	61.3	5.2	11	32	34	5.2	54.6	61.3	1	0.838	0.000	D	32	54.6	693.062	694.590	695.428	695.430	0
2	22102701	193	High	1.5	Precise	1	36	34	20	44.4	61.3	8.7	34	20	36	61.3	8.7	44.4	2	0.832	0.001	L	34	61.3	695.934	696.804	697.636	697.639	0
2	22102701	194	High	1.5	Precise	1	32	26	23	54.6	88.2	4.4	26	32	23	88.2	54.6	4.4	2	0.780	0.001	L	26	88.2	698.141	701.000	701.780	701.783	0
2	22102701	195	High	1.5	Precise	1	36	26	23	44.4	88.2	4.4	23	26	36	4.4	88.2	44.4	2	0.856	0.000	D	26	88.2	702.286	703.012	703.868	703.871	0
2	22102701	196	High	1.5	Vague	2	30	34	11	46.4	61.3	5.2	11	30	34	5.2	46.4	61.3	2	1.107	0.000	R	34	61.3	704.373	706.961	708.068	708.070	0
2	22102701	197	High	1.5	Precise	1	36	30	20	44.4	46.4	8.7	20	36	30	8.7	44.4	46.4	1	0.879	0.000	D	36	44.4	708.573	709.966	710.844	710.847	0
2	22102701	198	High	1.5	Vague	2	30	26	8	46.4	88.2	16.9	8	26	30	16.9	88.2	46.4	2	0.823	0.000	D	26	88.2	711.350	712.582	713.404	713.406	0
2	22102701	199	High	1.5	Precise	1	32	26	21	54.6	88.2	7.5	26	21	32	88.2	7.5	54.6	2	0.689	0.000	L	26	88.2	713.910	716.403	717.092	717.095	0
2	22102701	200	High	1.5	Precise	1	36	32	20	44.4	54.6	8.7	32	36	20	54.6	44.4	8.7	1	0.904	0.000	D	36	44.4	717.597	719.788	720.692	720.695	0
2	22102701	201	High	1.5	Vague	2	32	34	8	54.6	61.3	16.9	8	34	32	16.9	61.3	54.6	2	0.934	0.000	D	34	61.3	721.198	722.502	723.436	723.438	0
2	22102701	202	High	1.5	Precise	1	30	32	24	46.4	54.6	2.7	32	24	30	54.6	2.7	46.4	2	1.129	0.001	L	32	54.6	723.941	724.475	725.604	725.608	0
2	22102701	203	High	1.5	Precise	1	30	32	25	46.4	54.6	12.7	25	30	32	12.7	46.4	54.6	2	0.871	0.000	R	32	54.6	726.110	728.612	729.484	729.487	0
2	22102701	204	High	1.5	Vague	2	36	34	4	44.4	61.3	11.0	36	34	4	44.4	61.3	11.0	1	0.747	0.001	L	36	44.4	729.990	732.322	733.068	733.071	0
2	22102701	205	High	1.5	Vague	2	30	33	3	46.4	90.0	5.8	30	33	3	46.4	90.0	5.8	2	0.875	0.000	D	33	90.0	733.574	735.609	736.484	736.487	0
2	22102701	206	High	1.5	Vague	2	30	26	3	46.4	88.2	5.8	3	30	26	5.8	46.4	88.2	2	0.700	0.000	R	26	88.2	736.989	738.488	739.188	739.190	0
2	22102701	207	High	1.5	Vague	2	30	33	11	46.4	90.0	5.2	33	30	11	90.0	46.4	5.2	2	0.681	0.001	L	33	90.0	739.694	742.340	743.020	743.023	0
2	22102701	208	High	1.5	Vague	2	36	26	11	44.4	88.2	5.2	11	26	36	5.2	88.2	44.4	1	0.962	0.000	R	36	44.4	743.526	745.026	745.988	745.991	0
2	22102701	209	High	1.5	Precise	1	36	32	21	44.4	54.6	7.5	36	32	21	44.4	54.6	7.5	1	0.653	0.001	L	36	44.4	746.494	749.312	749.964	749.967	0
2	22102701	210	High	1.5	Vague	2	26	33	7	88.2	90.0	6.6	26	7	33	88.2	6.6	90.0	2	0.754	0.000	R	33	90.0	750.470	751.489	752.244	752.247	0
2	22102701	211	High	1.5	Vague	2	34	33	8	61.3	90.0	16.9	33	8	34	90.0	16.9	61.3	2	0.577	0.000	L	33	90.0	752.750	755.179	755.756	755.758	0
2	22102701	212	High	1.5	Precise	1	30	33	28	46.4	90.0	30.0	28	33	30	30.0	90.0	46.4	2	0.708	0.000	D	33	90.0	756.262	758.128	758.836	758.839	0
2	22102701	213	High	1.5	Vague	2	32	33	13	54.6	90.0	42.5	13	33	32	42.5	90.0	54.6	2	0.624	0.001	D	33	90.0	759.343	760.732	761.356	761.359	0
2	22102701	214	High	1.5	Precise	1	30	26	21	46.4	88.2	7.5	26	21	30	88.2	7.5	46.4	2	0.705	0.001	L	26	88.2	761.861	763.747	764.452	764.455	0
2	22102701	215	High	1.5	Precise	1	34	26	28	61.3	88.2	30.0	34	28	26	61.3	30.0	88.2	3	1.027	0.000	D	28	30.0	764.957	765.682	766.708	766.711	0
2	22102701	216	High	1.5	Precise	1	32	34	25	54.6	61.3	12.7	34	32	25	61.3	54.6	12.7	2	0.731	0.001	L	34	61.3	767.214	768.473	769.204	769.207	0
2	22102701	217	High	1.5	Precise	1	32	26	25	54.6	88.2	12.7	32	25	26	54.6	12.7	88.2	2	0.654	0.000	R	26	88.2	769.710	771.822	772.476	772.478	0
2	22102701	218	High	1.5	Precise	1	36	30	25	44.4	46.4	12.7	36	25	30	44.4	12.7	46.4	1	1.192	0.001	L	36	44.4	772.981	773.532	774.724	774.727	0
2	22102701	219	High	1.5	Precise	1	32	26	24	54.6	88.2	2.7	32	24	26	54.6	2.7	88.2	2	0.606	0.000	R	26	88.2	775.229	777.630	778.236	778.238	0
2	22102701	220	High	1.5	Vague	2	36	33	11	44.4	90.0	5.2	36	33	11	44.4	90.0	5.2	2	1.117	0.000	D	33	90.0	778.741	779.559	780.676	780.679	0
2	22102701	221	High	1.5	Precise	1	30	32	21	46.4	54.6	7.5	30	32	21	46.4	54.6	7.5	2	1.087	0.000	D	32	54.6	781.182	782.053	783.140	783.143	0
2	22102701	222	High	1.5	Precise	1	32	33	21	54.6	90.0	7.5	21	33	32	7.5	90.0	54.6	2	0.750	0.001	D	33	90.0	783.646	784.446	785.196	785.199	0
2	22102701	223	High	1.5	Precise	1	34	33	24	61.3	90.0	2.7	24	33	34	2.7	90.0	61.3	2	0.790	0.000	D	33	90.0	785.702	787.510	788.300	788.302	0
2	22102701	224	High	1.5	Precise	1	36	26	28	44.4	88.2	30.0	28	26	36	30.0	88.2	44.4	2	1.130	0.000	D	26	88.2	788.805	790.475	791.604	791.607	0
2	22102701	225	High	1.5	Vague	2	30	26	11	46.4	88.2	5.2	30	11	26	46.4	5.2	88.2	2	0.910	0.000	R	26	88.2	792.109	794.718	795.628	795.630	0
2	22102701	226	High	1.5	Vague	2	34	33	11	61.3	90.0	5.2	11	33	34	5.2	90.0	61.3	2	0.742	0.000	D	33	90.0	796.133	797.085	797.828	797.830	0
2	22102701	227	High	1.5	Precise	1	30	26	20	46.4	88.2	8.7	20	26	30	8.7	88.2	46.4	2	0.631	0.000	D	26	88.2	798.333	801.261	801.892	801.894	0
2	22102701	228	High	1.5	Precise	1	30	34	23	46.4	61.3	4.4	23	34	30	4.4	61.3	46.4	2	0.769	0.001	D	34	61.3	802.397	804.795	805.564	805.567	0
2	22102701	229	High	1.5	Vague	2	26	33	8	88.2	90.0	16.9	26	8	33	88.2	16.9	90.0	2	0.719	0.000	R	33	90.0	806.069	808.525	809.244	809.246	0
2	22102701	230	High	1.5	Vague	2	36	33	7	44.4	90.0	6.6	33	36	7	90.0	44.4	6.6	2	0.864	0.000	L	33	90.0	809.749	810.548	811.412	811.415	0
2	22102701	231	High	1.5	Precise	1	34	33	21	61.3	90.0	7.5	21	34	33	7.5	61.3	90.0	2	0.615	0.001	R	33	90.0	811.917	814.621	815.236	815.239	0
2	22102701	232	High	1.5	Vague	2	36	32	8	44.4	54.6	16.9	36	8	32	44.4	16.9	54.6	1	1.059	0.001	L	36	44.4	815.741	816.857	817.916	817.919	0
2	22102701	233	High	1.5	Precise	1	30	33	25	46.4	90.0	12.7	33	30	25	90.0	46.4	12.7	2	0.655	0.000	L	33	90.0	818.422	820.541	821.196	821.198	0
2	22102701	234	High	1.5	Precise	1	30	34	20	46.4	61.3	8.7	34	30	20	61.3	46.4	8.7	2	0.699	0.000	L	34	61.3	821.702	822.601	823.300	823.302	0
2	22102701	235	High	1.5	Precise	1	32	33	25	54.6	90.0	12.7	25	33	32	12.7	90.0	54.6	2	0.995	0.001	D	33	90.0	823.806	826.434	827.428	827.432	0
2	22102701	236	High	1.5	Precise	1	26	33	24	88.2	90.0	2.7	26	24	33	88.2	2.7	90.0	2	0.552	0.001	R	33	90.0	827.935	830.485	831.036	831.039	0
2	22102701	237	High	1.5	Vague	2	30	32	11	46.4	54.6	5.2	30	32	11	46.4	54.6	5.2	2	0.768	0.000	D	32	54.6	831.542	833.773	834.540	834.543	0
2	22102701	238	High	1.5	Vague	2	32	34	13	54.6	61.3	42.5	34	13	32	61.3	42.5	54.6	2	0.793	0.000	L	34	61.3	835.046	836.427	837.220	837.222	0
2	22102701	239	High	1.5	Vague	2	34	26	3	61.3	88.2	5.8	3	34	26	5.8	61.3	88.2	2	0.896	0.001	R	26	88.2	837.725	839.660	840.556	840.559	0
2	22102701	240	High	1.5	Vague	2	36	30	8	44.4	46.4	16.9	30	36	8	46.4	44.4	16.9	1	0.934	0.001	D	36	44.4	841.061	843.782	844.716	844.719	0
2	22102701	241	High	1.5	Precise	1	30	33	21	46.4	90.0	7.5	33	21	30	90.0	7.5	46.4	2	0.630	0.000	L	33	90.0	861.274	863.286	863.916	863.919	0
2	22102701	242	High	1.5	Vague	2	36	34	3	44.4	61.3	5.8	3	36	34	5.8	44.4	61.3	2	1.089	0.000	R	34	61.3	864.422	864.971	866.060	866.062	0
2	22102701	243	High	1.5	Precise	1	30	26	24	46.4	88.2	2.7	24	30	26	2.7	46.4	88.2	2	0.647	0.001	R	26	88.2	866.566	869.517	870.164	870.167	0
2	22102701	244	High	1.5	Vague	2	36	32	11	44.4	54.6	5.2	36	11	32	44.4	5.2	54.6	2	0.652	0.000	R	32	54.6	870.669	873.384	874.036	874.038	0
2	22102701	245	High	1.5	Precise	1	32	34	20	54.6	61.3	8.7	34	32	20	61.3	54.6	8.7	2	0.588	0.000	L	34	61.3	874.541	877.432	878.020	878.023	0
2	22102701	246	High	1.5	Vague	2	36	26	4	44.4	88.2	11.0	36	4	26	44.4	11.0	88.2	2	0.642	0.000	R	26	88.2	878.525	881.354	881.996	881.999	0
2	22102701	247	High	1.5	Vague	2	30	34	7	46.4	61.3	6.6	34	7	30	61.3	6.6	46.4	2	0.837	0.001	L	34	61.3	882.501	884.551	885.388	885.391	0
2	22102701	248	High	1.5	Precise	1	36	26	24	44.4	88.2	2.7	26	36	24	88.2	44.4	2.7	2	0.572	0.000	L	26	88.2	885.893	887.320	887.892	887.894	0
2	22102701	249	High	1.5	Precise	1	30	33	23	46.4	90.0	4.4	30	33	23	46.4	90.0	4.4	2	0.928	0.000	D	33	90.0	888.397	890.997	891.924	891.927	0
2	22102701	250	High	1.5	Vague	2	30	26	13	46.4	88.2	42.5	26	13	30	88.2	42.5	46.4	2	0.595	0.000	L	26	88.2	892.430	893.921	894.516	894.519	0
2	22102701	251	High	1.5	Precise	1	34	33	25	61.3	90.0	12.7	25	33	34	12.7	90.0	61.3	2	0.744	0.000	D	33	90.0	895.021	896.700	897.444	897.446	0
2	22102701	252	High	1.5	Precise	1	36	33	28	44.4	90.0	30.0	33	36	28	90.0	44.4	30.0	2	0.798	0.000	L	33	90.0	897.949	899.822	900.620	900.623	0
2	22102701	253	High	1.5	Precise	1	36	26	20	44.4	88.2	8.7	26	20	36	88.2	8.7	44.4	2	0.570	0.000	L	26	88.2	901.125	903.842	904.412	904.414	0
2	22102701	254	High	1.5	Precise	1	30	34	21	46.4	61.3	7.5	21	30	34	7.5	46.4	61.3	2	0.646	0.000	R	34	61.3	904.917	906.062	906.708	906.710	0
2	22102701	255	High	1.5	Vague	2	36	32	13	44.4	54.6	42.5	13	32	36	42.5	54.6	44.4	1	0.607	0.000	R	36	44.4	907.213	909.549	910.156	910.158	0
2	22102701	256	High	1.5	Precise	1	34	26	24	61.3	88.2	2.7	24	26	34	2.7	88.2	61.3	1	0.649	0.001	R	34	61.3	910.661	912.547	913.196	913.199	0
2	22102701	257	High	1.5	Precise	1	32	33	20	54.6	90.0	8.7	20	32	33	8.7	54.6	90.0	2	0.784	0.000	R	33	90.0	913.702	916.261	917.044	917.047	0
2	22102701	258	High	1.5	Vague	2	32	26	7	54.6	88.2	6.6	26	7	32	88.2	6.6	54.6	2	0.524	0.000	L	26	88.2	917.549	920.376	920.900	920.903	0
2	22102701	259	High	1.5	Precise	1	32	34	24	54.6	61.3	2.7	24	34	32	2.7	61.3	54.6	1	0.780	0.000	R	32	54.6	921.405	922.624	923.404	923.406	0
2	22102701	260	High	1.5	Vague	2	34	26	11	61.3	88.2	5.2	34	11	26	61.3	5.2	88.2	2	0.858	0.001	R	26	88.2	923.909	926.898	927.756	927.758	0
2	22102701	261	High	1.5	Precise	1	36	34	25	44.4	61.3	12.7	34	25	36	61.3	12.7	44.4	2	0.860	0.000	L	34	61.3	928.261	930.000	930.860	930.862	0
2	22102701	262	High	1.5	Precise	1	36	33	23	44.4	90.0	4.4	36	23	33	44.4	4.4	90.0	2	0.624	0.000	R	33	90.0	931.365	934.220	934.844	934.847	0
2	22102701	263	High	1.5	Precise	1	34	26	25	61.3	88.2	12.7	26	34	25	88.2	61.3	12.7	2	0.555	0.000	L	26	88.2	935.350	937.681	938.236	938.239	0
2	22102701	264	High	1.5	Vague	2	36	30	7	44.4	46.4	6.6	36	30	7	44.4	46.4	6.6	1	0.922	0.000	L	36	44.4	938.742	941.482	942.404	942.407	0
2	22102701	265	High	1.5	Precise	1	32	26	20	54.6	88.2	8.7	20	26	32	8.7	88.2	54.6	2	0.912	0.000	D	26	88.2	942.909	944.620	945.532	945.535	0
2	22102701	266	High	1.5	Precise	1	30	26	25	46.4	88.2	12.7	30	26	25	46.4	88.2	12.7	2	0.705	0.000	D	26	88.2	946.037	948.507	949.212	949.214	0
2	22102701	267	High	1.5	Precise	1	36	30	23	44.4	46.4	4.4	36	30	23	44.4	46.4	4.4	1	0.576	0.000	L	36	44.4	949.717	951.692	952.268	952.270	0
2	22102701	268	High	1.5	Vague	2	36	34	13	44.4	61.3	42.5	13	36	34	42.5	44.4	61.3	2	0.662	0.000	R	34	61.3	952.773	953.734	954.396	954.399	0
2	22102701	269	High	1.5	Vague	2	30	33	7	46.4	90.0	6.6	7	33	30	6.6	90.0	46.4	2	0.707	0.000	D	33	90.0	954.901	957.138	957.844	957.847	0
2	22102701	270	High	1.5	Vague	2	32	33	8	54.6	90.0	16.9	8	33	32	16.9	90.0	54.6	2	0.742	0.001	D	33	90.0	958.349	959.366	960.108	960.111	0
2	22102701	271	High	1.5	Precise	1	34	33	28	61.3	90.0	30.0	28	33	34	30.0	90.0	61.3	2	0.879	0.000	D	33	90.0	960.614	963.269	964.148	964.150	0
2	22102701	272	High	1.5	Precise	1	30	32	20	46.4	54.6	8.7	30	20	32	46.4	8.7	54.6	2	1.088	0.000	R	32	54.6	964.653	967.492	968.580	968.583	0
2	22102701	273	High	1.5	Precise	1	32	33	23	54.6	90.0	4.4	32	23	33	54.6	4.4	90.0	2	0.610	0.000	R	33	90.0	969.086	971.074	971.684	971.686	0
2	22102701	274	High	1.5	Vague	2	32	34	7	54.6	61.3	6.6	34	32	7	61.3	54.6	6.6	NaN	NaN	NaN	NaN	NaN	NaN	972.189	972.690	NaN	974.200	1
2	22102701	275	High	1.5	Precise	1	34	33	20	61.3	90.0	8.7	34	20	33	61.3	8.7	90.0	2	0.954	0.001	R	33	90.0	976.204	978.074	979.028	979.033	0
2	22102701	276	High	1.5	Precise	1	30	32	28	46.4	54.6	30.0	30	32	28	46.4	54.6	30.0	3	1.004	0.000	R	28	30.0	979.536	980.720	981.724	981.727	0
2	22102701	277	High	1.5	Vague	2	36	26	8	44.4	88.2	16.9	36	26	8	44.4	88.2	16.9	2	0.871	0.001	D	26	88.2	982.230	984.166	985.036	985.038	0
2	22102701	278	High	1.5	Precise	1	30	34	28	46.4	61.3	30.0	34	28	30	61.3	30.0	46.4	3	0.894	0.001	D	28	30.0	985.542	986.470	987.364	987.367	0
2	22102701	279	High	1.5	Vague	2	34	33	7	61.3	90.0	6.6	34	33	7	61.3	90.0	6.6	2	0.883	0.000	D	33	90.0	987.870	988.745	989.628	989.631	0
2	22102701	280	High	1.5	Vague	2	36	32	3	44.4	54.6	5.8	36	32	3	44.4	54.6	5.8	1	0.835	0.000	L	36	44.4	990.134	992.905	993.740	993.743	0
2	22102701	281	High	1.5	Precise	1	30	34	24	46.4	61.3	2.7	30	24	34	46.4	2.7	61.3	2	0.984	0.001	R	34	61.3	994.246	994.940	995.924	995.927	0
2	22102701	282	High	1.5	Vague	2	30	32	7	46.4	54.6	6.6	7	32	30	6.6	54.6	46.4	2	0.785	0.000	D	32	54.6	996.430	999.027	999.812	999.815	0
2	22102701	283	High	1.5	Precise	1	36	32	24	44.4	54.6	2.7	36	24	32	44.4	2.7	54.6	1	0.657	0.000	L	36	44.4	1000.318	1002.379	1003.036	1003.038	0
2	22102701	284	High	1.5	Precise	1	34	33	23	61.3	90.0	4.4	34	33	23	61.3	90.0	4.4	2	0.628	0.001	D	33	90.0	1003.541	1005.265	1005.892	1005.894	0
2	22102701	285	High	1.5	Vague	2	32	34	4	54.6	61.3	11.0	4	34	32	11.0	61.3	54.6	2	0.890	0.000	D	34	61.3	1006.398	1008.987	1009.876	1009.879	0
2	22102701	286	High	1.5	Vague	2	26	33	13	88.2	90.0	42.5	33	26	13	90.0	88.2	42.5	2	0.618	0.000	L	33	90.0	1010.382	1012.555	1013.172	1013.175	0
2	22102701	287	High	1.5	Precise	1	32	34	28	54.6	61.3	30.0	28	32	34	30.0	54.6	61.3	1	0.701	0.000	D	32	54.6	1013.677	1016.599	1017.300	1017.303	0
2	22102701	288	High	1.5	Vague	2	32	26	13	54.6	88.2	42.5	26	32	13	88.2	54.6	42.5	2	0.853	0.000	L	26	88.2	1017.805	1020.671	1021.524	1021.527	0
2	22102701	289	High	1.5	Vague	2	32	33	7	54.6	90.0	6.6	32	7	33	54.6	6.6	90.0	2	0.687	0.000	R	33	90.0	1022.030	1023.660	1024.348	1024.350	0
2	22102701	290	High	1.5	Precise	1	30	33	24	46.4	90.0	2.7	30	24	33	46.4	2.7	90.0	2	0.612	0.000	R	33	90.0	1024.853	1025.689	1026.300	1026.303	0
2	22102701	291	High	1.5	Precise	1	34	26	20	61.3	88.2	8.7	34	20	26	61.3	8.7	88.2	2	0.794	0.001	R	26	88.2	1026.805	1027.627	1028.420	1028.423	0
2	22102701	292	High	1.5	Vague	2	34	33	13	61.3	90.0	42.5	33	13	34	90.0	42.5	61.3	2	0.810	0.000	L	33	90.0	1028.925	1030.419	1031.228	1031.231	0
2	22102701	293	High	1.5	Vague	2	30	32	4	46.4	54.6	11.0	30	32	4	46.4	54.6	11.0	2	0.734	0.000	D	32	54.6	1031.733	1033.086	1033.820	1033.823	0
2	22102701	294	High	1.5	Precise	1	36	26	21	44.4	88.2	7.5	26	36	21	88.2	44.4	7.5	2	0.675	0.001	L	26	88.2	1034.325	1036.161	1036.836	1036.839	0
2	22102701	295	High	1.5	Vague	2	36	26	7	44.4	88.2	6.6	7	36	26	6.6	44.4	88.2	2	0.776	0.000	R	26	88.2	1037.341	1039.420	1040.196	1040.198	0
2	22102701	296	High	1.5	Vague	2	36	33	3	44.4	90.0	5.8	33	36	3	90.0	44.4	5.8	2	0.563	0.001	L	33	90.0	1040.701	1043.585	1044.148	1044.151	0
2	22102701	297	High	1.5	Precise	1	36	34	24	44.4	61.3	2.7	36	34	24	44.4	61.3	2.7	1	0.763	0.000	L	36	44.4	1044.654	1047.465	1048.228	1048.231	0
2	22102701	298	High	1.5	Precise	1	36	32	28	44.4	54.6	30.0	36	28	32	44.4	30.0	54.6	2	0.889	0.001	R	32	54.6	1048.734	1051.140	1052.028	1052.031	0
2	22102701	299	High	1.5	Vague	2	30	32	3	46.4	54.6	5.8	30	3	32	46.4	5.8	54.6	2	1.046	0.001	R	32	54.6	1052.534	1054.575	1055.620	1055.623	0
2	22102701	300	High	1.5	Vague	2	30	33	4	46.4	90.0	11.0	33	4	30	90.0	11.0	46.4	2	0.677	0.000	L	33	90.0	1056.125	1057.479	1058.156	1058.158	0
2	22102701	301	High	1.5	Precise	1	30	26	23	46.4	88.2	4.4	23	26	30	4.4	88.2	46.4	2	0.736	0.000	D	26	88.2	1069.519	1071.204	1071.940	1071.943	0
2	22102701	302	High	1.5	Vague	2	30	34	13	46.4	61.3	42.5	30	13	34	46.4	42.5	61.3	2	0.665	0.000	R	34	61.3	1072.446	1074.835	1075.500	1075.503	0
2	22102701	303	High	1.5	Precise	1	30	34	25	46.4	61.3	12.7	34	25	30	61.3	12.7	46.4	2	0.492	0.000	L	34	61.3	1076.006	1078.849	1079.340	1079.342	0
2	22102701	304	High	1.5	Vague	2	36	30	11	44.4	46.4	5.2	36	11	30	44.4	5.2	46.4	1	0.788	0.000	L	36	44.4	1079.845	1081.304	1082.092	1082.095	0
2	22102701	305	High	1.5	Precise	1	34	26	23	61.3	88.2	4.4	26	34	23	88.2	61.3	4.4	2	0.619	0.000	L	26	88.2	1082.597	1084.033	1084.652	1084.655	0
2	22102701	306	High	1.5	Precise	1	36	34	28	44.4	61.3	30.0	36	28	34	44.4	30.0	61.3	2	0.689	0.000	R	34	61.3	1085.158	1086.883	1087.572	1087.574	0
2	22102701	307	High	1.5	Vague	2	30	26	4	46.4	88.2	11.0	26	30	4	88.2	46.4	11.0	2	0.746	0.000	L	26	88.2	1088.077	1088.674	1089.420	1089.423	0
2	22102701	308	High	1.5	Vague	2	30	32	13	46.4	54.6	42.5	30	13	32	46.4	42.5	54.6	2	0.713	0.000	R	32	54.6	1089.925	1092.908	1093.620	1093.623	0
2	22102701	309	High	1.5	Vague	2	32	26	3	54.6	88.2	5.8	32	26	3	54.6	88.2	5.8	1	1.093	0.000	L	32	54.6	1094.125	1094.695	1095.788	1095.790	0
2	22102701	310	High	1.5	Precise	1	36	26	25	44.4	88.2	12.7	26	25	36	88.2	12.7	44.4	2	0.534	0.000	L	26	88.2	1096.293	1098.206	1098.740	1098.742	0
2	22102701	311	High	1.5	Vague	2	30	34	4	46.4	61.3	11.0	4	30	34	11.0	46.4	61.3	2	0.647	0.000	R	34	61.3	1099.246	1100.885	1101.532	1101.534	0
2	22102701	312	High	1.5	Vague	2	34	26	4	61.3	88.2	11.0	26	4	34	88.2	11.0	61.3	2	0.769	0.000	L	26	88.2	1102.038	1103.307	1104.076	1104.078	0
2	22102701	313	High	1.5	Vague	2	32	33	11	54.6	90.0	5.2	32	33	11	54.6	90.0	5.2	2	0.888	0.000	D	33	90.0	1104.581	1107.252	1108.140	1108.143	0
2	22102701	314	High	1.5	Precise	1	30	26	28	46.4	88.2	30.0	30	28	26	46.4	30.0	88.2	2	0.816	0.001	R	26	88.2	1108.645	1110.829	1111.644	1111.647	0
2	22102701	315	High	1.5	Vague	2	36	33	4	44.4	90.0	11.0	33	36	4	90.0	44.4	11.0	2	0.610	0.001	L	33	90.0	1112.150	1114.299	1114.908	1114.911	0
2	22102701	316	High	1.5	Precise	1	36	32	23	44.4	54.6	4.4	32	36	23	54.6	44.4	4.4	1	0.897	0.000	D	36	44.4	1115.414	1117.428	1118.324	1118.327	0
2	22102701	317	High	1.5	Vague	2	36	30	4	44.4	46.4	11.0	4	30	36	11.0	46.4	44.4	1	0.925	0.000	R	36	44.4	1118.830	1119.383	1120.308	1120.310	0
2	22102701	318	High	1.5	Vague	2	36	30	3	44.4	46.4	5.8	30	36	3	46.4	44.4	5.8	2	1.230	0.000	L	30	46.4	1120.814	1121.982	1123.212	1123.215	0
2	22102701	319	High	1.5	Precise	1	26	33	21	88.2	90.0	7.5	26	33	21	88.2	90.0	7.5	2	0.624	0.000	D	33	90.0	1123.717	1126.436	1127.060	1127.063	0
2	22102701	320	High	1.5	Vague	2	34	33	3	61.3	90.0	5.8	33	34	3	90.0	61.3	5.8	2	0.607	0.000	L	33	90.0	1127.565	1129.117	1129.724	1129.726	0
2	22102701	321	High	1.5	Vague	2	36	26	3	44.4	88.2	5.8	3	26	36	5.8	88.2	44.4	1	0.835	0.000	R	36	44.4	1130.230	1131.889	1132.724	1132.726	0
2	22102701	322	High	1.5	Vague	2	30	32	8	46.4	54.6	16.9	32	8	30	54.6	16.9	46.4	2	1.166	0.000	L	32	54.6	1133.229	1134.263	1135.428	1135.431	0
2	22102701	323	High	1.5	Vague	2	32	33	3	54.6	90.0	5.8	3	33	32	5.8	90.0	54.6	1	0.589	0.000	R	32	54.6	1135.934	1138.183	1138.772	1138.775	0
2	22102701	324	High	1.5	Precise	1	36	30	28	44.4	46.4	30.0	28	30	36	30.0	46.4	44.4	1	0.996	0.001	R	36	44.4	1139.278	1141.297	1142.292	1142.295	0
2	22102701	325	High	1.5	Vague	2	34	33	4	61.3	90.0	11.0	4	33	34	11.0	90.0	61.3	2	0.640	0.000	D	33	90.0	1142.797	1145.356	1145.996	1145.998	0
2	22102701	326	High	1.5	Vague	2	36	32	4	44.4	54.6	11.0	36	32	4	44.4	54.6	11.0	1	1.133	0.001	L	36	44.4	1146.502	1147.047	1148.180	1148.183	0
2	22102701	327	High	1.5	Vague	2	36	33	8	44.4	90.0	16.9	36	8	33	44.4	16.9	90.0	2	0.681	0.001	R	33	90.0	1148.686	1151.620	1152.300	1152.303	0
2	22102701	328	High	1.5	Precise	1	36	30	21	44.4	46.4	7.5	36	21	30	44.4	7.5	46.4	1	0.714	0.000	L	36	44.4	1152.806	1155.105	1155.820	1155.822	0
2	22102701	329	High	1.5	Precise	1	32	26	28	54.6	88.2	30.0	32	28	26	54.6	30.0	88.2	2	0.860	0.000	R	26	88.2	1156.325	1157.760	1158.620	1158.622	0
2	22102701	330	High	1.5	Precise	1	26	33	23	88.2	90.0	4.4	33	26	23	90.0	88.2	4.4	2	0.634	0.000	L	33	90.0	1159.126	1160.306	1160.940	1160.943	0
2	22102701	331	High	1.5	Precise	1	36	34	23	44.4	61.3	4.4	23	34	36	4.4	61.3	44.4	1	0.681	0.000	R	36	44.4	1161.446	1163.026	1163.708	1163.710	0
2	22102701	332	High	1.5	Precise	1	34	26	21	61.3	88.2	7.5	26	34	21	88.2	61.3	7.5	1	0.866	0.001	D	34	61.3	1164.214	1164.722	1165.588	1165.591	0
2	22102701	333	High	1.5	Vague	2	30	34	3	46.4	61.3	5.8	30	3	34	46.4	5.8	61.3	2	1.135	0.001	R	34	61.3	1166.093	1168.205	1169.340	1169.343	0
2	22102701	334	High	1.5	Vague	2	36	34	11	44.4	61.3	5.2	34	11	36	61.3	5.2	44.4	2	0.923	0.000	L	34	61.3	1169.845	1170.705	1171.628	1171.630	0
2	22102701	335	High	1.5	Precise	1	30	33	20	46.4	90.0	8.7	20	30	33	8.7	46.4	90.0	2	0.614	0.001	R	33	90.0	1172.133	1174.631	1175.244	1175.247	0
2	22102701	336	High	1.5	Vague	2	30	33	13	46.4	90.0	42.5	33	13	30	90.0	42.5	46.4	2	0.602	0.000	L	33	90.0	1175.749	1178.514	1179.116	1179.118	0
2	22102701	337	High	1.5	Vague	2	30	33	8	46.4	90.0	16.9	30	33	8	46.4	90.0	16.9	2	1.010	0.000	D	33	90.0	1179.621	1180.139	1181.148	1181.151	0
2	22102701	338	High	1.5	Vague	2	26	33	4	88.2	90.0	11.0	26	33	4	88.2	90.0	11.0	2	0.800	0.000	D	33	90.0	1181.654	1183.460	1184.260	1184.262	0
2	22102701	339	High	1.5	Precise	1	26	33	28	88.2	90.0	30.0	33	26	28	90.0	88.2	30.0	2	1.097	0.000	L	33	90.0	1184.766	1185.539	1186.636	1186.639	0
2	22102701	340	High	1.5	Vague	2	36	30	13	44.4	46.4	42.5	30	13	36	46.4	42.5	44.4	1	0.703	0.000	R	36	44.4	1187.142	1190.037	1190.740	1190.743	0
2	22102701	341	High	1.5	Vague	2	34	26	13	61.3	88.2	42.5	34	26	13	61.3	88.2	42.5	1	0.825	0.000	L	34	61.3	1191.245	1192.547	1193.372	1193.374	0
2	22102701	342	High	1.5	Vague	2	36	32	7	44.4	54.6	6.6	7	36	32	6.6	44.4	54.6	1	1.135	0.000	D	36	44.4	1193.877	1195.685	1196.820	1196.823	0
2	22102701	343	High	1.5	Vague	2	34	26	7	61.3	88.2	6.6	34	7	26	61.3	6.6	88.2	2	0.640	0.000	R	26	88.2	1197.326	1198.812	1199.452	1199.454	0
2	22102701	344	High	1.5	Vague	2	32	33	4	54.6	90.0	11.0	33	32	4	90.0	54.6	11.0	2	0.729	0.000	L	33	90.0	1199.958	1202.691	1203.420	1203.423	0
2	22102701	345	High	1.5	Vague	2	26	33	11	88.2	90.0	5.2	26	33	11	88.2	90.0	5.2	2	0.956	0.001	D	33	90.0	1203.925	1205.777	1206.732	1206.735	0
2	22102701	346	High	1.5	Precise	1	30	32	23	46.4	54.6	4.4	23	30	32	4.4	46.4	54.6	2	0.920	0.000	R	32	54.6	1207.237	1208.860	1209.780	1209.782	0
2	22102701	347	High	1.5	Vague	2	36	34	8	44.4	61.3	16.9	8	36	34	16.9	44.4	61.3	2	0.768	0.000	R	34	61.3	1210.285	1212.876	1213.644	1213.646	0
2	22102701	348	High	1.5	Precise	1	36	33	20	44.4	90.0	8.7	33	20	36	90.0	8.7	44.4	2	0.571	0.001	L	33	90.0	1214.149	1215.530	1216.100	1216.103	0
2	22102701	349	High	1.5	Vague	2	34	26	8	61.3	88.2	16.9	34	8	26	61.3	16.9	88.2	2	0.676	0.000	R	26	88.2	1216.606	1218.640	1219.316	1219.319	0
2	22102701	350	High	1.5	Precise	1	32	34	23	54.6	61.3	4.4	23	34	32	4.4	61.3	54.6	2	0.890	0.000	D	34	61.3	1219.821	1222.786	1223.676	1223.679	0
2	22102701	351	High	1.5	Vague	2	36	26	13	44.4	88.2	42.5	13	36	26	42.5	44.4	88.2	2	0.622	0.000	R	26	88.2	1224.182	1225.526	1226.148	1226.151	0
2	22102701	352	High	1.5	Precise	1	36	30	24	44.4	46.4	2.7	30	24	36	46.4	2.7	44.4	1	0.606	0.000	R	36	44.4	1226.654	1228.718	1229.324	1229.326	0
2	22102701	353	High	1.5	Vague	2	36	34	7	44.4	61.3	6.6	36	34	7	44.4	61.3	6.6	1	0.835	0.001	L	36	44.4	1229.829	1231.033	1231.868	1231.871	0
2	22102701	354	High	1.5	Vague	2	30	34	8	46.4	61.3	16.9	8	34	30	16.9	61.3	46.4	2	0.744	0.001	D	34	61.3	1232.374	1232.940	1233.684	1233.687	0
2	22102701	355	High	1.5	Vague	2	30	26	7	46.4	88.2	6.6	30	26	7	46.4	88.2	6.6	2	0.715	0.001	D	26	88.2	1234.190	1236.826	1237.540	1237.543	0
2	22102701	356	High	1.5	Precise	1	36	33	24	44.4	90.0	2.7	36	33	24	44.4	90.0	2.7	2	0.701	0.001	D	33	90.0	1238.045	1239.927	1240.628	1240.631	0
2	22102701	357	High	1.5	Vague	2	36	33	13	44.4	90.0	42.5	13	33	36	42.5	90.0	44.4	2	0.653	0.000	D	33	90.0	1241.134	1241.912	1242.564	1242.567	0
2	22102701	358	High	1.5	Precise	1	26	33	20	88.2	90.0	8.7	33	20	26	90.0	8.7	88.2	2	0.970	0.000	L	33	90.0	1243.070	1244.138	1245.108	1245.110	0
2	22102701	359	High	1.5	Precise	1	32	34	21	54.6	61.3	7.5	32	34	21	54.6	61.3	7.5	1	0.975	0.000	L	32	54.6	1245.613	1248.046	1249.020	1249.023	0
2	22102701	360	High	1.5	Precise	1	32	33	24	54.6	90.0	2.7	32	24	33	54.6	2.7	90.0	2	0.658	0.000	R	33	90.0	1249.526	1252.138	1252.796	1252.798	0
