Group	subID	trial	TimePressure	TimeConstraint	Vagueness	Vaguenesscode	ID1	ID2	ID3	V1	V2	V3	ID_left	ID_middle	ID_right	Bid_left	Bid_middle	Bid_right	chosenItem	RT	RTvariance	chosenPosition	chosenID	chosenValue	fixation_time	option_time	choice_time	feedback_time	timeout
1	22102409	1	Low	10.0	Precise	1	12	17	3	16.6	26.7	1.0	3	12	17	1.0	16.6	26.7	2	1.310	0.000	R	17	26.7	3.592	6.384	7.694	7.698	0
1	22102409	2	Low	10.0	Precise	1	15	17	11	19.6	26.7	1.9	15	11	17	19.6	1.9	26.7	2	0.669	0.001	R	17	26.7	8.202	9.057	9.726	9.729	0
1	22102409	3	Low	10.0	Vague	2	18	15	30	14.5	19.6	4.2	18	15	30	14.5	19.6	4.2	2	0.879	0.001	D	15	19.6	10.234	12.535	13.414	13.417	0
1	22102409	4	Low	10.0	Vague	2	10	15	21	18.6	19.6	0.1	21	15	10	0.1	19.6	18.6	1	0.629	0.000	R	10	18.6	13.921	14.993	15.622	15.625	0
1	22102409	5	Low	10.0	Precise	1	8	18	11	5.6	14.5	1.9	18	11	8	14.5	1.9	5.6	3	0.830	0.001	D	11	1.9	16.130	17.016	17.846	17.851	0
1	22102409	6	Low	10.0	Vague	2	18	12	21	14.5	16.6	0.1	12	21	18	16.6	0.1	14.5	3	0.734	0.000	D	21	0.1	18.357	20.328	21.062	21.064	0
1	22102409	7	Low	10.0	Precise	1	18	15	3	14.5	19.6	1.0	18	15	3	14.5	19.6	1.0	2	0.846	0.000	D	15	19.6	21.567	24.096	24.942	24.945	0
1	22102409	8	Low	10.0	Vague	2	18	10	21	14.5	18.6	0.1	21	18	10	0.1	14.5	18.6	2	0.765	0.000	R	10	18.6	25.447	27.585	28.350	28.353	0
1	22102409	9	Low	10.0	Vague	2	8	15	21	5.6	19.6	0.1	8	21	15	5.6	0.1	19.6	2	0.795	0.001	R	15	19.6	28.856	31.579	32.374	32.377	0
1	22102409	10	Low	10.0	Vague	2	8	12	23	5.6	16.6	0.6	12	8	23	16.6	5.6	0.6	2	0.902	0.001	L	12	16.6	32.879	35.473	36.374	36.379	0
1	22102409	11	Low	10.0	Precise	1	8	18	3	5.6	14.5	1.0	3	18	8	1.0	14.5	5.6	1	0.736	0.000	R	8	5.6	36.882	38.174	38.910	38.912	0
1	22102409	12	Low	10.0	Precise	1	18	10	9	14.5	18.6	2.3	9	10	18	2.3	18.6	14.5	2	0.592	0.000	D	10	18.6	39.415	40.790	41.382	41.384	0
1	22102409	13	Low	10.0	Vague	2	15	17	30	19.6	26.7	4.2	17	30	15	26.7	4.2	19.6	1	0.488	0.000	R	15	19.6	41.887	43.614	44.102	44.105	0
1	22102409	14	Low	10.0	Vague	2	10	17	32	18.6	26.7	3.1	32	17	10	3.1	26.7	18.6	2	0.521	0.001	D	17	26.7	44.607	46.446	46.966	46.969	0
1	22102409	15	Low	10.0	Vague	2	8	15	25	5.6	19.6	1.1	15	8	25	19.6	5.6	1.1	1	0.481	0.000	D	8	5.6	47.471	48.997	49.478	49.481	0
1	22102409	16	Low	10.0	Vague	2	15	17	21	19.6	26.7	0.1	15	21	17	19.6	0.1	26.7	1	0.565	0.001	L	15	19.6	49.984	51.969	52.534	52.537	0
1	22102409	17	Low	10.0	Vague	2	8	18	32	5.6	14.5	3.1	8	18	32	5.6	14.5	3.1	3	0.585	0.000	R	32	3.1	53.040	55.668	56.254	56.257	0
1	22102409	18	Low	10.0	Vague	2	10	17	19	18.6	26.7	0.2	17	10	19	26.7	18.6	0.2	2	0.526	0.000	L	17	26.7	56.759	58.071	58.598	58.600	0
1	22102409	19	Low	10.0	Vague	2	15	17	23	19.6	26.7	0.6	17	15	23	26.7	19.6	0.6	1	0.532	0.001	D	15	19.6	59.103	61.154	61.686	61.688	0
1	22102409	20	Low	10.0	Precise	1	12	17	14	16.6	26.7	4.6	12	17	14	16.6	26.7	4.6	2	0.412	0.000	D	17	26.7	62.192	62.986	63.398	63.400	0
1	22102409	21	Low	10.0	Vague	2	10	17	21	18.6	26.7	0.1	10	21	17	18.6	0.1	26.7	2	0.519	0.001	R	17	26.7	63.903	65.671	66.190	66.192	0
1	22102409	22	Low	10.0	Precise	1	10	17	3	18.6	26.7	1.0	10	3	17	18.6	1.0	26.7	2	0.517	0.001	R	17	26.7	66.695	68.521	69.038	69.041	0
1	22102409	23	Low	10.0	Precise	1	8	18	9	5.6	14.5	2.3	9	18	8	2.3	14.5	5.6	2	0.649	0.001	D	18	14.5	69.543	70.557	71.206	71.209	0
1	22102409	24	Low	10.0	Precise	1	8	10	9	5.6	18.6	2.3	8	9	10	5.6	2.3	18.6	2	0.589	0.000	R	10	18.6	71.711	72.433	73.022	73.024	0
1	22102409	25	Low	10.0	Vague	2	8	12	32	5.6	16.6	3.1	32	8	12	3.1	5.6	16.6	1	0.656	0.000	D	8	5.6	73.527	75.174	75.830	75.832	0
1	22102409	26	Low	10.0	Vague	2	10	17	30	18.6	26.7	4.2	30	17	10	4.2	26.7	18.6	2	0.538	0.001	D	17	26.7	76.336	77.365	77.902	77.905	0
1	22102409	27	Low	10.0	Vague	2	18	17	19	14.5	26.7	0.2	19	18	17	0.2	14.5	26.7	2	0.408	0.001	R	17	26.7	78.407	80.678	81.086	81.089	0
1	22102409	28	Low	10.0	Precise	1	18	15	14	14.5	19.6	4.6	18	14	15	14.5	4.6	19.6	3	0.495	0.000	D	14	4.6	81.592	83.528	84.022	84.025	0
1	22102409	29	Low	10.0	Vague	2	12	10	23	16.6	18.6	0.6	12	10	23	16.6	18.6	0.6	2	0.531	0.001	D	10	18.6	84.528	85.659	86.190	86.192	0
1	22102409	30	Low	10.0	Vague	2	18	15	21	14.5	19.6	0.1	15	21	18	19.6	0.1	14.5	2	0.338	0.001	L	15	19.6	86.695	89.516	89.854	89.857	0
1	22102409	31	Low	10.0	Precise	1	12	10	2	16.6	18.6	0.2	10	2	12	18.6	0.2	16.6	1	0.644	0.001	R	12	16.6	90.359	91.714	92.358	92.360	0
1	22102409	32	Low	10.0	Vague	2	12	15	23	16.6	19.6	0.6	12	15	23	16.6	19.6	0.6	2	0.705	0.000	D	15	19.6	92.864	95.404	96.110	96.112	0
1	22102409	33	Low	10.0	Precise	1	18	10	5	14.5	18.6	0.8	5	18	10	0.8	14.5	18.6	2	0.548	0.001	R	10	18.6	96.615	97.754	98.302	98.304	0
1	22102409	34	Low	10.0	Precise	1	8	15	9	5.6	19.6	2.3	8	9	15	5.6	2.3	19.6	2	0.630	0.000	R	15	19.6	98.807	101.592	102.222	102.225	0
1	22102409	35	Low	10.0	Precise	1	8	10	14	5.6	18.6	4.6	8	14	10	5.6	4.6	18.6	3	0.607	0.001	D	14	4.6	102.728	104.583	105.190	105.193	0
1	22102409	36	Low	10.0	Precise	1	8	15	2	5.6	19.6	0.2	2	8	15	0.2	5.6	19.6	2	0.533	0.000	R	15	19.6	105.696	107.113	107.646	107.648	0
1	22102409	37	Low	10.0	Vague	2	18	15	19	14.5	19.6	0.2	19	15	18	0.2	19.6	14.5	2	0.472	0.000	D	15	19.6	108.151	110.854	111.326	111.328	0
1	22102409	38	Low	10.0	Vague	2	18	15	32	14.5	19.6	3.1	32	18	15	3.1	14.5	19.6	2	0.445	0.000	R	15	19.6	111.832	113.633	114.078	114.081	0
1	22102409	39	Low	10.0	Precise	1	8	17	11	5.6	26.7	1.9	8	11	17	5.6	1.9	26.7	2	0.431	0.001	R	17	26.7	114.583	115.983	116.414	116.417	0
1	22102409	40	Low	10.0	Vague	2	8	10	32	5.6	18.6	3.1	10	8	32	18.6	5.6	3.1	1	0.526	0.001	D	8	5.6	116.919	118.176	118.702	118.705	0
1	22102409	41	Low	10.0	Precise	1	12	17	9	16.6	26.7	2.3	17	9	12	26.7	2.3	16.6	2	0.603	0.001	L	17	26.7	119.208	120.715	121.318	121.321	0
1	22102409	42	Low	10.0	Precise	1	8	10	3	5.6	18.6	1.0	10	3	8	18.6	1.0	5.6	3	0.836	0.000	D	3	1.0	121.824	123.026	123.862	123.864	0
1	22102409	43	Low	10.0	Vague	2	8	18	19	5.6	14.5	0.2	8	18	19	5.6	14.5	0.2	2	0.623	0.001	D	18	14.5	124.367	127.031	127.654	127.657	0
1	22102409	44	Low	10.0	Precise	1	8	12	11	5.6	16.6	1.9	8	12	11	5.6	16.6	1.9	3	0.551	0.001	R	11	1.9	128.160	129.056	129.606	129.608	0
1	22102409	45	Low	10.0	Vague	2	15	17	19	19.6	26.7	0.2	17	15	19	26.7	19.6	0.2	2	0.474	0.001	L	17	26.7	130.112	130.908	131.382	131.385	0
1	22102409	46	Low	10.0	Precise	1	12	10	5	16.6	18.6	0.8	12	10	5	16.6	18.6	0.8	2	0.606	0.001	D	10	18.6	131.887	132.864	133.470	133.473	0
1	22102409	47	Low	10.0	Precise	1	15	17	5	19.6	26.7	0.8	5	17	15	0.8	26.7	19.6	2	0.530	0.001	D	17	26.7	133.976	135.508	136.038	136.041	0
1	22102409	48	Low	10.0	Precise	1	18	15	11	14.5	19.6	1.9	18	15	11	14.5	19.6	1.9	3	0.548	0.001	R	11	1.9	136.544	138.603	139.150	139.152	0
1	22102409	49	Low	10.0	Precise	1	18	17	11	14.5	26.7	1.9	18	11	17	14.5	1.9	26.7	2	0.539	0.001	R	17	26.7	139.655	140.203	140.742	140.745	0
1	22102409	50	Low	10.0	Precise	1	8	18	2	5.6	14.5	0.2	2	18	8	0.2	14.5	5.6	2	0.565	0.001	D	18	14.5	141.247	143.833	144.398	144.400	0
1	22102409	51	Low	10.0	Precise	1	8	15	14	5.6	19.6	4.6	8	15	14	5.6	19.6	4.6	1	0.719	0.001	L	8	5.6	144.903	146.120	146.838	146.841	0
1	22102409	52	Low	10.0	Precise	1	18	17	2	14.5	26.7	0.2	18	2	17	14.5	0.2	26.7	2	0.495	0.000	R	17	26.7	147.344	148.295	148.790	148.792	0
1	22102409	53	Low	10.0	Precise	1	8	17	3	5.6	26.7	1.0	8	3	17	5.6	1.0	26.7	2	0.415	0.000	R	17	26.7	149.295	150.367	150.782	150.784	0
1	22102409	54	Low	10.0	Precise	1	8	10	5	5.6	18.6	0.8	8	5	10	5.6	0.8	18.6	3	0.634	0.000	D	5	0.8	151.287	154.092	154.726	154.728	0
1	22102409	55	Low	10.0	Vague	2	8	17	23	5.6	26.7	0.6	17	8	23	26.7	5.6	0.6	2	0.495	0.000	L	17	26.7	155.231	157.479	157.974	157.976	0
1	22102409	56	Low	10.0	Vague	2	8	10	25	5.6	18.6	1.1	25	8	10	1.1	5.6	18.6	1	0.518	0.001	D	8	5.6	158.479	160.872	161.390	161.393	0
1	22102409	57	Low	10.0	Precise	1	12	10	14	16.6	18.6	4.6	14	10	12	4.6	18.6	16.6	1	0.000	1.995	R	12	16.6	161.895	163.385	163.385	163.390	0
1	22102409	58	Low	10.0	Vague	2	12	17	19	16.6	26.7	0.2	17	12	19	26.7	16.6	0.2	2	0.471	0.000	L	17	26.7	163.893	166.839	167.310	167.312	0
1	22102409	59	Low	10.0	Vague	2	8	12	25	5.6	16.6	1.1	8	12	25	5.6	16.6	1.1	2	0.535	0.001	D	12	16.6	167.815	169.775	170.310	170.313	0
1	22102409	60	Low	10.0	Vague	2	12	17	32	16.6	26.7	3.1	12	32	17	16.6	3.1	26.7	2	0.529	0.000	R	17	26.7	170.816	171.501	172.030	172.032	0
1	22102409	61	Low	10.0	Vague	2	8	18	21	5.6	14.5	0.1	21	18	8	0.1	14.5	5.6	2	0.638	0.001	D	18	14.5	186.587	187.648	188.286	188.289	0
1	22102409	62	Low	10.0	Precise	1	18	15	2	14.5	19.6	0.2	15	18	2	19.6	14.5	0.2	1	0.544	0.001	D	18	14.5	188.792	191.046	191.590	191.592	0
1	22102409	63	Low	10.0	Vague	2	18	12	19	14.5	16.6	0.2	12	18	19	16.6	14.5	0.2	1	0.537	0.001	D	18	14.5	192.096	194.501	195.038	195.040	0
1	22102409	64	Low	10.0	Precise	1	18	15	9	14.5	19.6	2.3	15	18	9	19.6	14.5	2.3	2	0.639	0.000	L	15	19.6	195.543	196.910	197.550	197.552	0
1	22102409	65	Low	10.0	Vague	2	12	15	21	16.6	19.6	0.1	12	21	15	16.6	0.1	19.6	2	0.481	0.000	R	15	19.6	198.055	199.381	199.862	199.864	0
1	22102409	66	Low	10.0	Precise	1	10	17	11	18.6	26.7	1.9	10	17	11	18.6	26.7	1.9	2	0.535	0.001	D	17	26.7	200.367	201.127	201.662	201.665	0
1	22102409	67	Low	10.0	Precise	1	8	10	11	5.6	18.6	1.9	8	11	10	5.6	1.9	18.6	3	0.608	0.001	D	11	1.9	202.168	204.790	205.398	205.401	0
1	22102409	68	Low	10.0	Vague	2	18	10	30	14.5	18.6	4.2	30	10	18	4.2	18.6	14.5	2	0.432	0.001	D	10	18.6	205.903	207.126	207.558	207.561	0
1	22102409	69	Low	10.0	Precise	1	10	17	9	18.6	26.7	2.3	10	9	17	18.6	2.3	26.7	3	0.356	0.001	D	9	2.3	208.063	210.122	210.478	210.480	0
1	22102409	70	Low	10.0	Vague	2	10	15	30	18.6	19.6	4.2	30	10	15	4.2	18.6	19.6	2	0.588	0.001	R	15	19.6	210.983	213.178	213.766	213.768	0
1	22102409	71	Low	10.0	Vague	2	18	10	19	14.5	18.6	0.2	19	10	18	0.2	18.6	14.5	2	0.463	0.001	D	10	18.6	214.271	215.863	216.326	216.328	0
1	22102409	72	Low	10.0	Precise	1	10	17	14	18.6	26.7	4.6	14	17	10	4.6	26.7	18.6	2	0.548	0.001	D	17	26.7	216.831	217.458	218.006	218.008	0
1	22102409	73	Low	10.0	Precise	1	12	15	11	16.6	19.6	1.9	11	15	12	1.9	19.6	16.6	2	0.873	0.000	D	15	19.6	218.511	220.293	221.166	221.168	0
1	22102409	74	Low	10.0	Precise	1	12	15	2	16.6	19.6	0.2	2	15	12	0.2	19.6	16.6	2	0.555	0.001	D	15	19.6	221.671	223.107	223.662	223.664	0
1	22102409	75	Low	10.0	Precise	1	18	17	5	14.5	26.7	0.8	17	5	18	26.7	0.8	14.5	2	0.631	0.001	L	17	26.7	224.167	225.375	226.006	226.008	0
1	22102409	76	Low	10.0	Precise	1	10	17	2	18.6	26.7	0.2	10	2	17	18.6	0.2	26.7	2	0.494	0.001	R	17	26.7	226.511	228.216	228.710	228.712	0
1	22102409	77	Low	10.0	Vague	2	8	10	19	5.6	18.6	0.2	10	19	8	18.6	0.2	5.6	2	0.909	0.001	L	10	18.6	229.215	232.137	233.046	233.049	0
1	22102409	78	Low	10.0	Precise	1	18	15	5	14.5	19.6	0.8	15	5	18	19.6	0.8	14.5	2	0.566	0.000	L	15	19.6	233.552	235.576	236.142	236.144	0
1	22102409	79	Low	10.0	Precise	1	18	12	3	14.5	16.6	1.0	18	12	3	14.5	16.6	1.0	2	0.376	0.001	D	12	16.6	236.647	237.894	238.270	238.273	0
1	22102409	80	Low	10.0	Vague	2	8	17	19	5.6	26.7	0.2	17	8	19	26.7	5.6	0.2	1	0.448	0.000	D	8	5.6	238.776	239.654	240.102	240.104	0
1	22102409	81	Low	10.0	Precise	1	10	15	14	18.6	19.6	4.6	10	14	15	18.6	4.6	19.6	3	0.707	0.001	D	14	4.6	240.608	241.979	242.686	242.688	0
1	22102409	82	Low	10.0	Vague	2	12	15	32	16.6	19.6	3.1	32	15	12	3.1	19.6	16.6	2	0.744	0.001	D	15	19.6	243.191	245.142	245.886	245.888	0
1	22102409	83	Low	10.0	Vague	2	12	10	32	16.6	18.6	3.1	32	12	10	3.1	16.6	18.6	1	0.841	0.001	D	12	16.6	246.391	248.869	249.710	249.712	0
1	22102409	84	Low	10.0	Vague	2	18	10	23	14.5	18.6	0.6	23	18	10	0.6	14.5	18.6	3	0.405	0.001	L	23	0.6	250.215	252.089	252.494	252.496	0
1	22102409	85	Low	10.0	Precise	1	12	10	11	16.6	18.6	1.9	10	11	12	18.6	1.9	16.6	3	0.679	0.001	D	11	1.9	252.999	254.135	254.814	254.816	0
1	22102409	86	Low	10.0	Precise	1	18	17	14	14.5	26.7	4.6	17	14	18	26.7	4.6	14.5	2	0.417	0.000	L	17	26.7	255.319	257.924	258.341	258.344	0
1	22102409	87	Low	10.0	Vague	2	12	10	19	16.6	18.6	0.2	12	10	19	16.6	18.6	0.2	2	0.675	0.001	D	10	18.6	258.847	259.675	260.350	260.352	0
1	22102409	88	Low	10.0	Precise	1	18	12	11	14.5	16.6	1.9	12	18	11	16.6	14.5	1.9	1	0.758	0.000	D	18	14.5	260.855	261.832	262.590	262.592	0
1	22102409	89	Low	10.0	Vague	2	8	12	30	5.6	16.6	4.2	12	30	8	16.6	4.2	5.6	2	0.935	0.001	L	12	16.6	263.095	265.135	266.070	266.072	0
1	22102409	90	Low	10.0	Precise	1	12	10	3	16.6	18.6	1.0	3	12	10	1.0	16.6	18.6	1	0.545	0.000	D	12	16.6	266.575	268.565	269.110	269.112	0
1	22102409	91	Low	10.0	Vague	2	18	17	25	14.5	26.7	1.1	18	17	25	14.5	26.7	1.1	2	0.537	0.000	D	17	26.7	269.615	272.477	273.014	273.016	0
1	22102409	92	Low	10.0	Precise	1	10	15	5	18.6	19.6	0.8	15	5	10	19.6	0.8	18.6	3	0.538	0.001	D	5	0.8	273.518	276.316	276.854	276.856	0
1	22102409	93	Low	10.0	Precise	1	18	10	11	14.5	18.6	1.9	10	18	11	18.6	14.5	1.9	3	0.852	0.001	R	11	1.9	277.359	278.346	279.198	279.200	0
1	22102409	94	Low	10.0	Vague	2	8	15	30	5.6	19.6	4.2	30	15	8	4.2	19.6	5.6	3	0.602	0.000	L	30	4.2	279.703	281.427	282.029	282.032	0
1	22102409	95	Low	10.0	Vague	2	18	17	21	14.5	26.7	0.1	21	17	18	0.1	26.7	14.5	2	0.555	0.000	D	17	26.7	282.535	283.283	283.838	283.840	0
1	22102409	96	Low	10.0	Vague	2	18	10	25	14.5	18.6	1.1	10	25	18	18.6	1.1	14.5	3	0.633	0.001	D	25	1.1	284.343	286.229	286.862	286.865	0
1	22102409	97	Low	10.0	Vague	2	8	18	25	5.6	14.5	1.1	25	18	8	1.1	14.5	5.6	1	0.549	0.001	R	8	5.6	287.368	288.832	289.382	289.385	0
1	22102409	98	Low	10.0	Precise	1	8	15	3	5.6	19.6	1.0	8	15	3	5.6	19.6	1.0	1	0.438	0.000	L	8	5.6	289.888	291.048	291.486	291.488	0
1	22102409	99	Low	10.0	Precise	1	15	17	14	19.6	26.7	4.6	14	15	17	4.6	19.6	26.7	2	0.605	0.000	R	17	26.7	291.991	293.072	293.678	293.680	0
1	22102409	100	Low	10.0	Precise	1	8	12	2	5.6	16.6	0.2	12	8	2	16.6	5.6	0.2	1	0.628	0.001	D	8	5.6	294.183	295.282	295.910	295.912	0
1	22102409	101	Low	10.0	Vague	2	18	15	25	14.5	19.6	1.1	15	18	25	19.6	14.5	1.1	2	0.367	0.001	L	15	19.6	296.415	297.687	298.054	298.056	0
1	22102409	102	Low	10.0	Vague	2	10	15	32	18.6	19.6	3.1	32	10	15	3.1	18.6	19.6	2	0.259	0.001	R	15	19.6	298.560	300.483	300.742	300.744	0
1	22102409	103	Low	10.0	Vague	2	12	15	19	16.6	19.6	0.2	15	19	12	19.6	0.2	16.6	2	0.559	0.001	L	15	19.6	301.247	303.399	303.958	303.960	0
1	22102409	104	Low	10.0	Vague	2	8	10	21	5.6	18.6	0.1	8	21	10	5.6	0.1	18.6	1	0.477	0.001	L	8	5.6	304.463	306.441	306.918	306.920	0
1	22102409	105	Low	10.0	Precise	1	8	18	14	5.6	14.5	4.6	8	14	18	5.6	4.6	14.5	2	0.107	0.001	R	18	14.5	307.423	308.803	308.910	308.912	0
1	22102409	106	Low	10.0	Vague	2	8	17	30	5.6	26.7	4.2	17	30	8	26.7	4.2	5.6	2	1.197	0.001	L	17	26.7	309.415	312.233	313.430	313.432	0
1	22102409	107	Low	10.0	Vague	2	18	12	23	14.5	16.6	0.6	12	18	23	16.6	14.5	0.6	1	0.489	0.001	D	18	14.5	313.935	316.581	317.070	317.072	0
1	22102409	108	Low	10.0	Precise	1	10	15	11	18.6	19.6	1.9	11	15	10	1.9	19.6	18.6	3	0.512	0.001	L	11	1.9	317.575	319.294	319.806	319.808	0
1	22102409	109	Low	10.0	Vague	2	10	15	23	18.6	19.6	0.6	23	15	10	0.6	19.6	18.6	1	0.568	0.000	R	10	18.6	320.311	321.934	322.502	322.504	0
1	22102409	110	Low	10.0	Precise	1	8	17	5	5.6	26.7	0.8	17	5	8	26.7	0.8	5.6	2	0.442	0.001	L	17	26.7	323.007	325.620	326.062	326.064	0
1	22102409	111	Low	10.0	Vague	2	18	12	32	14.5	16.6	3.1	18	32	12	14.5	3.1	16.6	1	0.416	0.001	L	18	14.5	326.567	327.902	328.318	328.320	0
1	22102409	112	Low	10.0	Precise	1	18	10	3	14.5	18.6	1.0	3	18	10	1.0	14.5	18.6	1	0.588	0.001	D	18	14.5	328.823	331.602	332.190	332.192	0
1	22102409	113	Low	10.0	Vague	2	12	17	25	16.6	26.7	1.1	17	25	12	26.7	1.1	16.6	2	0.429	0.001	L	17	26.7	332.695	335.545	335.974	335.976	0
1	22102409	114	Low	10.0	Vague	2	10	15	19	18.6	19.6	0.2	15	19	10	19.6	0.2	18.6	3	0.487	0.000	D	19	0.2	336.479	337.766	338.253	338.256	0
1	22102409	115	Low	10.0	Vague	2	18	15	23	14.5	19.6	0.6	18	15	23	14.5	19.6	0.6	2	0.540	0.000	D	15	19.6	338.758	339.945	340.486	340.488	0
1	22102409	116	Low	10.0	Vague	2	18	12	30	14.5	16.6	4.2	12	18	30	16.6	14.5	4.2	2	0.484	0.001	L	12	16.6	340.991	343.466	343.950	343.952	0
1	22102409	117	Low	10.0	Precise	1	18	12	14	14.5	16.6	4.6	12	18	14	16.6	14.5	4.6	3	0.875	0.000	R	14	4.6	344.455	347.011	347.886	347.888	0
1	22102409	118	Low	10.0	Vague	2	18	17	32	14.5	26.7	3.1	17	32	18	26.7	3.1	14.5	2	0.469	0.001	L	17	26.7	348.391	351.176	351.646	351.648	0
1	22102409	119	Low	10.0	Precise	1	8	18	5	5.6	14.5	0.8	18	5	8	14.5	0.8	5.6	1	0.561	0.000	R	8	5.6	352.151	353.052	353.613	353.616	0
1	22102409	120	Low	10.0	Precise	1	8	17	2	5.6	26.7	0.2	17	8	2	26.7	5.6	0.2	1	0.450	0.001	D	8	5.6	354.119	355.236	355.686	355.688	0
1	22102409	121	Low	10.0	Vague	2	12	10	21	16.6	18.6	0.1	12	10	21	16.6	18.6	0.1	2	0.581	0.000	D	10	18.6	369.582	372.553	373.134	373.136	0
1	22102409	122	Low	10.0	Vague	2	8	17	25	5.6	26.7	1.1	8	25	17	5.6	1.1	26.7	2	0.489	0.001	R	17	26.7	373.639	375.949	376.438	376.440	0
1	22102409	123	Low	10.0	Vague	2	8	18	23	5.6	14.5	0.6	8	18	23	5.6	14.5	0.6	2	0.585	0.001	D	18	14.5	376.943	379.101	379.686	379.688	0
1	22102409	124	Low	10.0	Precise	1	8	17	9	5.6	26.7	2.3	17	8	9	26.7	5.6	2.3	2	0.530	0.001	L	17	26.7	380.191	382.540	383.070	383.072	0
1	22102409	125	Low	10.0	Vague	2	12	10	25	16.6	18.6	1.1	10	12	25	18.6	16.6	1.1	2	0.673	0.000	L	10	18.6	383.575	384.324	384.997	385.000	0
1	22102409	126	Low	10.0	Precise	1	18	12	9	14.5	16.6	2.3	18	9	12	14.5	2.3	16.6	2	0.694	0.001	R	12	16.6	385.502	387.240	387.934	387.936	0
1	22102409	127	Low	10.0	Precise	1	8	15	5	5.6	19.6	0.8	5	8	15	0.8	5.6	19.6	1	0.391	0.001	D	8	5.6	388.439	389.335	389.726	389.728	0
1	22102409	128	Low	10.0	Vague	2	18	17	23	14.5	26.7	0.6	17	18	23	26.7	14.5	0.6	2	0.465	0.001	L	17	26.7	390.231	392.717	393.182	393.184	0
1	22102409	129	Low	10.0	Precise	1	18	12	5	14.5	16.6	0.8	5	18	12	0.8	14.5	16.6	2	0.365	0.000	R	12	16.6	393.687	395.664	396.029	396.032	0
1	22102409	130	Low	10.0	Precise	1	12	17	11	16.6	26.7	1.9	17	12	11	26.7	16.6	1.9	2	0.442	0.001	L	17	26.7	396.534	397.844	398.286	398.288	0
1	22102409	131	Low	10.0	Precise	1	18	10	2	14.5	18.6	0.2	18	10	2	14.5	18.6	0.2	3	0.508	0.000	R	2	0.2	398.791	399.985	400.493	400.496	0
1	22102409	132	Low	10.0	Precise	1	18	17	9	14.5	26.7	2.3	18	9	17	14.5	2.3	26.7	3	0.362	0.001	D	9	2.3	400.998	403.692	404.054	404.056	0
1	22102409	133	Low	10.0	Vague	2	12	15	25	16.6	19.6	1.1	12	25	15	16.6	1.1	19.6	1	0.458	0.000	L	12	16.6	404.559	407.276	407.733	407.736	0
1	22102409	134	Low	10.0	Vague	2	15	17	32	19.6	26.7	3.1	15	32	17	19.6	3.1	26.7	2	0.383	0.001	R	17	26.7	408.238	411.198	411.582	411.584	0
1	22102409	135	Low	10.0	Precise	1	8	12	9	5.6	16.6	2.3	8	9	12	5.6	2.3	16.6	1	0.465	0.001	L	8	5.6	412.086	413.412	413.878	413.880	0
1	22102409	136	Low	10.0	Precise	1	12	17	5	16.6	26.7	0.8	5	17	12	0.8	26.7	16.6	2	0.480	0.001	D	17	26.7	414.383	415.966	416.446	416.448	0
1	22102409	137	Low	10.0	Precise	1	8	12	5	5.6	16.6	0.8	8	5	12	5.6	0.8	16.6	1	0.330	0.001	L	8	5.6	416.951	417.980	418.310	418.312	0
1	22102409	138	Low	10.0	Vague	2	8	15	23	5.6	19.6	0.6	8	15	23	5.6	19.6	0.6	2	0.471	0.001	D	15	19.6	418.815	421.079	421.550	421.552	0
1	22102409	139	Low	10.0	Vague	2	12	17	23	16.6	26.7	0.6	17	23	12	26.7	0.6	16.6	2	0.471	0.000	L	17	26.7	422.055	422.983	423.454	423.456	0
1	22102409	140	Low	10.0	Vague	2	8	18	30	5.6	14.5	4.2	18	8	30	14.5	5.6	4.2	2	0.449	0.000	L	18	14.5	423.960	426.789	427.237	427.240	0
1	22102409	141	Low	10.0	Precise	1	15	17	2	19.6	26.7	0.2	15	2	17	19.6	0.2	26.7	2	0.396	0.001	R	17	26.7	427.743	429.058	429.454	429.456	0
1	22102409	142	Low	10.0	Precise	1	8	17	14	5.6	26.7	4.6	14	17	8	4.6	26.7	5.6	1	0.349	0.001	R	8	5.6	429.960	430.513	430.862	430.864	0
1	22102409	143	Low	10.0	Vague	2	18	12	25	14.5	16.6	1.1	25	18	12	1.1	14.5	16.6	1	0.510	0.001	D	18	14.5	431.367	432.696	433.206	433.208	0
1	22102409	144	Low	10.0	Precise	1	18	10	14	14.5	18.6	4.6	18	10	14	14.5	18.6	4.6	1	0.398	0.001	L	18	14.5	433.711	434.736	435.134	435.136	0
1	22102409	145	Low	10.0	Precise	1	12	15	9	16.6	19.6	2.3	9	15	12	2.3	19.6	16.6	2	0.332	0.001	D	15	19.6	435.638	437.537	437.870	437.872	0
1	22102409	146	Low	10.0	Precise	1	8	12	14	5.6	16.6	4.6	14	8	12	4.6	5.6	16.6	1	0.506	0.000	D	8	5.6	438.375	440.179	440.685	440.688	0
1	22102409	147	Low	10.0	Vague	2	8	17	21	5.6	26.7	0.1	21	17	8	0.1	26.7	5.6	2	0.451	0.000	D	17	26.7	441.190	442.163	442.614	442.616	0
1	22102409	148	Low	10.0	Vague	2	10	17	23	18.6	26.7	0.6	23	17	10	0.6	26.7	18.6	2	0.371	0.001	D	17	26.7	443.119	444.243	444.614	444.616	0
1	22102409	149	Low	10.0	Precise	1	10	15	2	18.6	19.6	0.2	2	15	10	0.2	19.6	18.6	1	0.674	0.000	R	10	18.6	445.119	446.612	447.285	447.288	0
1	22102409	150	Low	10.0	Vague	2	8	15	19	5.6	19.6	0.2	8	15	19	5.6	19.6	0.2	1	0.458	0.000	L	8	5.6	447.790	448.852	449.309	449.312	0
1	22102409	151	Low	10.0	Vague	2	8	10	30	5.6	18.6	4.2	8	30	10	5.6	4.2	18.6	1	0.496	0.001	L	8	5.6	449.814	451.125	451.622	451.624	0
1	22102409	152	Low	10.0	Precise	1	8	12	3	5.6	16.6	1.0	12	3	8	16.6	1.0	5.6	2	0.527	0.001	L	12	16.6	452.127	454.783	455.310	455.312	0
1	22102409	153	Low	10.0	Precise	1	8	15	11	5.6	19.6	1.9	15	8	11	19.6	5.6	1.9	3	0.585	0.001	R	11	1.9	455.815	456.405	456.990	456.992	0
1	22102409	154	Low	10.0	Vague	2	8	17	32	5.6	26.7	3.1	17	8	32	26.7	5.6	3.1	1	0.350	0.000	D	8	5.6	457.495	460.439	460.789	460.792	0
1	22102409	155	Low	10.0	Vague	2	12	15	30	16.6	19.6	4.2	30	15	12	4.2	19.6	16.6	3	0.350	0.001	L	30	4.2	461.295	463.568	463.918	463.920	0
1	22102409	156	Low	10.0	Precise	1	12	17	2	16.6	26.7	0.2	17	12	2	26.7	16.6	0.2	1	0.347	0.001	D	12	16.6	464.423	465.850	466.198	466.200	0
1	22102409	157	Low	10.0	Precise	1	10	15	3	18.6	19.6	1.0	15	10	3	19.6	18.6	1.0	3	0.390	0.001	R	3	1.0	466.702	469.656	470.046	470.048	0
1	22102409	158	Low	10.0	Vague	2	8	15	32	5.6	19.6	3.1	8	15	32	5.6	19.6	3.1	1	0.612	0.001	L	8	5.6	470.550	471.914	472.526	472.528	0
1	22102409	159	Low	10.0	Precise	1	15	17	3	19.6	26.7	1.0	15	3	17	19.6	1.0	26.7	3	0.311	0.001	D	3	1.0	473.031	474.751	475.062	475.064	0
1	22102409	160	Low	10.0	Vague	2	18	10	32	14.5	18.6	3.1	10	32	18	18.6	3.1	14.5	2	0.555	0.001	L	10	18.6	475.567	478.162	478.718	478.720	0
1	22102409	161	Low	10.0	Vague	2	15	17	25	19.6	26.7	1.1	15	17	25	19.6	26.7	1.1	2	0.520	0.001	D	17	26.7	479.223	480.526	481.046	481.048	0
1	22102409	162	Low	10.0	Vague	2	10	15	25	18.6	19.6	1.1	10	15	25	18.6	19.6	1.1	2	0.661	0.001	D	15	19.6	481.551	484.304	484.966	484.968	0
1	22102409	163	Low	10.0	Precise	1	10	15	9	18.6	19.6	2.3	9	10	15	2.3	18.6	19.6	1	0.468	0.001	D	10	18.6	485.471	486.305	486.774	486.776	0
1	22102409	164	Low	10.0	Precise	1	18	12	2	14.5	16.6	0.2	12	18	2	16.6	14.5	0.2	2	0.365	0.001	L	12	16.6	487.278	489.761	490.126	490.128	0
1	22102409	165	Low	10.0	Vague	2	8	12	21	5.6	16.6	0.1	21	8	12	0.1	5.6	16.6	1	0.405	0.001	D	8	5.6	490.630	491.689	492.094	492.096	0
1	22102409	166	Low	10.0	Precise	1	8	10	2	5.6	18.6	0.2	2	10	8	0.2	18.6	5.6	1	0.429	0.001	R	8	5.6	492.599	494.992	495.422	495.424	0
1	22102409	167	Low	10.0	Precise	1	15	17	9	19.6	26.7	2.3	15	17	9	19.6	26.7	2.3	2	0.988	0.001	D	17	26.7	495.927	498.762	499.750	499.752	0
1	22102409	168	Low	10.0	Vague	2	8	10	23	5.6	18.6	0.6	23	10	8	0.6	18.6	5.6	2	0.330	0.001	D	10	18.6	500.255	502.876	503.206	503.208	0
1	22102409	169	Low	10.0	Vague	2	12	17	21	16.6	26.7	0.1	21	17	12	0.1	26.7	16.6	3	0.362	0.001	L	21	0.1	503.710	505.580	505.942	505.944	0
1	22102409	170	Low	10.0	Vague	2	8	12	19	5.6	16.6	0.2	8	19	12	5.6	0.2	16.6	1	0.539	0.001	L	8	5.6	506.447	507.275	507.814	507.816	0
1	22102409	171	Low	10.0	Vague	2	12	17	30	16.6	26.7	4.2	17	12	30	26.7	16.6	4.2	1	0.367	0.001	D	12	16.6	508.319	509.830	510.198	510.200	0
1	22102409	172	Low	10.0	Precise	1	18	17	3	14.5	26.7	1.0	18	17	3	14.5	26.7	1.0	1	0.382	0.001	L	18	14.5	510.702	512.536	512.917	512.920	0
1	22102409	173	Low	10.0	Precise	1	12	15	5	16.6	19.6	0.8	12	15	5	16.6	19.6	0.8	2	0.237	0.001	D	15	19.6	513.423	515.857	516.094	516.096	0
1	22102409	174	Low	10.0	Precise	1	10	17	5	18.6	26.7	0.8	17	5	10	26.7	0.8	18.6	2	0.364	0.001	L	17	26.7	516.599	518.778	519.142	519.144	0
1	22102409	175	Low	10.0	Vague	2	10	17	25	18.6	26.7	1.1	10	17	25	18.6	26.7	1.1	2	0.301	0.001	D	17	26.7	519.646	521.865	522.165	522.168	0
1	22102409	176	Low	10.0	Precise	1	12	15	3	16.6	19.6	1.0	15	12	3	19.6	16.6	1.0	1	0.333	0.000	D	12	16.6	522.671	524.129	524.462	524.464	0
1	22102409	177	Low	10.0	Vague	2	12	10	30	16.6	18.6	4.2	12	10	30	16.6	18.6	4.2	2	0.412	0.000	D	10	18.6	524.966	525.474	525.885	525.888	0
1	22102409	178	Low	10.0	Vague	2	18	17	30	14.5	26.7	4.2	30	17	18	4.2	26.7	14.5	3	0.332	0.001	L	30	4.2	526.391	527.402	527.733	527.736	0
1	22102409	179	Low	10.0	Precise	1	12	10	9	16.6	18.6	2.3	9	12	10	2.3	16.6	18.6	1	0.306	0.000	D	12	16.6	528.239	530.195	530.502	530.504	0
1	22102409	180	Low	10.0	Precise	1	12	15	14	16.6	19.6	4.6	14	15	12	4.6	19.6	16.6	3	0.338	0.000	L	14	4.6	531.006	533.532	533.869	533.872	0
1	22102409	181	High	1.5	Vague	2	8	10	27	5.6	18.6	0.9	8	27	10	5.6	0.9	18.6	1	0.418	0.001	L	8	5.6	555.351	557.195	557.614	557.616	0
1	22102409	182	High	1.5	Vague	2	18	10	27	14.5	18.6	0.9	27	18	10	0.9	14.5	18.6	1	0.302	0.000	D	18	14.5	558.118	559.696	559.998	560.000	0
1	22102409	183	High	1.5	Precise	1	8	10	16	5.6	18.6	5.4	10	8	16	18.6	5.6	5.4	1	0.414	0.001	D	8	5.6	560.503	563.384	563.798	563.800	0
1	22102409	184	High	1.5	Precise	1	8	15	16	5.6	19.6	5.4	16	15	8	5.4	19.6	5.6	2	0.405	0.001	D	15	19.6	564.303	564.816	565.222	565.224	0
1	22102409	185	High	1.5	Precise	1	18	10	13	14.5	18.6	2.2	13	18	10	2.2	14.5	18.6	1	0.345	0.001	D	18	14.5	565.726	566.677	567.022	567.024	0
1	22102409	186	High	1.5	Precise	1	18	10	7	14.5	18.6	0.9	18	7	10	14.5	0.9	18.6	2	0.437	0.000	R	10	18.6	567.527	568.449	568.885	568.888	0
1	22102409	187	High	1.5	Precise	1	12	15	4	16.6	19.6	4.3	4	12	15	4.3	16.6	19.6	3	0.260	0.000	L	4	4.3	569.390	570.369	570.629	570.632	0
1	22102409	188	High	1.5	Vague	2	10	15	27	18.6	19.6	0.9	27	10	15	0.9	18.6	19.6	1	0.455	0.000	D	10	18.6	571.134	573.910	574.365	574.368	0
1	22102409	189	High	1.5	Precise	1	10	17	4	18.6	26.7	4.3	4	17	10	4.3	26.7	18.6	2	0.300	0.000	D	17	26.7	574.870	575.729	576.029	576.032	0
1	22102409	190	High	1.5	Precise	1	18	17	4	14.5	26.7	4.3	17	4	18	26.7	4.3	14.5	3	0.272	0.000	D	4	4.3	576.535	577.165	577.437	577.440	0
1	22102409	191	High	1.5	Vague	2	8	10	22	5.6	18.6	0.2	8	10	22	5.6	18.6	0.2	3	0.258	0.000	R	22	0.2	577.942	578.899	579.157	579.160	0
1	22102409	192	High	1.5	Precise	1	10	15	4	18.6	19.6	4.3	10	4	15	18.6	4.3	19.6	3	0.434	0.001	D	4	4.3	579.662	581.828	582.262	582.264	0
1	22102409	193	High	1.5	Precise	1	8	18	13	5.6	14.5	2.2	13	18	8	2.2	14.5	5.6	3	0.293	0.001	L	13	2.2	582.767	584.904	585.197	585.200	0
1	22102409	194	High	1.5	Precise	1	15	17	7	19.6	26.7	0.9	17	7	15	26.7	0.9	19.6	2	0.347	0.001	L	17	26.7	585.702	588.194	588.541	588.544	0
1	22102409	195	High	1.5	Vague	2	18	15	27	14.5	19.6	0.9	27	15	18	0.9	19.6	14.5	3	0.322	0.000	L	27	0.9	589.046	590.860	591.181	591.184	0
1	22102409	196	High	1.5	Precise	1	8	17	4	5.6	26.7	4.3	4	8	17	4.3	5.6	26.7	1	0.269	0.001	D	8	5.6	591.687	593.289	593.558	593.560	0
1	22102409	197	High	1.5	Vague	2	15	17	20	19.6	26.7	0.4	17	20	15	26.7	0.4	19.6	2	0.352	0.000	L	17	26.7	594.062	595.973	596.325	596.328	0
1	22102409	198	High	1.5	Vague	2	8	17	26	5.6	26.7	3.3	26	8	17	3.3	5.6	26.7	2	0.346	0.001	R	17	26.7	596.830	599.179	599.525	599.528	0
1	22102409	199	High	1.5	Vague	2	10	17	36	18.6	26.7	2.4	10	36	17	18.6	2.4	26.7	2	0.313	0.001	R	17	26.7	600.030	602.012	602.326	602.328	0
1	22102409	200	High	1.5	Vague	2	18	10	24	14.5	18.6	0.0	10	18	24	18.6	14.5	0.0	1	0.362	0.001	D	18	14.5	602.831	604.275	604.638	604.640	0
1	22102409	201	High	1.5	Precise	1	10	17	16	18.6	26.7	5.4	10	16	17	18.6	5.4	26.7	2	0.452	0.001	R	17	26.7	605.142	606.297	606.750	606.752	0
1	22102409	202	High	1.5	Vague	2	10	15	24	18.6	19.6	0.0	15	24	10	19.6	0.0	18.6	2	0.326	0.001	L	15	19.6	607.254	608.408	608.734	608.736	0
1	22102409	203	High	1.5	Vague	2	8	17	22	5.6	26.7	0.2	8	17	22	5.6	26.7	0.2	1	0.332	0.001	L	8	5.6	609.239	611.657	611.990	611.992	0
1	22102409	204	High	1.5	Precise	1	18	15	7	14.5	19.6	0.9	15	18	7	19.6	14.5	0.9	1	0.354	0.001	D	18	14.5	612.495	614.300	614.654	614.656	0
1	22102409	205	High	1.5	Precise	1	15	17	6	19.6	26.7	1.1	6	17	15	1.1	26.7	19.6	2	0.354	0.001	D	17	26.7	615.158	617.500	617.854	617.856	0
1	22102409	206	High	1.5	Precise	1	8	10	7	5.6	18.6	0.9	8	7	10	5.6	0.9	18.6	3	0.298	0.000	D	7	0.9	618.359	620.787	621.085	621.088	0
1	22102409	207	High	1.5	Precise	1	18	12	4	14.5	16.6	4.3	12	18	4	16.6	14.5	4.3	3	0.531	0.000	R	4	4.3	621.591	622.146	622.677	622.680	0
1	22102409	208	High	1.5	Vague	2	8	15	20	5.6	19.6	0.4	15	8	20	19.6	5.6	0.4	2	0.318	0.001	L	15	19.6	623.182	625.671	625.989	625.992	0
1	22102409	209	High	1.5	Precise	1	15	17	4	19.6	26.7	4.3	4	15	17	4.3	19.6	26.7	1	0.302	0.000	D	15	19.6	626.494	628.327	628.629	628.632	0
1	22102409	210	High	1.5	Precise	1	10	15	16	18.6	19.6	5.4	15	16	10	19.6	5.4	18.6	1	0.376	0.000	R	10	18.6	629.134	629.717	630.093	630.096	0
1	22102409	211	High	1.5	Vague	2	18	10	36	14.5	18.6	2.4	36	18	10	2.4	14.5	18.6	3	0.298	0.001	L	36	2.4	630.598	632.468	632.765	632.768	0
1	22102409	212	High	1.5	Vague	2	18	10	22	14.5	18.6	0.2	22	10	18	0.2	18.6	14.5	1	0.294	0.000	R	18	14.5	633.270	634.071	634.365	634.368	0
1	22102409	213	High	1.5	Vague	2	18	12	22	14.5	16.6	0.2	18	12	22	14.5	16.6	0.2	2	0.227	0.001	D	12	16.6	634.870	635.739	635.965	635.968	0
1	22102409	214	High	1.5	Precise	1	8	10	13	5.6	18.6	2.2	10	8	13	18.6	5.6	2.2	3	0.253	0.000	R	13	2.2	636.470	637.256	637.509	637.512	0
1	22102409	215	High	1.5	Precise	1	8	17	6	5.6	26.7	1.1	6	17	8	1.1	26.7	5.6	2	0.292	0.001	D	17	26.7	638.015	639.985	640.278	640.280	0
1	22102409	216	High	1.5	Vague	2	12	15	20	16.6	19.6	0.4	20	12	15	0.4	16.6	19.6	1	0.394	0.001	D	12	16.6	640.783	643.404	643.798	643.800	0
1	22102409	217	High	1.5	Precise	1	18	12	1	14.5	16.6	0.7	1	18	12	0.7	14.5	16.6	2	0.346	0.000	R	12	16.6	644.302	646.499	646.845	646.848	0
1	22102409	218	High	1.5	Vague	2	15	17	26	19.6	26.7	3.3	17	15	26	26.7	19.6	3.3	2	0.336	0.000	L	17	26.7	647.350	650.134	650.469	650.472	0
1	22102409	219	High	1.5	Precise	1	12	10	4	16.6	18.6	4.3	10	4	12	18.6	4.3	16.6	2	0.408	0.001	L	10	18.6	650.975	652.125	652.533	652.536	0
1	22102409	220	High	1.5	Precise	1	8	10	6	5.6	18.6	1.1	10	6	8	18.6	1.1	5.6	2	0.371	0.001	L	10	18.6	653.038	655.467	655.837	655.840	0
1	22102409	221	High	1.5	Vague	2	12	10	20	16.6	18.6	0.4	10	20	12	18.6	0.4	16.6	3	0.274	0.000	D	20	0.4	656.343	659.043	659.317	659.320	0
1	22102409	222	High	1.5	Vague	2	8	15	24	5.6	19.6	0.0	24	15	8	0.0	19.6	5.6	3	0.490	0.000	L	24	0.0	659.823	660.619	661.109	661.112	0
1	22102409	223	High	1.5	Vague	2	12	17	26	16.6	26.7	3.3	26	12	17	3.3	16.6	26.7	2	0.296	0.001	R	17	26.7	661.614	662.597	662.893	662.896	0
1	22102409	224	High	1.5	Precise	1	10	15	7	18.6	19.6	0.9	7	15	10	0.9	19.6	18.6	2	0.340	0.001	D	15	19.6	663.399	664.122	664.461	664.464	0
1	22102409	225	High	1.5	Vague	2	12	17	22	16.6	26.7	0.2	12	17	22	16.6	26.7	0.2	3	0.324	0.000	R	22	0.2	664.968	666.065	666.389	666.392	0
1	22102409	226	High	1.5	Vague	2	8	10	26	5.6	18.6	3.3	8	10	26	5.6	18.6	3.3	2	0.538	0.001	D	10	18.6	666.894	668.579	669.117	669.120	0
1	22102409	227	High	1.5	Vague	2	12	17	24	16.6	26.7	0.0	24	17	12	0.0	26.7	16.6	2	0.381	0.001	D	17	26.7	669.623	672.280	672.661	672.664	0
1	22102409	228	High	1.5	Vague	2	18	12	26	14.5	16.6	3.3	12	18	26	16.6	14.5	3.3	1	0.351	0.001	D	18	14.5	673.166	674.118	674.469	674.472	0
1	22102409	229	High	1.5	Vague	2	12	10	26	16.6	18.6	3.3	12	10	26	16.6	18.6	3.3	2	0.325	0.001	D	10	18.6	674.975	676.705	677.029	677.032	0
1	22102409	230	High	1.5	Precise	1	8	17	16	5.6	26.7	5.4	8	16	17	5.6	5.4	26.7	3	0.000	2.887	D	16	5.4	677.534	679.917	679.917	679.936	0
1	22102409	231	High	1.5	Precise	1	18	17	7	14.5	26.7	0.9	17	7	18	26.7	0.9	14.5	1	0.315	0.001	R	18	14.5	680.439	682.234	682.549	682.552	0
1	22102409	232	High	1.5	Vague	2	18	15	26	14.5	19.6	3.3	18	26	15	14.5	3.3	19.6	1	0.298	0.001	L	18	14.5	683.054	683.980	684.277	684.280	0
1	22102409	233	High	1.5	Precise	1	18	15	1	14.5	19.6	0.7	1	15	18	0.7	19.6	14.5	1	0.268	0.000	R	18	14.5	684.782	685.386	685.653	685.656	0
1	22102409	234	High	1.5	Vague	2	8	15	26	5.6	19.6	3.3	8	15	26	5.6	19.6	3.3	2	0.286	0.001	D	15	19.6	686.159	686.743	687.030	687.032	0
1	22102409	235	High	1.5	Precise	1	18	12	7	14.5	16.6	0.9	12	7	18	16.6	0.9	14.5	2	0.270	0.001	L	12	16.6	687.535	688.967	689.237	689.240	0
1	22102409	236	High	1.5	Vague	2	18	17	27	14.5	26.7	0.9	17	27	18	26.7	0.9	14.5	3	0.331	0.001	D	27	0.9	689.743	692.410	692.741	692.744	0
1	22102409	237	High	1.5	Precise	1	8	18	16	5.6	14.5	5.4	18	8	16	14.5	5.6	5.4	2	0.289	0.001	L	18	14.5	693.247	694.213	694.502	694.505	0
1	22102409	238	High	1.5	Vague	2	8	17	20	5.6	26.7	0.4	8	17	20	5.6	26.7	0.4	3	0.380	0.001	R	20	0.4	695.008	696.769	697.149	697.152	0
1	22102409	239	High	1.5	Vague	2	10	15	22	18.6	19.6	0.2	22	15	10	0.2	19.6	18.6	2	0.355	0.001	D	15	19.6	697.654	700.538	700.893	700.896	0
1	22102409	240	High	1.5	Precise	1	18	12	16	14.5	16.6	5.4	18	16	12	14.5	5.4	16.6	3	0.378	0.001	D	16	5.4	701.398	704.236	704.613	704.616	0
1	22102409	241	High	1.5	Vague	2	8	18	22	5.6	14.5	0.2	8	18	22	5.6	14.5	0.2	1	0.701	0.001	L	8	5.6	718.301	719.976	720.677	720.680	0
1	22102409	242	High	1.5	Vague	2	8	12	26	5.6	16.6	3.3	26	12	8	3.3	16.6	5.6	1	0.356	0.001	R	8	5.6	721.183	723.193	723.549	723.552	0
1	22102409	243	High	1.5	Precise	1	12	17	6	16.6	26.7	1.1	6	12	17	1.1	16.6	26.7	2	0.369	0.000	R	17	26.7	724.054	726.547	726.917	726.919	0
1	22102409	244	High	1.5	Precise	1	12	17	13	16.6	26.7	2.2	17	13	12	26.7	2.2	16.6	2	0.359	0.001	L	17	26.7	727.423	728.902	729.261	729.264	0
1	22102409	245	High	1.5	Precise	1	8	17	1	5.6	26.7	0.7	17	1	8	26.7	0.7	5.6	2	0.383	0.000	L	17	26.7	729.767	731.014	731.397	731.400	0
1	22102409	246	High	1.5	Vague	2	8	17	24	5.6	26.7	0.0	8	24	17	5.6	0.0	26.7	2	0.358	0.001	R	17	26.7	731.903	734.247	734.605	734.608	0
1	22102409	247	High	1.5	Vague	2	8	10	36	5.6	18.6	2.4	10	36	8	18.6	2.4	5.6	3	0.887	0.001	D	36	2.4	735.111	736.662	737.549	737.552	0
1	22102409	248	High	1.5	Precise	1	18	10	4	14.5	18.6	4.3	4	18	10	4.3	14.5	18.6	3	0.429	0.001	L	4	4.3	738.055	739.872	740.301	740.304	0
1	22102409	249	High	1.5	Precise	1	10	17	1	18.6	26.7	0.7	10	17	1	18.6	26.7	0.7	2	0.469	0.001	D	17	26.7	740.807	741.473	741.941	741.944	0
1	22102409	250	High	1.5	Vague	2	8	15	27	5.6	19.6	0.9	8	15	27	5.6	19.6	0.9	3	0.445	0.001	R	27	0.9	742.446	744.704	745.149	745.152	0
1	22102409	251	High	1.5	Vague	2	8	12	24	5.6	16.6	0.0	12	24	8	16.6	0.0	5.6	1	0.357	0.001	R	8	5.6	745.655	746.912	747.269	747.272	0
1	22102409	252	High	1.5	Precise	1	15	17	13	19.6	26.7	2.2	15	13	17	19.6	2.2	26.7	2	0.405	0.001	R	17	26.7	747.775	750.329	750.733	750.736	0
1	22102409	253	High	1.5	Vague	2	18	17	24	14.5	26.7	0.0	24	18	17	0.0	14.5	26.7	2	0.388	0.001	R	17	26.7	751.239	753.522	753.909	753.912	0
1	22102409	254	High	1.5	Precise	1	18	15	13	14.5	19.6	2.2	15	18	13	19.6	14.5	2.2	1	0.592	0.001	D	18	14.5	754.415	755.230	755.821	755.824	0
1	22102409	255	High	1.5	Precise	1	8	18	6	5.6	14.5	1.1	18	6	8	14.5	1.1	5.6	2	0.372	0.001	L	18	14.5	756.327	758.890	759.261	759.264	0
1	22102409	256	High	1.5	Vague	2	12	10	24	16.6	18.6	0.0	10	12	24	18.6	16.6	0.0	3	0.452	0.000	R	24	0.0	759.767	760.409	760.861	760.863	0
1	22102409	257	High	1.5	Vague	2	10	17	24	18.6	26.7	0.0	17	10	24	26.7	18.6	0.0	1	0.349	0.001	D	10	18.6	761.366	764.209	764.557	764.560	0
1	22102409	258	High	1.5	Precise	1	18	10	16	14.5	18.6	5.4	18	10	16	14.5	18.6	5.4	1	0.324	0.001	L	18	14.5	765.062	766.378	766.701	766.704	0
1	22102409	259	High	1.5	Vague	2	18	12	36	14.5	16.6	2.4	12	36	18	16.6	2.4	14.5	3	0.566	0.001	D	36	2.4	767.206	768.791	769.357	769.360	0
1	22102409	260	High	1.5	Vague	2	8	18	27	5.6	14.5	0.9	18	27	8	14.5	0.9	5.6	2	0.498	0.000	L	18	14.5	769.863	772.267	772.765	772.767	0
1	22102409	261	High	1.5	Vague	2	18	17	22	14.5	26.7	0.2	22	17	18	0.2	26.7	14.5	1	0.406	0.001	R	18	14.5	773.270	773.887	774.293	774.296	0
1	22102409	262	High	1.5	Vague	2	15	17	22	19.6	26.7	0.2	22	17	15	0.2	26.7	19.6	2	0.336	0.001	D	17	26.7	774.798	775.741	776.077	776.080	0
1	22102409	263	High	1.5	Precise	1	18	15	6	14.5	19.6	1.1	15	18	6	19.6	14.5	1.1	1	0.342	0.000	D	18	14.5	776.582	778.864	779.205	779.208	0
1	22102409	264	High	1.5	Vague	2	8	10	20	5.6	18.6	0.4	10	20	8	18.6	0.4	5.6	2	0.283	0.001	L	10	18.6	779.710	782.250	782.533	782.536	0
1	22102409	265	High	1.5	Vague	2	8	15	36	5.6	19.6	2.4	36	8	15	2.4	5.6	19.6	2	0.390	0.001	R	15	19.6	783.038	783.728	784.117	784.120	0
1	22102409	266	High	1.5	Precise	1	8	12	7	5.6	16.6	0.9	7	12	8	0.9	16.6	5.6	1	0.347	0.001	R	8	5.6	784.622	786.747	787.093	787.096	0
1	22102409	267	High	1.5	Vague	2	12	10	27	16.6	18.6	0.9	10	27	12	18.6	0.9	16.6	1	0.374	0.001	R	12	16.6	787.599	789.527	789.901	789.904	0
1	22102409	268	High	1.5	Vague	2	8	12	22	5.6	16.6	0.2	22	8	12	0.2	5.6	16.6	1	0.585	0.000	D	8	5.6	790.406	792.212	792.797	792.800	0
1	22102409	269	High	1.5	Vague	2	18	12	24	14.5	16.6	0.0	24	12	18	0.0	16.6	14.5	1	0.394	0.001	R	18	14.5	793.303	795.203	795.597	795.600	0
1	22102409	270	High	1.5	Precise	1	12	15	6	16.6	19.6	1.1	15	12	6	19.6	16.6	1.1	1	0.229	0.001	D	12	16.6	796.102	797.472	797.701	797.704	0
1	22102409	271	High	1.5	Precise	1	15	17	1	19.6	26.7	0.7	17	1	15	26.7	0.7	19.6	2	0.353	0.000	L	17	26.7	798.206	800.644	800.997	800.999	0
1	22102409	272	High	1.5	Vague	2	18	12	20	14.5	16.6	0.4	18	20	12	14.5	0.4	16.6	2	0.442	0.001	R	12	16.6	801.503	802.763	803.205	803.208	0
1	22102409	273	High	1.5	Vague	2	10	17	27	18.6	26.7	0.9	17	27	10	26.7	0.9	18.6	2	0.311	0.000	L	17	26.7	803.711	805.318	805.629	805.631	0
1	22102409	274	High	1.5	Vague	2	12	15	22	16.6	19.6	0.2	12	22	15	16.6	0.2	19.6	3	0.370	0.001	D	22	0.2	806.135	808.971	809.341	809.344	0
1	22102409	275	High	1.5	Precise	1	12	15	7	16.6	19.6	0.9	15	12	7	19.6	16.6	0.9	3	0.445	0.001	R	7	0.9	809.847	810.712	811.157	811.160	0
1	22102409	276	High	1.5	Precise	1	12	10	13	16.6	18.6	2.2	10	12	13	18.6	16.6	2.2	2	0.255	0.000	L	10	18.6	811.663	813.310	813.565	813.568	0
1	22102409	277	High	1.5	Vague	2	12	15	27	16.6	19.6	0.9	27	12	15	0.9	16.6	19.6	1	0.287	0.001	D	12	16.6	814.071	816.806	817.093	817.096	0
1	22102409	278	High	1.5	Vague	2	18	15	24	14.5	19.6	0.0	24	18	15	0.0	14.5	19.6	2	0.217	0.001	R	15	19.6	817.598	818.589	818.805	818.808	0
1	22102409	279	High	1.5	Precise	1	12	17	1	16.6	26.7	0.7	17	12	1	26.7	16.6	0.7	3	0.239	0.000	R	1	0.7	819.311	820.086	820.325	820.328	0
1	22102409	280	High	1.5	Vague	2	18	10	26	14.5	18.6	3.3	18	26	10	14.5	3.3	18.6	1	0.375	0.000	L	18	14.5	820.831	823.294	823.669	823.672	0
1	22102409	281	High	1.5	Precise	1	18	10	6	14.5	18.6	1.1	6	18	10	1.1	14.5	18.6	1	0.224	0.000	D	18	14.5	824.175	826.189	826.413	826.416	0
1	22102409	282	High	1.5	Vague	2	8	17	36	5.6	26.7	2.4	17	8	36	26.7	5.6	2.4	3	0.252	0.001	R	36	2.4	826.920	829.361	829.613	829.615	0
1	22102409	283	High	1.5	Precise	1	18	12	13	14.5	16.6	2.2	18	13	12	14.5	2.2	16.6	1	0.099	0.001	L	18	14.5	830.119	832.978	833.077	833.080	0
1	22102409	284	High	1.5	Precise	1	10	17	13	18.6	26.7	2.2	13	17	10	2.2	26.7	18.6	1	0.260	0.001	R	10	18.6	833.582	836.217	836.477	836.479	0
1	22102409	285	High	1.5	Precise	1	8	12	13	5.6	16.6	2.2	13	12	8	2.2	16.6	5.6	2	0.355	0.000	D	12	16.6	836.982	837.491	837.845	837.848	0
1	22102409	286	High	1.5	Vague	2	8	12	36	5.6	16.6	2.4	12	36	8	16.6	2.4	5.6	3	0.477	0.001	D	36	2.4	838.350	839.712	840.189	840.192	0
1	22102409	287	High	1.5	Vague	2	18	10	20	14.5	18.6	0.4	10	20	18	18.6	0.4	14.5	1	0.322	0.001	R	18	14.5	840.694	843.283	843.605	843.607	0
1	22102409	288	High	1.5	Precise	1	10	15	1	18.6	19.6	0.7	15	10	1	19.6	18.6	0.7	2	0.259	0.000	L	15	19.6	844.110	845.498	845.757	845.759	0
1	22102409	289	High	1.5	Precise	1	8	12	4	5.6	16.6	4.3	4	8	12	4.3	5.6	16.6	3	0.350	0.001	L	4	4.3	846.262	847.807	848.157	848.160	0
1	22102409	290	High	1.5	Vague	2	10	17	20	18.6	26.7	0.4	17	10	20	26.7	18.6	0.4	2	0.308	0.001	L	17	26.7	848.662	849.833	850.141	850.144	0
1	22102409	291	High	1.5	Precise	1	12	10	6	16.6	18.6	1.1	10	12	6	18.6	16.6	1.1	1	0.274	0.001	D	12	16.6	850.647	853.115	853.389	853.392	0
1	22102409	292	High	1.5	Precise	1	12	17	7	16.6	26.7	0.9	17	7	12	26.7	0.9	16.6	2	0.291	0.001	L	17	26.7	853.895	855.994	856.285	856.288	0
1	22102409	293	High	1.5	Vague	2	8	18	24	5.6	14.5	0.0	8	24	18	5.6	0.0	14.5	2	0.277	0.000	R	18	14.5	856.791	859.328	859.605	859.607	0
1	22102409	294	High	1.5	Vague	2	12	10	22	16.6	18.6	0.2	12	22	10	16.6	0.2	18.6	1	0.284	0.001	L	12	16.6	860.110	862.281	862.565	862.567	0
1	22102409	295	High	1.5	Vague	2	8	17	27	5.6	26.7	0.9	17	8	27	26.7	5.6	0.9	1	0.363	0.001	D	8	5.6	863.071	864.099	864.461	864.464	0
1	22102409	296	High	1.5	Precise	1	8	12	6	5.6	16.6	1.1	8	6	12	5.6	1.1	16.6	1	0.640	0.000	L	8	5.6	864.966	867.493	868.133	868.135	0
1	22102409	297	High	1.5	Vague	2	12	17	27	16.6	26.7	0.9	27	12	17	0.9	16.6	26.7	3	0.261	0.001	L	27	0.9	868.638	871.272	871.533	871.535	0
1	22102409	298	High	1.5	Vague	2	8	10	24	5.6	18.6	0.0	8	24	10	5.6	0.0	18.6	3	0.000	3.076	D	24	0.0	872.038	874.609	874.609	874.619	0
1	22102409	299	High	1.5	Precise	1	8	10	4	5.6	18.6	4.3	8	4	10	5.6	4.3	18.6	2	0.383	0.000	R	10	18.6	875.122	876.662	877.045	877.047	0
1	22102409	300	High	1.5	Vague	2	10	17	26	18.6	26.7	3.3	26	17	10	3.3	26.7	18.6	3	0.290	0.001	L	26	3.3	877.550	878.283	878.573	878.576	0
1	22102409	301	High	1.5	Precise	1	18	17	16	14.5	26.7	5.4	16	18	17	5.4	14.5	26.7	2	0.363	0.001	R	17	26.7	892.251	894.482	894.845	894.847	0
1	22102409	302	High	1.5	Precise	1	8	15	1	5.6	19.6	0.7	15	1	8	19.6	0.7	5.6	1	0.376	0.001	R	8	5.6	895.351	896.109	896.485	896.488	0
1	22102409	303	High	1.5	Vague	2	15	17	36	19.6	26.7	2.4	17	15	36	26.7	19.6	2.4	3	0.258	0.000	R	36	2.4	896.991	898.011	898.269	898.271	0
1	22102409	304	High	1.5	Precise	1	18	17	13	14.5	26.7	2.2	13	18	17	2.2	14.5	26.7	3	0.222	0.001	L	13	2.2	898.774	899.647	899.869	899.871	0
1	22102409	305	High	1.5	Vague	2	8	18	20	5.6	14.5	0.4	18	8	20	14.5	5.6	0.4	1	0.378	0.001	D	8	5.6	900.374	903.083	903.461	903.464	0
1	22102409	306	High	1.5	Precise	1	8	17	13	5.6	26.7	2.2	13	17	8	2.2	26.7	5.6	3	0.281	0.000	L	13	2.2	903.967	905.780	906.061	906.064	0
1	22102409	307	High	1.5	Precise	1	8	17	7	5.6	26.7	0.9	17	8	7	26.7	5.6	0.9	1	0.244	0.001	D	8	5.6	906.567	908.065	908.309	908.311	0
1	22102409	308	High	1.5	Precise	1	15	17	16	19.6	26.7	5.4	17	16	15	26.7	5.4	19.6	2	0.357	0.000	L	17	26.7	908.814	910.400	910.757	910.759	0
1	22102409	309	High	1.5	Precise	1	8	18	1	5.6	14.5	0.7	8	1	18	5.6	0.7	14.5	3	0.317	0.001	D	1	0.7	911.263	911.929	912.245	912.248	0
1	22102409	310	High	1.5	Precise	1	8	18	4	5.6	14.5	4.3	8	18	4	5.6	14.5	4.3	1	0.505	0.000	L	8	5.6	912.750	915.387	915.893	915.895	0
1	22102409	311	High	1.5	Vague	2	12	15	24	16.6	19.6	0.0	12	15	24	16.6	19.6	0.0	2	0.456	0.001	D	15	19.6	916.398	919.133	919.589	919.591	0
1	22102409	312	High	1.5	Precise	1	8	12	1	5.6	16.6	0.7	1	12	8	0.7	16.6	5.6	3	0.445	0.000	L	1	0.7	920.094	920.823	921.269	921.271	0
1	22102409	313	High	1.5	Vague	2	12	15	36	16.6	19.6	2.4	15	36	12	19.6	2.4	16.6	3	0.200	0.001	D	36	2.4	921.775	922.541	922.741	922.743	0
1	22102409	314	High	1.5	Precise	1	8	15	7	5.6	19.6	0.9	7	8	15	0.9	5.6	19.6	2	0.416	0.000	R	15	19.6	923.246	925.277	925.693	925.695	0
1	22102409	315	High	1.5	Vague	2	18	17	20	14.5	26.7	0.4	17	20	18	26.7	0.4	14.5	3	0.397	0.001	D	20	0.4	926.199	929.040	929.437	929.439	0
1	22102409	316	High	1.5	Precise	1	12	10	1	16.6	18.6	0.7	12	1	10	16.6	0.7	18.6	1	0.365	0.001	L	12	16.6	929.942	932.040	932.405	932.407	0
1	22102409	317	High	1.5	Precise	1	10	17	6	18.6	26.7	1.1	10	17	6	18.6	26.7	1.1	1	0.369	0.001	L	10	18.6	932.910	934.572	934.941	934.944	0
1	22102409	318	High	1.5	Precise	1	12	15	1	16.6	19.6	0.7	1	12	15	0.7	16.6	19.6	1	0.420	0.001	D	12	16.6	935.446	936.097	936.517	936.519	0
1	22102409	319	High	1.5	Precise	1	18	15	16	14.5	19.6	5.4	18	16	15	14.5	5.4	19.6	3	0.585	0.001	D	16	5.4	937.023	939.700	940.285	940.288	0
1	22102409	320	High	1.5	Vague	2	12	17	36	16.6	26.7	2.4	36	17	12	2.4	26.7	16.6	3	0.309	0.000	L	36	2.4	940.791	943.272	943.581	943.583	0
1	22102409	321	High	1.5	Precise	1	10	15	6	18.6	19.6	1.1	10	6	15	18.6	1.1	19.6	3	0.348	0.000	D	6	1.1	944.086	945.234	945.581	945.584	0
1	22102409	322	High	1.5	Vague	2	8	12	27	5.6	16.6	0.9	27	8	12	0.9	5.6	16.6	2	0.239	0.001	R	12	16.6	946.086	948.543	948.781	948.783	0
1	22102409	323	High	1.5	Vague	2	10	15	36	18.6	19.6	2.4	15	10	36	19.6	18.6	2.4	1	0.000	3.319	D	10	18.6	949.286	952.100	952.100	952.108	0
1	22102409	324	High	1.5	Vague	2	12	10	36	16.6	18.6	2.4	36	12	10	2.4	16.6	18.6	2	0.384	0.000	R	10	18.6	952.611	953.773	954.157	954.159	0
1	22102409	325	High	1.5	Precise	1	8	15	13	5.6	19.6	2.2	15	13	8	19.6	2.2	5.6	3	0.273	0.001	D	13	2.2	954.662	957.612	957.885	957.887	0
1	22102409	326	High	1.5	Precise	1	18	17	1	14.5	26.7	0.7	1	17	18	0.7	26.7	14.5	3	0.295	0.001	L	1	0.7	958.390	959.646	959.941	959.943	0
1	22102409	327	High	1.5	Vague	2	18	17	36	14.5	26.7	2.4	36	18	17	2.4	14.5	26.7	1	0.362	0.001	D	18	14.5	960.446	963.315	963.677	963.680	0
1	22102409	328	High	1.5	Vague	2	18	15	36	14.5	19.6	2.4	36	15	18	2.4	19.6	14.5	1	0.369	0.001	R	18	14.5	964.182	965.844	966.213	966.216	0
1	22102409	329	High	1.5	Precise	1	18	12	6	14.5	16.6	1.1	18	12	6	14.5	16.6	1.1	3	0.250	0.001	R	6	1.1	966.718	967.915	968.165	968.167	0
1	22102409	330	High	1.5	Vague	2	10	17	22	18.6	26.7	0.2	10	22	17	18.6	0.2	26.7	2	0.000	2.511	R	17	26.7	968.671	970.676	970.676	970.690	0
1	22102409	331	High	1.5	Precise	1	12	10	7	16.6	18.6	0.9	12	10	7	16.6	18.6	0.9	2	0.275	0.000	D	10	18.6	971.192	972.338	972.613	972.615	0
1	22102409	332	High	1.5	Vague	2	10	15	26	18.6	19.6	3.3	15	10	26	19.6	18.6	3.3	1	0.234	0.000	D	10	18.6	973.118	974.995	975.229	975.232	0
1	22102409	333	High	1.5	Precise	1	12	15	16	16.6	19.6	5.4	16	15	12	5.4	19.6	16.6	3	0.240	0.000	L	16	5.4	975.735	977.668	977.909	977.911	0
1	22102409	334	High	1.5	Vague	2	12	17	20	16.6	26.7	0.4	17	12	20	26.7	16.6	0.4	3	0.330	0.001	R	20	0.4	978.414	979.227	979.557	979.559	0
1	22102409	335	High	1.5	Precise	1	18	10	1	14.5	18.6	0.7	18	1	10	14.5	0.7	18.6	3	0.301	0.001	D	1	0.7	980.062	981.552	981.853	981.855	0
1	22102409	336	High	1.5	Precise	1	12	10	16	16.6	18.6	5.4	16	10	12	5.4	18.6	16.6	1	0.312	0.001	R	12	16.6	982.358	983.717	984.029	984.031	0
1	22102409	337	High	1.5	Vague	2	8	18	36	5.6	14.5	2.4	18	36	8	14.5	2.4	5.6	3	0.548	0.001	D	36	2.4	984.534	987.161	987.709	987.711	0
1	22102409	338	High	1.5	Precise	1	10	17	7	18.6	26.7	0.9	10	17	7	18.6	26.7	0.9	1	0.276	0.001	L	10	18.6	988.215	990.081	990.357	990.360	0
1	22102409	339	High	1.5	Precise	1	8	18	7	5.6	14.5	0.9	8	7	18	5.6	0.9	14.5	3	0.274	0.000	D	7	0.9	990.863	993.563	993.837	993.839	0
1	22102409	340	High	1.5	Vague	2	8	12	20	5.6	16.6	0.4	20	12	8	0.4	16.6	5.6	1	0.248	0.001	R	8	5.6	994.343	996.021	996.269	996.271	0
1	22102409	341	High	1.5	Vague	2	10	15	20	18.6	19.6	0.4	10	15	20	18.6	19.6	0.4	3	0.305	0.000	R	20	0.4	996.774	999.420	999.725	999.727	0
1	22102409	342	High	1.5	Precise	1	8	15	6	5.6	19.6	1.1	6	15	8	1.1	19.6	5.6	3	0.445	0.000	L	6	1.1	1000.230	1000.975	1001.421	1001.423	0
1	22102409	343	High	1.5	Vague	2	18	12	27	14.5	16.6	0.9	27	18	12	0.9	14.5	16.6	1	0.270	0.001	D	18	14.5	1001.925	1003.583	1003.853	1003.855	0
1	22102409	344	High	1.5	Precise	1	12	17	4	16.6	26.7	4.3	17	4	12	26.7	4.3	16.6	1	0.201	0.001	R	12	16.6	1004.358	1006.004	1006.205	1006.208	0
1	22102409	345	High	1.5	Vague	2	15	17	24	19.6	26.7	0.0	15	17	24	19.6	26.7	0.0	1	0.293	0.000	L	15	19.6	1006.710	1009.607	1009.901	1009.903	0
1	22102409	346	High	1.5	Precise	1	18	15	4	14.5	19.6	4.3	4	18	15	4.3	14.5	19.6	1	0.000	2.680	D	18	14.5	1010.406	1012.580	1012.581	1012.587	0
1	22102409	347	High	1.5	Vague	2	8	18	26	5.6	14.5	3.3	18	26	8	14.5	3.3	5.6	1	0.074	0.000	R	8	5.6	1013.090	1014.915	1014.988	1014.991	0
1	22102409	348	High	1.5	Vague	2	8	15	22	5.6	19.6	0.2	15	22	8	19.6	0.2	5.6	1	0.000	3.384	R	8	5.6	1015.495	1018.372	1018.372	1018.391	0
1	22102409	349	High	1.5	Precise	1	10	15	13	18.6	19.6	2.2	10	13	15	18.6	2.2	19.6	3	0.512	0.001	D	13	2.2	1018.894	1020.253	1020.765	1020.768	0
1	22102409	350	High	1.5	Precise	1	8	12	16	5.6	16.6	5.4	8	16	12	5.6	5.4	16.6	2	0.473	0.000	R	12	16.6	1021.270	1023.308	1023.781	1023.783	0
1	22102409	351	High	1.5	Precise	1	12	15	13	16.6	19.6	2.2	15	12	13	19.6	16.6	2.2	3	0.186	0.001	R	13	2.2	1024.286	1025.235	1025.421	1025.424	0
1	22102409	352	High	1.5	Precise	1	8	10	1	5.6	18.6	0.7	8	10	1	5.6	18.6	0.7	1	0.265	0.001	L	8	5.6	1025.926	1028.540	1028.805	1028.808	0
1	22102409	353	High	1.5	Precise	1	8	15	4	5.6	19.6	4.3	4	15	8	4.3	19.6	5.6	3	0.244	0.001	L	4	4.3	1029.311	1032.017	1032.261	1032.263	0
1	22102409	354	High	1.5	Vague	2	18	15	22	14.5	19.6	0.2	15	22	18	19.6	0.2	14.5	3	0.501	0.001	D	22	0.2	1032.766	1034.184	1034.685	1034.687	0
1	22102409	355	High	1.5	Vague	2	18	15	20	14.5	19.6	0.4	20	15	18	0.4	19.6	14.5	2	0.743	0.001	D	15	19.6	1035.190	1035.790	1036.533	1036.536	0
1	22102409	356	High	1.5	Vague	2	15	17	27	19.6	26.7	0.9	17	15	27	26.7	19.6	0.9	2	0.239	0.001	L	17	26.7	1037.038	1039.318	1039.557	1039.560	0
1	22102409	357	High	1.5	Vague	2	18	17	26	14.5	26.7	3.3	17	26	18	26.7	3.3	14.5	1	0.309	0.001	R	18	14.5	1040.062	1042.136	1042.445	1042.447	0
1	22102409	358	High	1.5	Precise	1	12	17	16	16.6	26.7	5.4	17	16	12	26.7	5.4	16.6	2	0.000	2.192	L	17	26.7	1042.950	1044.637	1044.637	1044.650	0
1	22102409	359	High	1.5	Precise	1	18	17	6	14.5	26.7	1.1	6	18	17	1.1	14.5	26.7	1	0.262	0.001	D	18	14.5	1045.154	1047.447	1047.709	1047.711	0
1	22102409	360	High	1.5	Vague	2	12	15	26	16.6	19.6	3.3	15	12	26	19.6	16.6	3.3	3	0.760	0.000	R	26	3.3	1048.214	1049.381	1050.141	1050.143	0
