Group	subID	trial	TimePressure	TimeConstraint	Vagueness	Vaguenesscode	ID1	ID2	ID3	V1	V2	V3	ID_left	ID_middle	ID_right	Bid_left	Bid_middle	Bid_right	chosenItem	RT	RTvariance	chosenPosition	chosenID	chosenValue	fixation_time	option_time	choice_time	feedback_time	timeout
2	22071909	1	Low	10.0	Precise	1	25	33	20	27.2	90.0	5.6	25	20	33	27.2	5.6	90.0	3	1.079	0.000	D	20	5.6	6.546	7.040	8.119	8.122	0
2	22071909	2	Low	10.0	Precise	1	31	32	26	32.6	32.8	25.7	32	31	26	32.8	32.6	25.7	2	1.216	0.000	L	32	32.8	8.626	10.479	11.695	11.698	0
2	22071909	3	Low	10.0	Precise	1	25	33	28	27.2	90.0	15.1	33	28	25	90.0	15.1	27.2	2	4.804	0.001	L	33	90.0	12.201	14.411	19.215	19.217	0
2	22071909	4	Low	10.0	Precise	1	25	34	35	27.2	32.7	19.8	25	34	35	27.2	32.7	19.8	1	1.671	0.000	L	25	27.2	19.721	20.864	22.535	22.538	0
2	22071909	5	Low	10.0	Vague	2	32	33	14	32.8	90.0	46.2	14	32	33	46.2	32.8	90.0	2	1.589	0.001	R	33	90.0	23.041	25.386	26.975	26.979	0
2	22071909	6	Low	10.0	Precise	1	32	33	20	32.8	90.0	5.6	32	20	33	32.8	5.6	90.0	2	1.009	0.000	R	33	90.0	27.484	28.077	29.087	29.089	0
2	22071909	7	Low	10.0	Precise	1	25	33	35	27.2	90.0	19.8	33	25	35	90.0	27.2	19.8	2	1.219	0.000	L	33	90.0	29.591	31.795	33.015	33.018	0
2	22071909	8	Low	10.0	Vague	2	25	33	9	27.2	90.0	10.8	9	33	25	10.8	90.0	27.2	2	1.460	0.001	D	33	90.0	33.521	34.571	36.031	36.034	0
2	22071909	9	Low	10.0	Precise	1	36	33	23	57.4	90.0	1.9	23	36	33	1.9	57.4	90.0	2	1.161	0.000	R	33	90.0	36.537	39.166	40.326	40.329	0
2	22071909	10	Low	10.0	Vague	2	25	34	7	27.2	32.7	6.2	7	25	34	6.2	27.2	32.7	1	1.378	0.000	D	25	27.2	40.832	41.581	42.959	42.961	0
2	22071909	11	Low	10.0	Precise	1	25	34	23	27.2	32.7	1.9	34	23	25	32.7	1.9	27.2	1	1.363	0.000	R	25	27.2	43.464	45.604	46.967	46.969	0
2	22071909	12	Low	10.0	Vague	2	34	33	2	32.7	90.0	2.8	34	33	2	32.7	90.0	2.8	2	1.309	0.001	D	33	90.0	47.472	49.098	50.407	50.409	0
2	22071909	13	Low	10.0	Precise	1	25	31	35	27.2	32.6	19.8	35	25	31	19.8	27.2	32.6	1	1.451	0.000	D	25	27.2	50.912	52.907	54.358	54.361	0
2	22071909	14	Low	10.0	Vague	2	32	33	2	32.8	90.0	2.8	33	32	2	90.0	32.8	2.8	1	1.847	0.000	D	32	32.8	54.865	57.439	59.286	59.289	0
2	22071909	15	Low	10.0	Vague	2	34	36	2	32.7	57.4	2.8	2	34	36	2.8	32.7	57.4	2	0.745	0.001	R	36	57.4	59.792	60.534	61.279	61.281	0
2	22071909	16	Low	10.0	Vague	2	31	36	2	32.6	57.4	2.8	36	31	2	57.4	32.6	2.8	2	0.683	0.000	L	36	57.4	61.784	64.339	65.023	65.025	0
2	22071909	17	Low	10.0	Vague	2	31	36	4	32.6	57.4	7.9	36	31	4	57.4	32.6	7.9	2	0.650	0.000	L	36	57.4	65.529	66.293	66.943	66.945	0
2	22071909	18	Low	10.0	Vague	2	36	33	7	57.4	90.0	6.2	7	33	36	6.2	90.0	57.4	1	0.689	0.000	R	36	57.4	67.449	68.734	69.423	69.425	0
2	22071909	19	Low	10.0	Vague	2	25	32	2	27.2	32.8	2.8	25	32	2	27.2	32.8	2.8	1	2.696	0.000	L	25	27.2	69.928	71.743	74.439	74.441	0
2	22071909	20	Low	10.0	Vague	2	25	31	2	27.2	32.6	2.8	25	31	2	27.2	32.6	2.8	1	1.466	0.001	L	25	27.2	74.944	76.916	78.383	78.385	0
2	22071909	21	Low	10.0	Precise	1	34	33	20	32.7	90.0	5.6	33	20	34	90.0	5.6	32.7	3	1.097	0.000	D	20	5.6	78.888	80.197	81.295	81.297	0
2	22071909	22	Low	10.0	Precise	1	34	36	28	32.7	57.4	15.1	34	36	28	32.7	57.4	15.1	2	1.247	0.001	D	36	57.4	81.800	82.720	83.967	83.969	0
2	22071909	23	Low	10.0	Vague	2	31	34	14	32.6	32.7	46.2	34	31	14	32.7	32.6	46.2	1	1.205	0.001	D	31	32.6	84.472	86.754	87.959	87.961	0
2	22071909	24	Low	10.0	Precise	1	31	36	35	32.6	57.4	19.8	35	36	31	19.8	57.4	32.6	1	0.716	0.000	R	31	32.6	88.464	89.987	90.702	90.705	0
2	22071909	25	Low	10.0	Precise	1	25	33	26	27.2	90.0	25.7	25	26	33	27.2	25.7	90.0	2	1.726	0.000	R	33	90.0	91.208	93.816	95.543	95.545	0
2	22071909	26	Low	10.0	Precise	1	34	32	23	32.7	32.8	1.9	34	23	32	32.7	1.9	32.8	2	1.804	0.000	R	32	32.8	96.048	97.426	99.230	99.233	0
2	22071909	27	Low	10.0	Vague	2	25	36	4	27.2	57.4	7.9	25	4	36	27.2	7.9	57.4	2	0.810	0.001	R	36	57.4	99.737	100.700	101.511	101.513	0
2	22071909	28	Low	10.0	Precise	1	31	33	20	32.6	90.0	5.6	33	20	31	90.0	5.6	32.6	2	1.239	0.000	L	33	90.0	102.017	104.200	105.439	105.441	0
2	22071909	29	Low	10.0	Vague	2	25	31	1	27.2	32.6	15.6	31	1	25	32.6	15.6	27.2	2	1.878	0.001	L	31	32.6	105.944	108.657	110.535	110.537	0
2	22071909	30	Low	10.0	Vague	2	25	36	7	27.2	57.4	6.2	7	25	36	6.2	27.2	57.4	2	0.807	0.000	R	36	57.4	111.039	113.552	114.359	114.361	0
2	22071909	31	Low	10.0	Vague	2	34	32	9	32.7	32.8	10.8	9	34	32	10.8	32.7	32.8	2	1.996	0.001	R	32	32.8	114.864	116.931	118.927	118.929	0
2	22071909	32	Low	10.0	Precise	1	34	32	22	32.7	32.8	9.1	32	22	34	32.8	9.1	32.7	2	1.237	0.000	L	32	32.8	119.432	120.114	121.351	121.353	0
2	22071909	33	Low	10.0	Precise	1	25	34	20	27.2	32.7	5.6	34	25	20	32.7	27.2	5.6	3	0.848	0.000	R	20	5.6	121.856	123.086	123.934	123.937	0
2	22071909	34	Low	10.0	Vague	2	32	33	9	32.8	90.0	10.8	33	32	9	90.0	32.8	10.8	2	2.662	0.000	L	33	90.0	124.440	126.553	129.214	129.217	0
2	22071909	35	Low	10.0	Vague	2	31	32	14	32.6	32.8	46.2	32	14	31	32.8	46.2	32.6	1	1.280	0.001	R	31	32.6	129.720	130.975	132.255	132.257	0
2	22071909	36	Low	10.0	Precise	1	25	32	23	27.2	32.8	1.9	23	25	32	1.9	27.2	32.8	2	2.986	0.000	R	32	32.8	132.760	135.557	138.543	138.545	0
2	22071909	37	Low	10.0	Precise	1	36	33	28	57.4	90.0	15.1	28	36	33	15.1	57.4	90.0	1	1.992	0.000	D	36	57.4	139.047	140.959	142.951	142.953	0
2	22071909	38	Low	10.0	Vague	2	34	36	14	32.7	57.4	46.2	36	34	14	57.4	32.7	46.2	2	0.822	0.000	L	36	57.4	143.457	145.665	146.487	146.489	0
2	22071909	39	Low	10.0	Vague	2	31	34	7	32.6	32.7	6.2	34	31	7	32.7	32.6	6.2	1	2.074	0.000	D	31	32.6	146.992	149.485	151.559	151.561	0
2	22071909	40	Low	10.0	Precise	1	31	32	22	32.6	32.8	9.1	22	32	31	9.1	32.8	32.6	1	1.207	0.001	R	31	32.6	152.064	154.000	155.207	155.209	0
2	22071909	41	Low	10.0	Precise	1	25	31	26	27.2	32.6	25.7	26	25	31	25.7	27.2	32.6	2	0.952	0.001	R	31	32.6	155.712	156.238	157.191	157.193	0
2	22071909	42	Low	10.0	Precise	1	31	34	23	32.6	32.7	1.9	34	31	23	32.7	32.6	1.9	1	3.018	0.000	D	31	32.6	157.696	160.117	163.135	163.137	0
2	22071909	43	Low	10.0	Vague	2	25	31	14	27.2	32.6	46.2	31	25	14	32.6	27.2	46.2	2	1.133	0.000	L	31	32.6	163.640	165.969	167.102	167.105	0
2	22071909	44	Low	10.0	Precise	1	34	33	23	32.7	90.0	1.9	23	34	33	1.9	32.7	90.0	2	1.221	0.001	R	33	90.0	167.607	169.770	170.991	170.993	0
2	22071909	45	Low	10.0	Vague	2	31	32	4	32.6	32.8	7.9	32	4	31	32.8	7.9	32.6	1	1.148	0.000	R	31	32.6	171.496	173.410	174.558	174.561	0
2	22071909	46	Low	10.0	Vague	2	34	33	4	32.7	90.0	7.9	33	4	34	90.0	7.9	32.7	2	0.865	0.000	L	33	90.0	175.064	178.037	178.903	178.905	0
2	22071909	47	Low	10.0	Vague	2	31	32	9	32.6	32.8	10.8	31	9	32	32.6	10.8	32.8	2	1.507	0.001	R	32	32.8	179.408	182.132	183.639	183.642	0
2	22071909	48	Low	10.0	Vague	2	31	34	4	32.6	32.7	7.9	34	4	31	32.7	7.9	32.6	1	1.732	0.001	R	31	32.6	184.145	185.211	186.943	186.945	0
2	22071909	49	Low	10.0	Vague	2	36	33	14	57.4	90.0	46.2	36	33	14	57.4	90.0	46.2	1	1.075	0.001	L	36	57.4	187.448	190.347	191.423	191.426	0
2	22071909	50	Low	10.0	Vague	2	32	33	7	32.8	90.0	6.2	33	32	7	90.0	32.8	6.2	2	2.923	0.001	L	33	90.0	191.928	192.700	195.623	195.625	0
2	22071909	51	Low	10.0	Vague	2	34	33	7	32.7	90.0	6.2	34	33	7	32.7	90.0	6.2	2	1.791	0.000	D	33	90.0	196.128	197.312	199.103	199.105	0
2	22071909	52	Low	10.0	Precise	1	25	31	23	27.2	32.6	1.9	23	25	31	1.9	27.2	32.6	2	5.209	0.000	R	31	32.6	199.608	202.397	207.607	207.609	0
2	22071909	53	Low	10.0	Precise	1	34	32	20	32.7	32.8	5.6	32	34	20	32.8	32.7	5.6	3	1.427	0.000	R	20	5.6	208.113	210.716	212.143	212.145	0
2	22071909	54	Low	10.0	Precise	1	31	36	23	32.6	57.4	1.9	23	31	36	1.9	32.6	57.4	2	1.047	0.000	R	36	57.4	212.648	215.272	216.319	216.321	0
2	22071909	55	Low	10.0	Precise	1	31	32	28	32.6	32.8	15.1	32	31	28	32.8	32.6	15.1	1	1.749	0.001	D	31	32.6	216.824	218.274	220.023	220.026	0
2	22071909	56	Low	10.0	Precise	1	25	36	26	27.2	57.4	25.7	25	36	26	27.2	57.4	25.7	2	1.447	0.000	D	36	57.4	220.529	221.864	223.311	223.313	0
2	22071909	57	Low	10.0	Precise	1	32	33	22	32.8	90.0	9.1	33	22	32	90.0	9.1	32.8	2	2.553	0.000	L	33	90.0	223.816	224.382	226.934	226.937	0
2	22071909	58	Low	10.0	Vague	2	31	36	9	32.6	57.4	10.8	9	31	36	10.8	32.6	57.4	2	1.870	0.000	R	36	57.4	227.440	228.049	229.919	229.921	0
2	22071909	59	Low	10.0	Vague	2	36	33	2	57.4	90.0	2.8	2	33	36	2.8	90.0	57.4	2	1.127	0.000	D	33	90.0	230.424	233.199	234.326	234.329	0
2	22071909	60	Low	10.0	Vague	2	34	32	1	32.7	32.8	15.6	32	1	34	32.8	15.6	32.7	2	1.040	0.000	L	32	32.8	234.832	237.399	238.439	238.441	0
2	22071909	61	Low	10.0	Vague	2	34	36	4	32.7	57.4	7.9	36	4	34	57.4	7.9	32.7	2	1.051	0.001	L	36	57.4	244.069	245.052	246.103	246.105	0
2	22071909	62	Low	10.0	Precise	1	31	34	20	32.6	32.7	5.6	31	34	20	32.6	32.7	5.6	1	1.626	0.000	L	31	32.6	246.608	249.549	251.175	251.177	0
2	22071909	63	Low	10.0	Precise	1	34	33	26	32.7	90.0	25.7	34	33	26	32.7	90.0	25.7	2	1.235	0.001	D	33	90.0	251.679	254.404	255.639	255.641	0
2	22071909	64	Low	10.0	Vague	2	32	33	4	32.8	90.0	7.9	4	33	32	7.9	90.0	32.8	2	1.002	0.000	D	33	90.0	256.144	258.933	259.935	259.937	0
2	22071909	65	Low	10.0	Precise	1	34	36	22	32.7	57.4	9.1	36	34	22	57.4	32.7	9.1	2	0.926	0.000	L	36	57.4	260.439	261.033	261.958	261.961	0
2	22071909	66	Low	10.0	Vague	2	25	34	1	27.2	32.7	15.6	34	25	1	32.7	27.2	15.6	1	1.497	0.000	D	25	27.2	262.463	264.998	266.495	266.497	0
2	22071909	67	Low	10.0	Precise	1	31	33	28	32.6	90.0	15.1	31	33	28	32.6	90.0	15.1	1	2.256	0.000	L	31	32.6	267.000	269.278	271.535	271.537	0
2	22071909	68	Low	10.0	Vague	2	31	32	2	32.6	32.8	2.8	31	32	2	32.6	32.8	2.8	1	2.172	0.000	L	31	32.6	272.040	273.699	275.871	275.873	0
2	22071909	69	Low	10.0	Precise	1	34	32	26	32.7	32.8	25.7	32	34	26	32.8	32.7	25.7	2	1.556	0.001	L	32	32.8	276.376	277.251	278.807	278.809	0
2	22071909	70	Low	10.0	Vague	2	31	32	1	32.6	32.8	15.6	31	1	32	32.6	15.6	32.8	1	1.327	0.000	L	31	32.6	279.312	280.087	281.414	281.417	0
2	22071909	71	Low	10.0	Vague	2	32	36	1	32.8	57.4	15.6	32	1	36	32.8	15.6	57.4	2	1.800	0.000	R	36	57.4	281.919	284.591	286.391	286.393	0
2	22071909	72	Low	10.0	Precise	1	31	36	20	32.6	57.4	5.6	20	36	31	5.6	57.4	32.6	2	1.012	0.000	D	36	57.4	286.895	289.762	290.774	290.777	0
2	22071909	73	Low	10.0	Precise	1	31	33	35	32.6	90.0	19.8	35	31	33	19.8	32.6	90.0	2	1.659	0.001	R	33	90.0	291.279	293.659	295.319	295.321	0
2	22071909	74	Low	10.0	Precise	1	25	32	26	27.2	32.8	25.7	25	32	26	27.2	32.8	25.7	2	2.720	0.000	D	32	32.8	295.824	298.526	301.246	301.249	0
2	22071909	75	Low	10.0	Vague	2	36	33	9	57.4	90.0	10.8	9	36	33	10.8	57.4	90.0	1	2.185	0.000	D	36	57.4	301.752	304.350	306.535	306.537	0
2	22071909	76	Low	10.0	Precise	1	25	34	28	27.2	32.7	15.1	28	34	25	15.1	32.7	27.2	1	1.948	0.000	R	25	27.2	307.040	308.267	310.215	310.217	0
2	22071909	77	Low	10.0	Precise	1	25	36	35	27.2	57.4	19.8	35	25	36	19.8	27.2	57.4	2	1.004	0.001	R	36	57.4	310.719	313.435	314.439	314.441	0
2	22071909	78	Low	10.0	Precise	1	34	33	22	32.7	90.0	9.1	34	22	33	32.7	9.1	90.0	2	2.312	0.001	R	33	90.0	314.944	316.278	318.591	318.593	0
2	22071909	79	Low	10.0	Precise	1	25	36	28	27.2	57.4	15.1	25	36	28	27.2	57.4	15.1	2	1.023	0.001	D	36	57.4	319.096	321.512	322.535	322.537	0
2	22071909	80	Low	10.0	Vague	2	31	32	7	32.6	32.8	6.2	7	32	31	6.2	32.8	32.6	1	2.684	0.000	R	31	32.6	323.040	325.675	328.358	328.361	0
2	22071909	81	Low	10.0	Precise	1	25	31	28	27.2	32.6	15.1	31	28	25	32.6	15.1	27.2	2	1.519	0.000	L	31	32.6	328.864	331.183	332.703	332.705	0
2	22071909	82	Low	10.0	Precise	1	34	36	23	32.7	57.4	1.9	23	34	36	1.9	32.7	57.4	2	0.731	0.001	R	36	57.4	333.208	336.052	336.783	336.786	0
2	22071909	83	Low	10.0	Precise	1	34	36	26	32.7	57.4	25.7	36	26	34	57.4	25.7	32.7	2	0.688	0.000	L	36	57.4	337.288	338.887	339.575	339.577	0
2	22071909	84	Low	10.0	Precise	1	25	33	22	27.2	90.0	9.1	22	33	25	9.1	90.0	27.2	2	1.279	0.000	D	33	90.0	340.081	342.543	343.823	343.825	0
2	22071909	85	Low	10.0	Vague	2	32	36	2	32.8	57.4	2.8	36	32	2	57.4	32.8	2.8	2	0.927	0.000	L	36	57.4	344.329	346.319	347.246	347.249	0
2	22071909	86	Low	10.0	Vague	2	25	32	7	27.2	32.8	6.2	32	25	7	32.8	27.2	6.2	2	1.346	0.001	L	32	32.8	347.752	348.580	349.927	349.929	0
2	22071909	87	Low	10.0	Precise	1	36	33	35	57.4	90.0	19.8	36	33	35	57.4	90.0	19.8	1	0.875	0.000	L	36	57.4	350.432	353.124	353.999	354.001	0
2	22071909	88	Low	10.0	Vague	2	25	36	2	27.2	57.4	2.8	2	25	36	2.8	27.2	57.4	2	0.849	0.000	R	36	57.4	354.503	355.190	356.039	356.041	0
2	22071909	89	Low	10.0	Precise	1	25	34	22	27.2	32.7	9.1	25	22	34	27.2	9.1	32.7	1	1.625	0.000	L	25	27.2	356.543	357.478	359.102	359.105	0
2	22071909	90	Low	10.0	Vague	2	34	33	1	32.7	90.0	15.6	34	33	1	32.7	90.0	15.6	2	1.206	0.001	D	33	90.0	359.608	361.472	362.679	362.681	0
2	22071909	91	Low	10.0	Precise	1	32	33	35	32.8	90.0	19.8	33	32	35	90.0	32.8	19.8	2	1.561	0.000	L	33	90.0	363.183	365.125	366.686	366.689	0
2	22071909	92	Low	10.0	Vague	2	31	33	14	32.6	90.0	46.2	31	33	14	32.6	90.0	46.2	2	1.892	0.001	D	33	90.0	367.193	369.979	371.871	371.873	0
2	22071909	93	Low	10.0	Precise	1	31	34	35	32.6	32.7	19.8	34	31	35	32.7	32.6	19.8	1	0.750	0.001	D	31	32.6	372.376	375.145	375.895	375.897	0
2	22071909	94	Low	10.0	Precise	1	32	36	23	32.8	57.4	1.9	23	36	32	1.9	57.4	32.8	2	1.159	0.000	D	36	57.4	376.400	377.488	378.647	378.649	0
2	22071909	95	Low	10.0	Vague	2	25	33	4	27.2	90.0	7.9	25	4	33	27.2	7.9	90.0	2	2.343	0.001	R	33	90.0	379.153	381.672	384.014	384.017	0
2	22071909	96	Low	10.0	Precise	1	32	36	22	32.8	57.4	9.1	22	36	32	9.1	57.4	32.8	2	1.288	0.000	D	36	57.4	384.520	387.286	388.574	388.577	0
2	22071909	97	Low	10.0	Precise	1	32	36	28	32.8	57.4	15.1	28	36	32	15.1	57.4	32.8	2	5.230	0.000	D	36	57.4	389.080	390.400	395.631	395.633	0
2	22071909	98	Low	10.0	Precise	1	34	36	35	32.7	57.4	19.8	36	35	34	57.4	19.8	32.7	2	3.405	0.001	L	36	57.4	396.135	397.761	401.167	401.169	0
2	22071909	99	Low	10.0	Vague	2	31	36	7	32.6	57.4	6.2	7	36	31	6.2	57.4	32.6	2	3.913	0.001	D	36	57.4	401.672	404.493	408.406	408.409	0
2	22071909	100	Low	10.0	Vague	2	25	36	14	27.2	57.4	46.2	25	14	36	27.2	46.2	57.4	2	0.826	0.000	R	36	57.4	408.912	411.692	412.518	412.521	0
2	22071909	101	Low	10.0	Precise	1	34	32	35	32.7	32.8	19.8	35	32	34	19.8	32.8	32.7	2	0.728	0.000	D	32	32.8	413.023	414.246	414.974	414.977	0
2	22071909	102	Low	10.0	Vague	2	34	32	4	32.7	32.8	7.9	32	4	34	32.8	7.9	32.7	2	1.109	0.000	L	32	32.8	415.479	416.273	417.382	417.385	0
2	22071909	103	Low	10.0	Vague	2	31	33	4	32.6	90.0	7.9	31	33	4	32.6	90.0	7.9	2	1.899	0.001	D	33	90.0	417.888	420.580	422.479	422.481	0
2	22071909	104	Low	10.0	Vague	2	25	34	4	27.2	32.7	7.9	25	34	4	27.2	32.7	7.9	1	1.118	0.001	L	25	27.2	422.983	424.817	425.935	425.937	0
2	22071909	105	Low	10.0	Precise	1	25	31	22	27.2	32.6	9.1	25	31	22	27.2	32.6	9.1	2	1.205	0.000	D	31	32.6	426.439	428.033	429.238	429.241	0
2	22071909	106	Low	10.0	Vague	2	34	32	7	32.7	32.8	6.2	32	34	7	32.8	32.7	6.2	3	1.876	0.000	R	7	6.2	429.744	431.234	433.110	433.113	0
2	22071909	107	Low	10.0	Precise	1	31	32	23	32.6	32.8	1.9	32	31	23	32.8	32.6	1.9	1	1.896	0.001	D	31	32.6	433.615	434.935	436.831	436.833	0
2	22071909	108	Low	10.0	Vague	2	25	33	7	27.2	90.0	6.2	33	7	25	90.0	6.2	27.2	2	1.460	0.000	L	33	90.0	437.336	438.083	439.542	439.545	0
2	22071909	109	Low	10.0	Vague	2	31	33	1	32.6	90.0	15.6	33	31	1	90.0	32.6	15.6	2	1.346	0.000	L	33	90.0	440.048	442.268	443.614	443.617	0
2	22071909	110	Low	10.0	Precise	1	32	36	26	32.8	57.4	25.7	36	26	32	57.4	25.7	32.8	2	0.898	0.000	L	36	57.4	444.119	446.116	447.014	447.017	0
2	22071909	111	Low	10.0	Vague	2	25	31	9	27.2	32.6	10.8	25	31	9	27.2	32.6	10.8	2	1.285	0.000	D	31	32.6	447.519	450.393	451.679	451.681	0
2	22071909	112	Low	10.0	Precise	1	31	33	23	32.6	90.0	1.9	31	33	23	32.6	90.0	1.9	2	1.539	0.001	D	33	90.0	452.184	452.756	454.295	454.297	0
2	22071909	113	Low	10.0	Vague	2	34	32	14	32.7	32.8	46.2	32	34	14	32.8	32.7	46.2	2	2.476	0.000	L	32	32.8	454.800	455.626	458.102	458.105	0
2	22071909	114	Low	10.0	Precise	1	25	36	20	27.2	57.4	5.6	36	25	20	57.4	27.2	5.6	2	0.675	0.000	L	36	57.4	458.608	460.339	461.014	461.017	0
2	22071909	115	Low	10.0	Vague	2	25	33	14	27.2	90.0	46.2	25	14	33	27.2	46.2	90.0	2	1.489	0.001	R	33	90.0	461.519	463.230	464.719	464.721	0
2	22071909	116	Low	10.0	Vague	2	25	32	1	27.2	32.8	15.6	1	25	32	15.6	27.2	32.8	2	0.844	0.000	R	32	32.8	465.224	466.866	467.710	467.713	0
2	22071909	117	Low	10.0	Vague	2	25	34	9	27.2	32.7	10.8	34	9	25	32.7	10.8	27.2	1	1.932	0.000	R	25	27.2	468.215	471.035	472.966	472.969	0
2	22071909	118	Low	10.0	Vague	2	32	36	7	32.8	57.4	6.2	7	36	32	6.2	57.4	32.8	2	0.844	0.000	D	36	57.4	473.471	475.506	476.350	476.353	0
2	22071909	119	Low	10.0	Vague	2	34	36	7	32.7	57.4	6.2	36	7	34	57.4	6.2	32.7	2	0.748	0.000	L	36	57.4	476.856	478.707	479.454	479.457	0
2	22071909	120	Low	10.0	Precise	1	25	32	35	27.2	32.8	19.8	25	35	32	27.2	19.8	32.8	2	0.739	0.000	R	32	32.8	479.960	481.132	481.870	481.873	0
2	22071909	121	Low	10.0	Precise	1	25	34	26	27.2	32.7	25.7	34	25	26	32.7	27.2	25.7	1	2.124	0.001	D	25	27.2	497.689	499.011	501.134	501.137	0
2	22071909	122	Low	10.0	Vague	2	25	32	14	27.2	32.8	46.2	25	14	32	27.2	46.2	32.8	2	1.356	0.000	R	32	32.8	501.640	502.242	503.598	503.601	0
2	22071909	123	Low	10.0	Vague	2	25	32	4	27.2	32.8	7.9	25	32	4	27.2	32.8	7.9	2	1.353	0.000	D	32	32.8	504.103	505.565	506.918	506.921	0
2	22071909	124	Low	10.0	Vague	2	31	33	7	32.6	90.0	6.2	7	31	33	6.2	32.6	90.0	2	1.839	0.000	R	33	90.0	507.423	509.591	511.430	511.433	0
2	22071909	125	Low	10.0	Precise	1	31	36	28	32.6	57.4	15.1	31	28	36	32.6	15.1	57.4	2	1.021	0.000	R	36	57.4	511.936	513.849	514.870	514.873	0
2	22071909	126	Low	10.0	Vague	2	25	33	2	27.2	90.0	2.8	2	25	33	2.8	27.2	90.0	2	1.533	0.000	R	33	90.0	515.375	516.513	518.046	518.049	0
2	22071909	127	Low	10.0	Precise	1	25	32	22	27.2	32.8	9.1	25	22	32	27.2	9.1	32.8	2	0.828	0.000	R	32	32.8	518.551	520.866	521.694	521.697	0
2	22071909	128	Low	10.0	Precise	1	31	32	35	32.6	32.8	19.8	31	35	32	32.6	19.8	32.8	1	1.055	0.000	L	31	32.6	522.199	523.079	524.134	524.137	0
2	22071909	129	Low	10.0	Vague	2	25	36	9	27.2	57.4	10.8	25	9	36	27.2	10.8	57.4	2	0.607	0.001	R	36	57.4	524.640	527.255	527.862	527.865	0
2	22071909	130	Low	10.0	Precise	1	31	34	22	32.6	32.7	9.1	31	34	22	32.6	32.7	9.1	1	1.377	0.000	L	31	32.6	528.367	528.949	530.326	530.329	0
2	22071909	131	Low	10.0	Vague	2	31	34	2	32.6	32.7	2.8	34	31	2	32.7	32.6	2.8	1	0.848	0.001	D	31	32.6	530.831	533.823	534.670	534.673	0
2	22071909	132	Low	10.0	Vague	2	31	34	9	32.6	32.7	10.8	31	34	9	32.6	32.7	10.8	1	1.305	0.000	L	31	32.6	535.176	537.557	538.862	538.865	0
2	22071909	133	Low	10.0	Precise	1	32	33	26	32.8	90.0	25.7	32	33	26	32.8	90.0	25.7	2	1.583	0.001	D	33	90.0	539.367	539.975	541.558	541.561	0
2	22071909	134	Low	10.0	Precise	1	25	32	28	27.2	32.8	15.1	32	28	25	32.8	15.1	27.2	2	3.107	0.001	L	32	32.8	542.063	544.780	547.886	547.889	0
2	22071909	135	Low	10.0	Vague	2	32	33	1	32.8	90.0	15.6	32	1	33	32.8	15.6	90.0	2	1.377	0.000	R	33	90.0	548.391	549.302	550.678	550.681	0
2	22071909	136	Low	10.0	Vague	2	31	33	9	32.6	90.0	10.8	9	31	33	10.8	32.6	90.0	2	1.126	0.001	R	33	90.0	551.183	554.161	555.286	555.289	0
2	22071909	137	Low	10.0	Vague	2	32	36	14	32.8	57.4	46.2	32	14	36	32.8	46.2	57.4	2	1.738	0.001	R	36	57.4	555.792	557.548	559.286	559.289	0
2	22071909	138	Low	10.0	Precise	1	36	33	22	57.4	90.0	9.1	22	36	33	9.1	57.4	90.0	1	3.606	0.001	D	36	57.4	559.791	561.433	565.038	565.041	0
2	22071909	139	Low	10.0	Precise	1	31	36	22	32.6	57.4	9.1	36	31	22	57.4	32.6	9.1	2	1.914	0.000	L	36	57.4	565.544	568.252	570.166	570.169	0
2	22071909	140	Low	10.0	Vague	2	25	36	1	27.2	57.4	15.6	1	25	36	15.6	27.2	57.4	3	0.000	3.274	L	1	15.6	570.672	573.440	573.440	573.450	0
2	22071909	141	Low	10.0	Precise	1	34	36	20	32.7	57.4	5.6	34	36	20	32.7	57.4	5.6	2	0.698	0.001	D	36	57.4	573.953	574.804	575.502	575.505	0
2	22071909	142	Low	10.0	Precise	1	31	33	26	32.6	90.0	25.7	26	33	31	25.7	90.0	32.6	2	1.381	0.000	D	33	90.0	576.007	578.530	579.910	579.913	0
2	22071909	143	Low	10.0	Precise	1	25	36	22	27.2	57.4	9.1	22	36	25	9.1	57.4	27.2	2	0.895	0.000	D	36	57.4	580.415	582.808	583.702	583.705	0
2	22071909	144	Low	10.0	Vague	2	34	33	14	32.7	90.0	46.2	34	14	33	32.7	46.2	90.0	2	1.360	0.000	R	33	90.0	584.208	585.758	587.118	587.121	0
2	22071909	145	Low	10.0	Precise	1	25	31	20	27.2	32.6	5.6	31	25	20	32.6	27.2	5.6	3	0.658	0.000	R	20	5.6	587.623	589.028	589.686	589.688	0
2	22071909	146	Low	10.0	Precise	1	34	33	35	32.7	90.0	19.8	34	33	35	32.7	90.0	19.8	2	1.008	0.000	D	33	90.0	590.192	590.974	591.982	591.985	0
2	22071909	147	Low	10.0	Vague	2	32	36	9	32.8	57.4	10.8	32	9	36	32.8	10.8	57.4	2	0.867	0.001	R	36	57.4	592.487	594.404	595.271	595.273	0
2	22071909	148	Low	10.0	Precise	1	32	33	23	32.8	90.0	1.9	33	23	32	90.0	1.9	32.8	2	2.016	0.000	L	33	90.0	595.775	597.063	599.078	599.081	0
2	22071909	149	Low	10.0	Precise	1	25	33	23	27.2	90.0	1.9	25	33	23	27.2	90.0	1.9	2	5.565	0.000	D	33	90.0	599.583	602.105	607.670	607.673	0
2	22071909	150	Low	10.0	Vague	2	25	32	9	27.2	32.8	10.8	32	9	25	32.8	10.8	27.2	2	1.285	0.000	L	32	32.8	608.176	609.073	610.358	610.361	0
2	22071909	151	Low	10.0	Vague	2	25	31	4	27.2	32.6	7.9	31	4	25	32.6	7.9	27.2	2	0.765	0.000	L	31	32.6	610.863	612.457	613.222	613.224	0
2	22071909	152	Low	10.0	Vague	2	36	33	4	57.4	90.0	7.9	33	4	36	90.0	7.9	57.4	1	0.678	0.000	R	36	57.4	613.727	614.592	615.270	615.273	0
2	22071909	153	Low	10.0	Vague	2	34	32	2	32.7	32.8	2.8	2	34	32	2.8	32.7	32.8	2	1.449	0.000	R	32	32.8	615.775	617.902	619.350	619.353	0
2	22071909	154	Low	10.0	Precise	1	25	36	23	27.2	57.4	1.9	23	36	25	1.9	57.4	27.2	2	1.557	0.000	D	36	57.4	619.855	621.978	623.534	623.537	0
2	22071909	155	Low	10.0	Vague	2	25	34	2	27.2	32.7	2.8	34	2	25	32.7	2.8	27.2	1	6.060	0.000	R	25	27.2	624.040	625.754	631.814	631.817	0
2	22071909	156	Low	10.0	Precise	1	36	33	26	57.4	90.0	25.7	36	33	26	57.4	90.0	25.7	1	0.839	0.000	L	36	57.4	632.320	634.456	635.294	635.296	0
2	22071909	157	Low	10.0	Vague	2	32	36	4	32.8	57.4	7.9	32	4	36	32.8	7.9	57.4	2	0.672	0.000	R	36	57.4	635.799	637.182	637.854	637.856	0
2	22071909	158	Low	10.0	Vague	2	31	34	1	32.6	32.7	15.6	34	31	1	32.7	32.6	15.6	1	0.843	0.000	D	31	32.6	638.359	639.091	639.934	639.937	0
2	22071909	159	Low	10.0	Precise	1	25	32	20	27.2	32.8	5.6	20	25	32	5.6	27.2	32.8	2	0.857	0.001	R	32	32.8	640.440	642.317	643.174	643.178	0
2	22071909	160	Low	10.0	Precise	1	31	33	22	32.6	90.0	9.1	31	22	33	32.6	9.1	90.0	1	1.382	0.000	L	31	32.6	643.681	645.056	646.438	646.441	0
2	22071909	161	Low	10.0	Vague	2	31	33	2	32.6	90.0	2.8	2	33	31	2.8	90.0	32.6	1	6.140	0.000	R	31	32.6	646.944	647.587	653.726	653.729	0
2	22071909	162	Low	10.0	Precise	1	31	36	26	32.6	57.4	25.7	26	36	31	25.7	57.4	32.6	2	0.594	0.000	D	36	57.4	654.231	656.604	657.198	657.200	0
2	22071909	163	Low	10.0	Vague	2	25	33	1	27.2	90.0	15.6	1	25	33	15.6	27.2	90.0	2	0.932	0.001	R	33	90.0	657.703	659.186	660.118	660.121	0
2	22071909	164	Low	10.0	Vague	2	31	36	14	32.6	57.4	46.2	31	14	36	32.6	46.2	57.4	2	5.259	0.000	R	36	57.4	660.624	662.363	667.622	667.625	0
2	22071909	165	Low	10.0	Precise	1	36	33	20	57.4	90.0	5.6	36	33	20	57.4	90.0	5.6	1	0.743	0.000	L	36	57.4	668.128	669.616	670.358	670.361	0
2	22071909	166	Low	10.0	Precise	1	32	33	28	32.8	90.0	15.1	28	33	32	15.1	90.0	32.8	2	1.683	0.000	D	33	90.0	670.864	673.396	675.078	675.081	0
2	22071909	167	Low	10.0	Vague	2	36	33	1	57.4	90.0	15.6	1	33	36	15.6	90.0	57.4	1	0.554	0.001	R	36	57.4	675.584	677.236	677.790	677.793	0
2	22071909	168	Low	10.0	Vague	2	34	36	1	32.7	57.4	15.6	34	36	1	32.7	57.4	15.6	2	0.710	0.000	D	36	57.4	678.295	680.744	681.454	681.457	0
2	22071909	169	Low	10.0	Precise	1	31	32	20	32.6	32.8	5.6	31	32	20	32.6	32.8	5.6	2	1.378	0.001	D	32	32.8	681.960	684.365	685.742	685.745	0
2	22071909	170	Low	10.0	Precise	1	34	32	28	32.7	32.8	15.1	32	34	28	32.8	32.7	15.1	2	4.250	0.000	L	32	32.8	686.248	688.404	692.654	692.656	0
2	22071909	171	Low	10.0	Vague	2	25	31	7	27.2	32.6	6.2	7	31	25	6.2	32.6	27.2	2	2.247	0.000	D	31	32.6	693.160	695.943	698.190	698.193	0
2	22071909	172	Low	10.0	Vague	2	25	34	14	27.2	32.7	46.2	34	14	25	32.7	46.2	27.2	1	1.127	0.001	R	25	27.2	698.695	701.503	702.630	702.633	0
2	22071909	173	Low	10.0	Vague	2	34	36	9	32.7	57.4	10.8	36	9	34	57.4	10.8	32.7	2	4.073	0.000	L	36	57.4	703.136	705.293	709.366	709.369	0
2	22071909	174	Low	10.0	Precise	1	32	36	35	32.8	57.4	19.8	36	32	35	57.4	32.8	19.8	2	0.620	0.000	L	36	57.4	709.872	710.490	711.110	711.112	0
2	22071909	175	Low	10.0	Vague	2	31	36	1	32.6	57.4	15.6	31	36	1	32.6	57.4	15.6	2	1.511	0.001	D	36	57.4	711.616	712.120	713.630	713.633	0
2	22071909	176	Low	10.0	Precise	1	32	36	20	32.8	57.4	5.6	36	20	32	57.4	5.6	32.8	2	1.629	0.000	L	36	57.4	714.135	715.978	717.606	717.609	0
2	22071909	177	Low	10.0	Precise	1	34	33	28	32.7	90.0	15.1	28	34	33	15.1	32.7	90.0	2	2.709	0.000	R	33	90.0	718.112	718.689	721.398	721.401	0
2	22071909	178	Low	10.0	Vague	2	34	33	9	32.7	90.0	10.8	9	34	33	10.8	32.7	90.0	2	2.481	0.000	R	33	90.0	721.904	723.597	726.078	726.080	0
2	22071909	179	Low	10.0	Precise	1	31	34	28	32.6	32.7	15.1	34	31	28	32.7	32.6	15.1	1	3.273	0.000	D	31	32.6	726.584	727.997	731.270	731.273	0
2	22071909	180	Low	10.0	Precise	1	31	34	26	32.6	32.7	25.7	31	34	26	32.6	32.7	25.7	1	2.413	0.001	L	31	32.6	731.776	734.081	736.494	736.496	0
2	22071909	181	High	1.5	Precise	1	25	34	27	27.2	32.7	18.7	25	34	27	27.2	32.7	18.7	1	1.362	0.001	L	25	27.2	748.687	749.428	750.790	750.793	0
2	22071909	182	High	1.5	Vague	2	25	31	5	27.2	32.6	24.5	5	25	31	24.5	27.2	32.6	2	1.143	0.001	R	31	32.6	751.296	752.279	753.422	753.425	0
2	22071909	183	High	1.5	Vague	2	25	32	11	27.2	32.8	6.9	25	32	11	27.2	32.8	6.9	2	1.369	0.000	D	32	32.8	753.928	755.709	757.078	757.080	0
2	22071909	184	High	1.5	Vague	2	25	36	6	27.2	57.4	6.1	6	25	36	6.1	27.2	57.4	2	0.602	0.000	R	36	57.4	757.584	759.348	759.950	759.952	0
2	22071909	185	High	1.5	Precise	1	32	36	19	32.8	57.4	3.9	32	19	36	32.8	3.9	57.4	2	0.959	0.000	R	36	57.4	760.456	763.239	764.198	764.200	0
2	22071909	186	High	1.5	Vague	2	25	32	13	27.2	32.8	9.1	13	32	25	9.1	32.8	27.2	2	1.444	0.001	D	32	32.8	764.703	765.378	766.822	766.825	0
2	22071909	187	High	1.5	Vague	2	25	33	13	27.2	90.0	9.1	25	33	13	27.2	90.0	9.1	NaN	NaN	NaN	NaN	NaN	NaN	767.327	769.816	NaN	771.306	1
2	22071909	188	High	1.5	Precise	1	32	36	30	32.8	57.4	19.8	32	36	30	32.8	57.4	19.8	1	0.711	0.000	L	32	32.8	773.310	774.703	775.414	775.418	0
2	22071909	189	High	1.5	Vague	2	25	33	5	27.2	90.0	24.5	33	5	25	90.0	24.5	27.2	3	0.887	0.000	D	5	24.5	775.922	776.615	777.502	777.505	0
2	22071909	190	High	1.5	Precise	1	32	33	21	32.8	90.0	1.6	32	33	21	32.8	90.0	1.6	2	1.299	0.000	D	33	90.0	778.008	778.603	779.902	779.905	0
2	22071909	191	High	1.5	Vague	2	31	36	11	32.6	57.4	6.9	11	31	36	6.9	32.6	57.4	2	0.786	0.000	R	36	57.4	780.408	783.396	784.182	784.185	0
2	22071909	192	High	1.5	Precise	1	31	32	24	32.6	32.8	6.1	31	32	24	32.6	32.8	6.1	1	1.447	0.000	L	31	32.6	784.687	787.607	789.054	789.056	0
2	22071909	193	High	1.5	Vague	2	31	34	8	32.6	32.7	56.3	31	34	8	32.6	32.7	56.3	1	1.325	0.000	L	31	32.6	789.559	790.697	792.022	792.025	0
2	22071909	194	High	1.5	Precise	1	34	33	21	32.7	90.0	1.6	34	21	33	32.7	1.6	90.0	2	1.063	0.000	R	33	90.0	792.527	794.783	795.846	795.848	0
2	22071909	195	High	1.5	Precise	1	32	33	19	32.8	90.0	3.9	19	32	33	3.9	32.8	90.0	2	1.222	0.001	R	33	90.0	796.352	796.864	798.086	798.089	0
2	22071909	196	High	1.5	Precise	1	34	32	24	32.7	32.8	6.1	34	24	32	32.7	6.1	32.8	2	0.587	0.000	R	32	32.8	798.592	801.515	802.102	802.104	0
2	22071909	197	High	1.5	Precise	1	31	36	27	32.6	57.4	18.7	36	31	27	57.4	32.6	18.7	1	1.123	0.001	D	31	32.6	802.608	804.084	805.206	805.208	0
2	22071909	198	High	1.5	Precise	1	25	34	30	27.2	32.7	19.8	34	30	25	32.7	19.8	27.2	NaN	NaN	NaN	NaN	NaN	NaN	805.712	807.728	NaN	809.214	1
2	22071909	199	High	1.5	Precise	1	25	31	19	27.2	32.6	3.9	25	19	31	27.2	3.9	32.6	2	0.754	0.000	R	31	32.6	811.218	813.292	814.046	814.048	0
2	22071909	200	High	1.5	Vague	2	34	33	13	32.7	90.0	9.1	33	13	34	90.0	9.1	32.7	2	0.882	0.000	L	33	90.0	814.551	816.580	817.462	817.464	0
2	22071909	201	High	1.5	Vague	2	31	36	13	32.6	57.4	9.1	31	36	13	32.6	57.4	9.1	2	1.238	0.001	D	36	57.4	817.968	818.512	819.750	819.752	0
2	22071909	202	High	1.5	Precise	1	32	36	27	32.8	57.4	18.7	36	32	27	57.4	32.8	18.7	2	1.246	0.000	L	36	57.4	820.256	820.831	822.078	822.080	0
2	22071909	203	High	1.5	Precise	1	31	33	29	32.6	90.0	12.3	33	29	31	90.0	12.3	32.6	2	1.207	0.000	L	33	90.0	822.583	824.126	825.334	825.336	0
2	22071909	204	High	1.5	Precise	1	31	36	29	32.6	57.4	12.3	36	31	29	57.4	32.6	12.3	2	0.748	0.001	L	36	57.4	825.840	827.842	828.590	828.593	0
2	22071909	205	High	1.5	Vague	2	32	33	3	32.8	90.0	11.1	3	33	32	11.1	90.0	32.8	NaN	NaN	NaN	NaN	NaN	NaN	829.095	831.406	NaN	832.892	1
2	22071909	206	High	1.5	Vague	2	34	32	11	32.7	32.8	6.9	32	34	11	32.8	32.7	6.9	2	1.093	0.000	L	32	32.8	834.896	836.233	837.326	837.328	0
2	22071909	207	High	1.5	Precise	1	25	34	21	27.2	32.7	1.6	34	25	21	32.7	27.2	1.6	1	1.108	0.001	D	25	27.2	837.831	838.506	839.614	839.617	0
2	22071909	208	High	1.5	Vague	2	34	36	5	32.7	57.4	24.5	5	36	34	24.5	57.4	32.7	3	0.884	0.001	L	5	24.5	840.120	843.002	843.886	843.889	0
2	22071909	209	High	1.5	Vague	2	25	31	13	27.2	32.6	9.1	31	13	25	32.6	9.1	27.2	2	0.972	0.000	L	31	32.6	844.391	845.498	846.470	846.472	0
2	22071909	210	High	1.5	Precise	1	25	31	30	27.2	32.6	19.8	30	25	31	19.8	27.2	32.6	2	0.994	0.000	R	31	32.6	846.976	849.220	850.214	850.216	0
2	22071909	211	High	1.5	Vague	2	32	36	3	32.8	57.4	11.1	3	32	36	11.1	32.8	57.4	2	0.641	0.000	R	36	57.4	850.719	851.349	851.990	851.992	0
2	22071909	212	High	1.5	Precise	1	31	33	19	32.6	90.0	3.9	19	33	31	3.9	90.0	32.6	2	1.125	0.000	D	33	90.0	852.496	854.281	855.406	855.408	0
2	22071909	213	High	1.5	Precise	1	34	36	29	32.7	57.4	12.3	36	34	29	57.4	32.7	12.3	2	0.908	0.000	L	36	57.4	855.911	858.234	859.142	859.144	0
2	22071909	214	High	1.5	Precise	1	31	33	24	32.6	90.0	6.1	31	33	24	32.6	90.0	6.1	2	1.241	0.000	D	33	90.0	859.648	861.141	862.382	862.384	0
2	22071909	215	High	1.5	Vague	2	31	32	6	32.6	32.8	6.1	32	6	31	32.8	6.1	32.6	NaN	NaN	NaN	NaN	NaN	NaN	862.888	865.045	NaN	866.531	1
2	22071909	216	High	1.5	Vague	2	31	34	11	32.6	32.7	6.9	31	11	34	32.6	6.9	32.7	1	0.741	0.000	L	31	32.6	868.535	870.361	871.102	871.104	0
2	22071909	217	High	1.5	Precise	1	34	36	24	32.7	57.4	6.1	34	24	36	32.7	6.1	57.4	2	0.637	0.000	R	36	57.4	871.607	874.537	875.174	875.176	0
2	22071909	218	High	1.5	Vague	2	25	32	5	27.2	32.8	24.5	5	25	32	24.5	27.2	32.8	2	1.141	0.000	R	32	32.8	875.679	876.865	878.006	878.008	0
2	22071909	219	High	1.5	Vague	2	34	36	3	32.7	57.4	11.1	3	34	36	11.1	32.7	57.4	2	0.497	0.000	R	36	57.4	878.511	880.005	880.502	880.504	0
2	22071909	220	High	1.5	Vague	2	34	33	5	32.7	90.0	24.5	34	5	33	32.7	24.5	90.0	2	1.173	0.001	R	33	90.0	881.007	883.225	884.398	884.401	0
2	22071909	221	High	1.5	Precise	1	34	32	29	32.7	32.8	12.3	32	34	29	32.8	32.7	12.3	2	1.032	0.000	L	32	32.8	884.904	886.830	887.862	887.864	0
2	22071909	222	High	1.5	Precise	1	31	32	21	32.6	32.8	1.6	32	31	21	32.8	32.6	1.6	2	0.783	0.000	L	32	32.8	888.367	890.799	891.582	891.584	0
2	22071909	223	High	1.5	Precise	1	34	32	19	32.7	32.8	3.9	34	19	32	32.7	3.9	32.8	2	0.773	0.001	R	32	32.8	892.087	893.041	893.814	893.816	0
2	22071909	224	High	1.5	Precise	1	34	32	30	32.7	32.8	19.8	32	30	34	32.8	19.8	32.7	2	0.926	0.000	L	32	32.8	894.320	895.240	896.166	896.168	0
2	22071909	225	High	1.5	Precise	1	25	33	21	27.2	90.0	1.6	33	25	21	90.0	27.2	1.6	2	0.802	0.000	L	33	90.0	896.671	898.331	899.134	899.136	0
2	22071909	226	High	1.5	Vague	2	31	34	6	32.6	32.7	6.1	31	6	34	32.6	6.1	32.7	1	1.391	0.000	L	31	32.6	899.638	901.519	902.910	902.912	0
2	22071909	227	High	1.5	Vague	2	25	36	8	27.2	57.4	56.3	25	8	36	27.2	56.3	57.4	2	0.560	0.001	R	36	57.4	903.415	904.854	905.414	905.417	0
2	22071909	228	High	1.5	Vague	2	32	33	11	32.8	90.0	6.9	32	33	11	32.8	90.0	6.9	1	1.241	0.000	L	32	32.8	905.920	908.141	909.382	909.384	0
2	22071909	229	High	1.5	Vague	2	31	33	3	32.6	90.0	11.1	3	33	31	11.1	90.0	32.6	2	0.688	0.001	D	33	90.0	909.887	912.854	913.542	913.544	0
2	22071909	230	High	1.5	Precise	1	31	36	24	32.6	57.4	6.1	36	31	24	57.4	32.6	6.1	2	0.540	0.000	L	36	57.4	914.048	916.082	916.622	916.624	0
2	22071909	231	High	1.5	Vague	2	25	36	11	27.2	57.4	6.9	11	25	36	6.9	27.2	57.4	2	0.898	0.001	R	36	57.4	917.127	919.164	920.062	920.064	0
2	22071909	232	High	1.5	Vague	2	31	32	5	32.6	32.8	24.5	32	31	5	32.8	32.6	24.5	2	1.372	0.000	L	32	32.8	920.568	922.969	924.342	924.345	0
2	22071909	233	High	1.5	Vague	2	34	36	11	32.7	57.4	6.9	11	34	36	6.9	32.7	57.4	2	0.796	0.000	R	36	57.4	924.847	925.578	926.374	926.376	0
2	22071909	234	High	1.5	Precise	1	34	33	19	32.7	90.0	3.9	19	33	34	3.9	90.0	32.7	3	1.233	0.001	L	19	3.9	926.879	929.518	930.750	930.753	0
2	22071909	235	High	1.5	Precise	1	31	36	30	32.6	57.4	19.8	30	31	36	19.8	32.6	57.4	2	0.587	0.001	R	36	57.4	931.256	932.939	933.526	933.529	0
2	22071909	236	High	1.5	Precise	1	31	33	27	32.6	90.0	18.7	33	31	27	90.0	32.6	18.7	1	0.695	0.000	D	31	32.6	934.032	934.567	935.262	935.264	0
2	22071909	237	High	1.5	Precise	1	25	34	24	27.2	32.7	6.1	24	34	25	6.1	32.7	27.2	1	0.724	0.001	R	25	27.2	935.767	937.922	938.646	938.648	0
2	22071909	238	High	1.5	Vague	2	34	32	5	32.7	32.8	24.5	32	5	34	32.8	24.5	32.7	NaN	NaN	NaN	NaN	NaN	NaN	939.151	942.073	NaN	943.560	1
2	22071909	239	High	1.5	Precise	1	34	32	27	32.7	32.8	18.7	32	34	27	32.8	32.7	18.7	2	1.210	0.001	L	32	32.8	945.563	948.476	949.686	949.689	0
2	22071909	240	High	1.5	Vague	2	25	33	6	27.2	90.0	6.1	6	25	33	6.1	27.2	90.0	2	1.043	0.001	R	33	90.0	950.192	952.043	953.086	953.088	0
2	22071909	241	High	1.5	Precise	1	25	34	29	27.2	32.7	12.3	29	34	25	12.3	32.7	27.2	1	1.085	0.001	R	25	27.2	958.167	959.545	960.630	960.633	0
2	22071909	242	High	1.5	Vague	2	25	31	6	27.2	32.6	6.1	31	25	6	32.6	27.2	6.1	2	0.602	0.001	L	31	32.6	961.135	961.708	962.310	962.313	0
2	22071909	243	High	1.5	Precise	1	31	34	29	32.6	32.7	12.3	34	31	29	32.7	32.6	12.3	1	1.055	0.000	D	31	32.6	962.816	963.687	964.742	964.745	0
2	22071909	244	High	1.5	Vague	2	31	36	8	32.6	57.4	56.3	8	36	31	56.3	57.4	32.6	NaN	NaN	NaN	NaN	NaN	NaN	965.248	968.004	NaN	969.493	1
2	22071909	245	High	1.5	Precise	1	34	32	21	32.7	32.8	1.6	21	34	32	1.6	32.7	32.8	2	0.741	0.000	R	32	32.8	971.497	973.592	974.334	974.336	0
2	22071909	246	High	1.5	Precise	1	31	36	21	32.6	57.4	1.6	21	36	31	1.6	57.4	32.6	2	0.874	0.000	D	36	57.4	974.839	976.292	977.166	977.168	0
2	22071909	247	High	1.5	Precise	1	36	33	27	57.4	90.0	18.7	36	33	27	57.4	90.0	18.7	1	0.568	0.001	L	36	57.4	977.672	980.278	980.846	980.849	0
2	22071909	248	High	1.5	Vague	2	31	36	6	32.6	57.4	6.1	6	36	31	6.1	57.4	32.6	2	0.639	0.000	D	36	57.4	981.352	982.847	983.486	983.489	0
2	22071909	249	High	1.5	Vague	2	25	34	6	27.2	32.7	6.1	25	34	6	27.2	32.7	6.1	1	1.217	0.001	L	25	27.2	983.992	986.469	987.686	987.688	0
2	22071909	250	High	1.5	Precise	1	31	33	21	32.6	90.0	1.6	31	21	33	32.6	1.6	90.0	1	0.625	0.000	L	31	32.6	988.191	990.292	990.918	990.920	0
2	22071909	251	High	1.5	Vague	2	31	32	11	32.6	32.8	6.9	32	31	11	32.8	32.6	6.9	1	1.419	0.000	D	31	32.6	991.422	994.323	995.742	995.744	0
2	22071909	252	High	1.5	Precise	1	36	33	30	57.4	90.0	19.8	30	33	36	19.8	90.0	57.4	1	0.558	0.001	R	36	57.4	996.247	997.080	997.638	997.640	0
2	22071909	253	High	1.5	Vague	2	25	31	8	27.2	32.6	56.3	8	25	31	56.3	27.2	32.6	2	0.764	0.000	R	31	32.6	998.143	999.930	1000.694	1000.696	0
2	22071909	254	High	1.5	Vague	2	25	34	3	27.2	32.7	11.1	34	25	3	32.7	27.2	11.1	1	1.243	0.000	D	25	27.2	1001.200	1003.395	1004.638	1004.640	0
2	22071909	255	High	1.5	Precise	1	31	34	30	32.6	32.7	19.8	30	34	31	19.8	32.7	32.6	1	0.970	0.000	R	31	32.6	1005.143	1008.116	1009.086	1009.088	0
2	22071909	256	High	1.5	Vague	2	36	33	11	57.4	90.0	6.9	11	36	33	6.9	57.4	90.0	1	1.036	0.000	D	36	57.4	1009.592	1010.321	1011.358	1011.360	0
2	22071909	257	High	1.5	Vague	2	34	33	11	32.7	90.0	6.9	33	11	34	90.0	6.9	32.7	2	0.813	0.001	L	33	90.0	1011.863	1013.705	1014.518	1014.520	0
2	22071909	258	High	1.5	Vague	2	31	32	13	32.6	32.8	9.1	13	31	32	9.1	32.6	32.8	1	1.351	0.000	D	31	32.6	1015.023	1016.911	1018.262	1018.264	0
2	22071909	259	High	1.5	Vague	2	31	32	8	32.6	32.8	56.3	32	31	8	32.8	32.6	56.3	2	1.038	0.000	L	32	32.8	1018.767	1019.752	1020.790	1020.792	0
2	22071909	260	High	1.5	Vague	2	32	33	13	32.8	90.0	9.1	33	32	13	90.0	32.8	9.1	1	1.134	0.000	D	32	32.8	1021.295	1023.024	1024.158	1024.160	0
2	22071909	261	High	1.5	Precise	1	25	32	27	27.2	32.8	18.7	32	25	27	32.8	27.2	18.7	NaN	NaN	NaN	NaN	NaN	NaN	1024.663	1026.914	NaN	1028.401	1
2	22071909	262	High	1.5	Precise	1	32	36	29	32.8	57.4	12.3	29	32	36	12.3	32.8	57.4	2	0.561	0.000	R	36	57.4	1030.404	1031.381	1031.942	1031.944	0
2	22071909	263	High	1.5	Vague	2	36	33	13	57.4	90.0	9.1	13	36	33	9.1	57.4	90.0	1	0.680	0.000	D	36	57.4	1032.447	1034.798	1035.478	1035.480	0
2	22071909	264	High	1.5	Vague	2	34	32	6	32.7	32.8	6.1	6	32	34	6.1	32.8	32.7	2	1.077	0.001	D	32	32.8	1035.983	1038.401	1039.478	1039.480	0
2	22071909	265	High	1.5	Vague	2	31	34	3	32.6	32.7	11.1	31	3	34	32.6	11.1	32.7	1	0.729	0.000	L	31	32.6	1039.983	1042.757	1043.486	1043.488	0
2	22071909	266	High	1.5	Precise	1	34	36	30	32.7	57.4	19.8	36	34	30	57.4	32.7	19.8	2	0.635	0.000	L	36	57.4	1043.991	1046.250	1046.886	1046.888	0
2	22071909	267	High	1.5	Vague	2	25	34	5	27.2	32.7	24.5	5	25	34	24.5	27.2	32.7	1	1.427	0.001	D	25	27.2	1047.391	1048.435	1049.862	1049.864	0
2	22071909	268	High	1.5	Vague	2	34	32	13	32.7	32.8	9.1	13	34	32	9.1	32.7	32.8	2	1.223	0.000	R	32	32.8	1050.367	1052.111	1053.334	1053.336	0
2	22071909	269	High	1.5	Precise	1	25	36	30	27.2	57.4	19.8	36	30	25	57.4	19.8	27.2	2	0.606	0.000	L	36	57.4	1053.839	1055.671	1056.278	1056.280	0
2	22071909	270	High	1.5	Precise	1	31	34	24	32.6	32.7	6.1	31	34	24	32.6	32.7	6.1	1	0.820	0.000	L	31	32.6	1056.783	1058.433	1059.254	1059.256	0
2	22071909	271	High	1.5	Vague	2	34	32	3	32.7	32.8	11.1	3	32	34	11.1	32.8	32.7	2	1.341	0.001	D	32	32.8	1059.758	1061.145	1062.486	1062.489	0
2	22071909	272	High	1.5	Vague	2	25	33	8	27.2	90.0	56.3	33	25	8	90.0	27.2	56.3	2	0.828	0.001	L	33	90.0	1062.992	1065.498	1066.326	1066.328	0
2	22071909	273	High	1.5	Precise	1	25	36	21	27.2	57.4	1.6	36	21	25	57.4	1.6	27.2	2	0.575	0.001	L	36	57.4	1066.831	1069.231	1069.806	1069.808	0
2	22071909	274	High	1.5	Vague	2	34	36	6	32.7	57.4	6.1	6	34	36	6.1	32.7	57.4	2	0.798	0.000	R	36	57.4	1070.311	1071.184	1071.982	1071.984	0
2	22071909	275	High	1.5	Precise	1	32	33	27	32.8	90.0	18.7	33	32	27	90.0	32.8	18.7	2	1.404	0.001	L	33	90.0	1072.487	1073.083	1074.486	1074.489	0
2	22071909	276	High	1.5	Precise	1	25	33	27	27.2	90.0	18.7	33	27	25	90.0	18.7	27.2	2	0.755	0.000	L	33	90.0	1074.992	1075.522	1076.278	1076.281	0
2	22071909	277	High	1.5	Vague	2	25	36	13	27.2	57.4	9.1	13	36	25	9.1	57.4	27.2	2	0.614	0.001	D	36	57.4	1076.784	1078.384	1078.998	1079.000	0
2	22071909	278	High	1.5	Precise	1	31	32	30	32.6	32.8	19.8	32	30	31	32.8	19.8	32.6	2	0.923	0.000	L	32	32.8	1079.503	1080.786	1081.710	1081.712	0
2	22071909	279	High	1.5	Vague	2	32	36	13	32.8	57.4	9.1	13	36	32	9.1	57.4	32.8	1	0.851	0.001	R	32	32.8	1082.215	1084.259	1085.110	1085.112	0
2	22071909	280	High	1.5	Vague	2	25	32	3	27.2	32.8	11.1	25	3	32	27.2	11.1	32.8	NaN	NaN	NaN	NaN	NaN	NaN	1085.616	1086.315	NaN	1087.802	1
2	22071909	281	High	1.5	Vague	2	32	33	6	32.8	90.0	6.1	32	33	6	32.8	90.0	6.1	1	0.684	0.000	L	32	32.8	1089.804	1090.354	1091.038	1091.040	0
2	22071909	282	High	1.5	Precise	1	25	33	24	27.2	90.0	6.1	24	33	25	6.1	90.0	27.2	2	0.566	0.001	D	33	90.0	1091.543	1094.528	1095.094	1095.097	0
2	22071909	283	High	1.5	Vague	2	25	36	5	27.2	57.4	24.5	25	36	5	27.2	57.4	24.5	3	0.851	0.000	R	5	24.5	1095.600	1096.899	1097.750	1097.752	0
2	22071909	284	High	1.5	Precise	1	31	32	27	32.6	32.8	18.7	27	32	31	18.7	32.8	32.6	2	0.928	0.001	D	32	32.8	1098.254	1098.822	1099.750	1099.752	0
2	22071909	285	High	1.5	Vague	2	31	33	8	32.6	90.0	56.3	8	31	33	56.3	32.6	90.0	NaN	NaN	NaN	NaN	NaN	NaN	1100.255	1102.789	NaN	1104.276	1
2	22071909	286	High	1.5	Precise	1	31	33	30	32.6	90.0	19.8	31	33	30	32.6	90.0	19.8	1	0.715	0.001	L	31	32.6	1106.278	1106.835	1107.550	1107.552	0
2	22071909	287	High	1.5	Precise	1	31	34	21	32.6	32.7	1.6	31	34	21	32.6	32.7	1.6	1	0.635	0.000	L	31	32.6	1108.055	1110.106	1110.742	1110.744	0
2	22071909	288	High	1.5	Vague	2	25	36	3	27.2	57.4	11.1	36	3	25	57.4	11.1	27.2	2	0.909	0.000	L	36	57.4	1111.247	1111.968	1112.878	1112.880	0
2	22071909	289	High	1.5	Precise	1	25	36	27	27.2	57.4	18.7	36	27	25	57.4	18.7	27.2	2	0.506	0.000	L	36	57.4	1113.383	1114.580	1115.086	1115.088	0
2	22071909	290	High	1.5	Precise	1	36	33	24	57.4	90.0	6.1	33	24	36	90.0	6.1	57.4	1	0.669	0.000	R	36	57.4	1115.591	1117.505	1118.174	1118.176	0
2	22071909	291	High	1.5	Vague	2	32	33	5	32.8	90.0	24.5	32	5	33	32.8	24.5	90.0	NaN	NaN	NaN	NaN	NaN	NaN	1118.680	1120.366	NaN	1121.852	1
2	22071909	292	High	1.5	Precise	1	25	31	27	27.2	32.6	18.7	25	27	31	27.2	18.7	32.6	2	0.584	0.000	R	31	32.6	1123.855	1124.813	1125.397	1125.400	0
2	22071909	293	High	1.5	Vague	2	34	32	8	32.7	32.8	56.3	8	34	32	56.3	32.7	32.8	2	0.842	0.000	R	32	32.8	1125.902	1126.844	1127.686	1127.688	0
2	22071909	294	High	1.5	Precise	1	31	34	19	32.6	32.7	3.9	31	34	19	32.6	32.7	3.9	1	0.675	0.000	L	31	32.6	1128.191	1129.554	1130.230	1130.232	0
2	22071909	295	High	1.5	Precise	1	32	33	29	32.8	90.0	12.3	32	29	33	32.8	12.3	90.0	1	0.590	0.001	L	32	32.8	1130.734	1133.056	1133.646	1133.649	0
2	22071909	296	High	1.5	Vague	2	31	36	5	32.6	57.4	24.5	5	31	36	24.5	32.6	57.4	2	0.605	0.000	R	36	57.4	1134.152	1135.617	1136.222	1136.225	0
2	22071909	297	High	1.5	Vague	2	25	34	8	27.2	32.7	56.3	34	8	25	32.7	56.3	27.2	2	1.169	0.000	L	34	32.7	1136.728	1138.965	1140.134	1140.136	0
2	22071909	298	High	1.5	Vague	2	32	36	8	32.8	57.4	56.3	32	8	36	32.8	56.3	57.4	2	0.737	0.000	R	36	57.4	1140.639	1143.021	1143.758	1143.760	0
2	22071909	299	High	1.5	Vague	2	32	36	6	32.8	57.4	6.1	36	6	32	57.4	6.1	32.8	2	0.863	0.000	L	36	57.4	1144.262	1146.255	1147.118	1147.120	0
2	22071909	300	High	1.5	Vague	2	31	36	3	32.6	57.4	11.1	36	3	31	57.4	11.1	32.6	2	0.816	0.001	L	36	57.4	1147.623	1149.405	1150.222	1150.224	0
2	22071909	301	High	1.5	Precise	1	25	32	24	27.2	32.8	6.1	24	32	25	6.1	32.8	27.2	2	0.943	0.000	D	32	32.8	1154.450	1155.079	1156.022	1156.024	0
2	22071909	302	High	1.5	Vague	2	36	33	5	57.4	90.0	24.5	33	5	36	90.0	24.5	57.4	1	0.529	0.000	R	36	57.4	1156.527	1158.277	1158.805	1158.808	0
2	22071909	303	High	1.5	Precise	1	31	32	19	32.6	32.8	3.9	31	19	32	32.6	3.9	32.8	1	1.036	0.000	L	31	32.6	1159.312	1160.369	1161.406	1161.409	0
2	22071909	304	High	1.5	Vague	2	36	33	8	57.4	90.0	56.3	33	8	36	90.0	56.3	57.4	1	0.618	0.000	R	36	57.4	1161.911	1164.588	1165.206	1165.208	0
2	22071909	305	High	1.5	Precise	1	31	36	19	32.6	57.4	3.9	19	31	36	3.9	32.6	57.4	2	1.340	0.000	R	36	57.4	1165.712	1167.801	1169.141	1169.144	0
2	22071909	306	High	1.5	Vague	2	34	36	13	32.7	57.4	9.1	36	13	34	57.4	9.1	32.7	2	0.559	0.000	L	36	57.4	1169.647	1171.510	1172.070	1172.072	0
2	22071909	307	High	1.5	Precise	1	25	32	30	27.2	32.8	19.8	30	32	25	19.8	32.8	27.2	NaN	NaN	NaN	NaN	NaN	NaN	1172.575	1173.765	NaN	1175.254	1
2	22071909	308	High	1.5	Vague	2	31	33	11	32.6	90.0	6.9	33	11	31	90.0	6.9	32.6	1	0.971	0.001	R	31	32.6	1177.257	1178.795	1179.766	1179.769	0
2	22071909	309	High	1.5	Precise	1	25	33	30	27.2	90.0	19.8	30	33	25	19.8	90.0	27.2	2	1.020	0.000	D	33	90.0	1180.272	1182.681	1183.702	1183.704	0
2	22071909	310	High	1.5	Vague	2	25	33	11	27.2	90.0	6.9	25	11	33	27.2	6.9	90.0	2	0.651	0.001	R	33	90.0	1184.207	1185.851	1186.502	1186.505	0
2	22071909	311	High	1.5	Precise	1	32	36	21	32.8	57.4	1.6	32	36	21	32.8	57.4	1.6	2	1.010	0.000	D	36	57.4	1187.008	1189.460	1190.470	1190.472	0
2	22071909	312	High	1.5	Vague	2	36	33	6	57.4	90.0	6.1	6	36	33	6.1	57.4	90.0	2	1.379	0.000	R	33	90.0	1190.974	1193.123	1194.502	1194.504	0
2	22071909	313	High	1.5	Vague	2	31	32	3	32.6	32.8	11.1	32	3	31	32.8	11.1	32.6	1	1.439	0.000	R	31	32.6	1195.007	1195.566	1197.006	1197.008	0
2	22071909	314	High	1.5	Vague	2	34	36	8	32.7	57.4	56.3	34	36	8	32.7	57.4	56.3	2	1.327	0.001	D	36	57.4	1197.511	1198.023	1199.350	1199.352	0
2	22071909	315	High	1.5	Vague	2	32	36	5	32.8	57.4	24.5	5	32	36	24.5	32.8	57.4	NaN	NaN	NaN	NaN	NaN	NaN	1199.855	1200.804	NaN	1202.290	1
2	22071909	316	High	1.5	Precise	1	34	36	27	32.7	57.4	18.7	36	27	34	57.4	18.7	32.7	2	1.025	0.000	L	36	57.4	1204.293	1205.901	1206.925	1206.928	0
2	22071909	317	High	1.5	Vague	2	34	33	3	32.7	90.0	11.1	33	3	34	90.0	11.1	32.7	2	0.911	0.000	L	33	90.0	1207.431	1208.543	1209.454	1209.456	0
2	22071909	318	High	1.5	Precise	1	25	31	24	27.2	32.6	6.1	25	31	24	27.2	32.6	6.1	2	0.875	0.001	D	31	32.6	1209.959	1211.259	1212.134	1212.136	0
2	22071909	319	High	1.5	Vague	2	34	33	6	32.7	90.0	6.1	6	34	33	6.1	32.7	90.0	2	0.756	0.000	R	33	90.0	1212.638	1213.457	1214.213	1214.216	0
2	22071909	320	High	1.5	Precise	1	36	33	29	57.4	90.0	12.3	29	36	33	12.3	57.4	90.0	2	0.601	0.000	R	33	90.0	1214.719	1215.813	1216.414	1216.416	0
2	22071909	321	High	1.5	Precise	1	34	36	19	32.7	57.4	3.9	34	19	36	32.7	3.9	57.4	2	0.601	0.000	R	36	57.4	1216.918	1218.101	1218.702	1218.704	0
2	22071909	322	High	1.5	Precise	1	25	31	21	27.2	32.6	1.6	25	31	21	27.2	32.6	1.6	2	0.994	0.001	D	31	32.6	1219.206	1221.748	1222.742	1222.745	0
2	22071909	323	High	1.5	Vague	2	34	33	8	32.7	90.0	56.3	34	8	33	32.7	56.3	90.0	2	0.653	0.001	R	33	90.0	1223.248	1225.904	1226.558	1226.560	0
2	22071909	324	High	1.5	Precise	1	25	32	19	27.2	32.8	3.9	19	32	25	3.9	32.8	27.2	2	1.125	0.000	D	32	32.8	1227.063	1228.001	1229.126	1229.128	0
2	22071909	325	High	1.5	Vague	2	25	34	11	27.2	32.7	6.9	11	25	34	6.9	27.2	32.7	1	1.443	0.001	D	25	27.2	1229.631	1231.019	1232.462	1232.464	0
2	22071909	326	High	1.5	Precise	1	25	33	19	27.2	90.0	3.9	19	25	33	3.9	27.2	90.0	2	0.742	0.000	R	33	90.0	1232.967	1233.575	1234.318	1234.320	0
2	22071909	327	High	1.5	Precise	1	32	33	24	32.8	90.0	6.1	33	32	24	90.0	32.8	6.1	2	0.972	0.000	L	33	90.0	1234.822	1237.794	1238.766	1238.768	0
2	22071909	328	High	1.5	Precise	1	25	33	29	27.2	90.0	12.3	29	25	33	12.3	27.2	90.0	2	0.548	0.001	R	33	90.0	1239.272	1240.610	1241.158	1241.160	0
2	22071909	329	High	1.5	Precise	1	25	36	24	27.2	57.4	6.1	36	25	24	57.4	27.2	6.1	2	0.689	0.000	L	36	57.4	1241.663	1244.300	1244.989	1244.992	0
2	22071909	330	High	1.5	Vague	2	25	32	8	27.2	32.8	56.3	32	8	25	32.8	56.3	27.2	NaN	NaN	NaN	NaN	NaN	NaN	1245.495	1246.091	NaN	1247.578	1
2	22071909	331	High	1.5	Vague	2	32	36	11	32.8	57.4	6.9	11	32	36	6.9	32.8	57.4	2	0.809	0.000	R	36	57.4	1249.580	1250.837	1251.645	1251.648	0
2	22071909	332	High	1.5	Vague	2	31	33	6	32.6	90.0	6.1	33	31	6	90.0	32.6	6.1	2	1.110	0.000	L	33	90.0	1252.150	1253.143	1254.254	1254.256	0
2	22071909	333	High	1.5	Precise	1	25	31	29	27.2	32.6	12.3	25	29	31	27.2	12.3	32.6	2	0.931	0.000	R	31	32.6	1254.759	1256.651	1257.582	1257.584	0
2	22071909	334	High	1.5	Precise	1	34	36	21	32.7	57.4	1.6	21	36	34	1.6	57.4	32.7	NaN	NaN	NaN	NaN	NaN	NaN	1258.086	1259.352	NaN	1260.838	1
2	22071909	335	High	1.5	Vague	2	25	31	3	27.2	32.6	11.1	25	3	31	27.2	11.1	32.6	2	0.846	0.001	R	31	32.6	1262.842	1263.736	1264.582	1264.584	0
2	22071909	336	High	1.5	Precise	1	31	32	29	32.6	32.8	12.3	29	32	31	12.3	32.8	32.6	NaN	NaN	NaN	NaN	NaN	NaN	1265.087	1266.171	NaN	1267.658	1
2	22071909	337	High	1.5	Vague	2	32	33	8	32.8	90.0	56.3	32	8	33	32.8	56.3	90.0	2	0.962	0.000	R	33	90.0	1269.661	1271.868	1272.830	1272.832	0
2	22071909	338	High	1.5	Vague	2	31	33	13	32.6	90.0	9.1	33	31	13	90.0	32.6	9.1	2	0.808	0.000	L	33	90.0	1273.336	1274.141	1274.949	1274.952	0
2	22071909	339	High	1.5	Precise	1	36	33	19	57.4	90.0	3.9	19	33	36	3.9	90.0	57.4	2	0.857	0.000	D	33	90.0	1275.454	1277.749	1278.606	1278.608	0
2	22071909	340	High	1.5	Vague	2	31	34	5	32.6	32.7	24.5	34	31	5	32.7	32.6	24.5	1	1.169	0.001	D	31	32.6	1279.111	1280.652	1281.822	1281.824	0
2	22071909	341	High	1.5	Precise	1	25	32	21	27.2	32.8	1.6	21	32	25	1.6	32.8	27.2	2	0.909	0.000	D	32	32.8	1282.327	1284.433	1285.342	1285.344	0
2	22071909	342	High	1.5	Precise	1	31	34	27	32.6	32.7	18.7	31	27	34	32.6	18.7	32.7	1	0.907	0.000	L	31	32.6	1285.847	1287.739	1288.645	1288.648	0
2	22071909	343	High	1.5	Precise	1	32	33	30	32.8	90.0	19.8	30	32	33	19.8	32.8	90.0	NaN	NaN	NaN	NaN	NaN	NaN	1289.151	1291.595	NaN	1293.082	1
2	22071909	344	High	1.5	Vague	2	25	31	11	27.2	32.6	6.9	11	31	25	6.9	32.6	27.2	2	0.756	0.000	D	31	32.6	1295.085	1297.018	1297.774	1297.776	0
2	22071909	345	High	1.5	Precise	1	34	33	27	32.7	90.0	18.7	27	34	33	18.7	32.7	90.0	2	0.642	0.000	R	33	90.0	1298.278	1300.923	1301.565	1301.568	0
2	22071909	346	High	1.5	Vague	2	25	32	6	27.2	32.8	6.1	32	6	25	32.8	6.1	27.2	2	0.996	0.000	L	32	32.8	1302.071	1302.938	1303.933	1303.936	0
2	22071909	347	High	1.5	Precise	1	25	36	29	27.2	57.4	12.3	25	36	29	27.2	57.4	12.3	2	0.989	0.000	D	36	57.4	1304.438	1305.056	1306.046	1306.048	0
2	22071909	348	High	1.5	Vague	2	36	33	3	57.4	90.0	11.1	33	36	3	90.0	57.4	11.1	1	0.767	0.000	D	36	57.4	1306.550	1308.535	1309.302	1309.304	0
2	22071909	349	High	1.5	Precise	1	34	33	24	32.7	90.0	6.1	24	34	33	6.1	32.7	90.0	2	0.633	0.000	R	33	90.0	1309.808	1310.460	1311.094	1311.096	0
2	22071909	350	High	1.5	Precise	1	25	34	19	27.2	32.7	3.9	25	34	19	27.2	32.7	3.9	1	1.020	0.000	L	25	27.2	1311.598	1314.250	1315.269	1315.272	0
2	22071909	351	High	1.5	Vague	2	25	33	3	27.2	90.0	11.1	25	33	3	27.2	90.0	11.1	2	0.776	0.000	D	33	90.0	1315.774	1317.606	1318.382	1318.384	0
2	22071909	352	High	1.5	Vague	2	31	33	5	32.6	90.0	24.5	31	33	5	32.6	90.0	24.5	2	0.971	0.000	D	33	90.0	1318.887	1319.515	1320.486	1320.488	0
2	22071909	353	High	1.5	Precise	1	25	32	29	27.2	32.8	12.3	29	32	25	12.3	32.8	27.2	2	1.241	0.001	D	32	32.8	1320.992	1323.517	1324.758	1324.760	0
2	22071909	354	High	1.5	Precise	1	36	33	21	57.4	90.0	1.6	21	33	36	1.6	90.0	57.4	2	0.804	0.000	D	33	90.0	1325.264	1326.969	1327.774	1327.776	0
2	22071909	355	High	1.5	Precise	1	34	33	30	32.7	90.0	19.8	34	30	33	32.7	19.8	90.0	2	0.668	0.001	R	33	90.0	1328.279	1331.090	1331.758	1331.761	0
2	22071909	356	High	1.5	Precise	1	32	36	24	32.8	57.4	6.1	36	32	24	57.4	32.8	6.1	2	0.970	0.000	L	36	57.4	1332.264	1333.475	1334.445	1334.448	0
2	22071909	357	High	1.5	Vague	2	31	34	13	32.6	32.7	9.1	34	31	13	32.7	32.6	9.1	1	1.073	0.000	D	31	32.6	1334.951	1337.860	1338.934	1338.936	0
2	22071909	358	High	1.5	Vague	2	25	34	13	27.2	32.7	9.1	13	25	34	9.1	27.2	32.7	1	1.167	0.001	D	25	27.2	1339.440	1342.287	1343.454	1343.456	0
2	22071909	359	High	1.5	Precise	1	34	33	29	32.7	90.0	12.3	34	33	29	32.7	90.0	12.3	2	1.150	0.000	D	33	90.0	1343.959	1346.512	1347.662	1347.664	0
2	22071909	360	High	1.5	Precise	1	25	36	19	27.2	57.4	3.9	25	19	36	27.2	3.9	57.4	2	0.786	0.000	R	36	57.4	1348.166	1350.148	1350.934	1350.936	0
