Group	subID	trial	TimePressure	TimeConstraint	Vagueness	Vaguenesscode	ID1	ID2	ID3	V1	V2	V3	ID_left	ID_middle	ID_right	Bid_left	Bid_middle	Bid_right	chosenItem	RT	RTvariance	chosenPosition	chosenID	chosenValue	fixation_time	option_time	choice_time	feedback_time	timeout
2	22071906	1	High	1.5	Vague	2	32	34	2	27.2	38.7	1.6	34	2	32	38.7	1.6	27.2	1	1.111	0.001	R	32	27.2	4.294	5.422	6.533	6.536	0
2	22071906	2	High	1.5	Vague	2	36	32	2	21.0	27.2	1.6	2	32	36	1.6	27.2	21.0	2	1.163	0.000	D	32	27.2	7.040	8.618	9.781	9.784	0
2	22071906	3	High	1.5	Precise	1	31	26	23	22.6	38.2	1.0	31	23	26	22.6	1.0	38.2	1	1.001	0.000	L	31	22.6	10.287	11.012	12.013	12.016	0
2	22071906	4	High	1.5	Precise	1	32	26	22	27.2	38.2	12.3	26	22	32	38.2	12.3	27.2	2	0.795	0.000	L	26	38.2	12.519	13.026	13.821	13.824	0
2	22071906	5	High	1.5	Vague	2	32	26	5	27.2	38.2	12.3	5	32	26	12.3	27.2	38.2	2	0.775	0.000	R	26	38.2	14.327	16.365	17.141	17.145	0
2	22071906	6	High	1.5	Vague	2	31	30	13	22.6	36.9	16.6	13	31	30	16.6	22.6	36.9	1	1.296	0.001	D	31	22.6	17.650	18.333	19.629	19.631	0
2	22071906	7	High	1.5	Vague	2	36	30	12	21.0	36.9	19.5	30	36	12	36.9	21.0	19.5	2	1.107	0.000	L	30	36.9	20.135	21.930	23.036	23.039	0
2	22071906	8	High	1.5	Vague	2	30	34	12	36.9	38.7	19.5	34	30	12	38.7	36.9	19.5	1	1.156	0.000	D	30	36.9	23.542	25.345	26.501	26.503	0
2	22071906	9	High	1.5	Precise	1	31	26	29	22.6	38.2	18.5	26	29	31	38.2	18.5	22.6	NaN	NaN	NaN	NaN	NaN	NaN	27.006	27.515	NaN	29.005	1
2	22071906	10	High	1.5	Vague	2	31	32	2	22.6	27.2	1.6	31	32	2	22.6	27.2	1.6	1	1.324	0.000	L	31	22.6	31.008	33.480	34.804	34.808	0
2	22071906	11	High	1.5	Vague	2	32	34	1	27.2	38.7	3.1	32	1	34	27.2	3.1	38.7	1	1.167	0.000	L	32	27.2	35.311	37.229	38.396	38.400	0
2	22071906	12	High	1.5	Vague	2	32	34	5	27.2	38.7	12.3	32	34	5	27.2	38.7	12.3	1	1.124	0.001	L	32	27.2	38.903	41.489	42.613	42.615	0
2	22071906	13	High	1.5	Vague	2	32	26	13	27.2	38.2	16.6	32	13	26	27.2	16.6	38.2	2	0.820	0.001	R	26	38.2	43.118	44.009	44.829	44.831	0
2	22071906	14	High	1.5	Vague	2	36	30	13	21.0	36.9	16.6	13	30	36	16.6	36.9	21.0	2	0.971	0.001	D	30	36.9	45.334	47.394	48.365	48.367	0
2	22071906	15	High	1.5	Precise	1	36	32	29	21.0	27.2	18.5	36	29	32	21.0	18.5	27.2	2	1.172	0.001	R	32	27.2	48.870	51.345	52.517	52.519	0
2	22071906	16	High	1.5	Precise	1	30	34	22	36.9	38.7	12.3	22	30	34	12.3	36.9	38.7	1	1.147	0.000	D	30	36.9	53.023	55.226	56.373	56.375	0
2	22071906	17	High	1.5	Vague	2	32	26	12	27.2	38.2	19.5	26	32	12	38.2	27.2	19.5	2	1.279	0.001	L	26	38.2	56.877	58.485	59.765	59.767	0
2	22071906	18	High	1.5	Vague	2	36	31	5	21.0	22.6	12.3	31	36	5	22.6	21.0	12.3	NaN	NaN	NaN	NaN	NaN	NaN	60.270	62.608	NaN	64.094	1
2	22071906	19	High	1.5	Precise	1	31	30	23	22.6	36.9	1.0	31	30	23	22.6	36.9	1.0	2	1.087	0.001	D	30	36.9	66.097	67.958	69.045	69.048	0
2	22071906	20	High	1.5	Precise	1	30	26	27	36.9	38.2	10.2	26	30	27	38.2	36.9	10.2	1	0.769	0.001	D	30	36.9	69.551	70.956	71.725	71.727	0
2	22071906	21	High	1.5	Vague	2	36	31	7	21.0	22.6	6.7	31	7	36	22.6	6.7	21.0	NaN	NaN	NaN	NaN	NaN	NaN	72.231	73.864	NaN	75.350	1
2	22071906	22	High	1.5	Precise	1	31	26	22	22.6	38.2	12.3	22	26	31	12.3	38.2	22.6	2	1.015	0.001	D	26	38.2	77.353	78.942	79.957	79.959	0
2	22071906	23	High	1.5	Precise	1	36	26	27	21.0	38.2	10.2	27	36	26	10.2	21.0	38.2	2	0.600	0.000	R	26	38.2	80.462	81.644	82.245	82.247	0
2	22071906	24	High	1.5	Vague	2	31	26	2	22.6	38.2	1.6	26	2	31	38.2	1.6	22.6	2	0.506	0.001	L	26	38.2	82.750	84.642	85.149	85.151	0
2	22071906	25	High	1.5	Precise	1	36	34	27	21.0	38.7	10.2	34	27	36	38.7	10.2	21.0	2	1.409	0.000	L	34	38.7	85.655	86.779	88.188	88.191	0
2	22071906	26	High	1.5	Precise	1	36	32	33	21.0	27.2	20.0	33	36	32	20.0	21.0	27.2	NaN	NaN	NaN	NaN	NaN	NaN	88.694	89.625	NaN	91.111	1
2	22071906	27	High	1.5	Vague	2	31	32	5	22.6	27.2	12.3	32	5	31	27.2	12.3	22.6	1	0.996	0.000	R	31	22.6	93.114	94.888	95.884	95.887	0
2	22071906	28	High	1.5	Precise	1	36	30	27	21.0	36.9	10.2	30	27	36	36.9	10.2	21.0	2	0.859	0.000	L	30	36.9	96.390	99.034	99.893	99.895	0
2	22071906	29	High	1.5	Precise	1	32	30	20	27.2	36.9	2.3	32	30	20	27.2	36.9	2.3	2	0.682	0.001	D	30	36.9	100.398	102.419	103.101	103.103	0
2	22071906	30	High	1.5	Precise	1	36	26	29	21.0	38.2	18.5	29	26	36	18.5	38.2	21.0	2	0.902	0.001	D	26	38.2	103.606	104.751	105.653	105.655	0
2	22071906	31	High	1.5	Vague	2	32	30	1	27.2	36.9	3.1	1	32	30	3.1	27.2	36.9	2	0.855	0.001	R	30	36.9	106.158	107.549	108.405	108.407	0
2	22071906	32	High	1.5	Vague	2	32	26	2	27.2	38.2	1.6	26	32	2	38.2	27.2	1.6	2	0.785	0.000	L	26	38.2	108.909	111.156	111.941	111.943	0
2	22071906	33	High	1.5	Vague	2	31	34	1	22.6	38.7	3.1	1	31	34	3.1	22.6	38.7	1	1.378	0.001	D	31	22.6	112.447	113.507	114.885	114.887	0
2	22071906	34	High	1.5	Precise	1	32	30	27	27.2	36.9	10.2	30	27	32	36.9	10.2	27.2	2	0.753	0.000	L	30	36.9	115.390	118.075	118.829	118.831	0
2	22071906	35	High	1.5	Precise	1	32	30	23	27.2	36.9	1.0	30	32	23	36.9	27.2	1.0	2	0.729	0.000	L	30	36.9	119.333	121.443	122.172	122.175	0
2	22071906	36	High	1.5	Precise	1	31	34	20	22.6	38.7	2.3	31	34	20	22.6	38.7	2.3	2	1.415	0.001	D	34	38.7	122.678	125.213	126.629	126.632	0
2	22071906	37	High	1.5	Vague	2	32	30	12	27.2	36.9	19.5	12	30	32	19.5	36.9	27.2	2	0.813	0.000	D	30	36.9	127.135	128.776	129.589	129.591	0
2	22071906	38	High	1.5	Vague	2	30	26	1	36.9	38.2	3.1	1	30	26	3.1	36.9	38.2	1	0.591	0.000	D	30	36.9	130.094	131.061	131.652	131.655	0
2	22071906	39	High	1.5	Vague	2	36	34	7	21.0	38.7	6.7	7	36	34	6.7	21.0	38.7	2	1.221	0.001	R	34	38.7	132.158	133.080	134.301	134.303	0
2	22071906	40	High	1.5	Precise	1	32	26	23	27.2	38.2	1.0	26	32	23	38.2	27.2	1.0	2	0.810	0.000	L	26	38.2	134.806	136.267	137.076	137.079	0
2	22071906	41	High	1.5	Precise	1	32	26	20	27.2	38.2	2.3	32	20	26	27.2	2.3	38.2	2	1.029	0.000	R	26	38.2	137.582	140.144	141.173	141.175	0
2	22071906	42	High	1.5	Vague	2	32	34	12	27.2	38.7	19.5	12	32	34	19.5	27.2	38.7	2	1.052	0.000	R	34	38.7	141.677	144.617	145.668	145.671	0
2	22071906	43	High	1.5	Precise	1	32	26	33	27.2	38.2	20.0	33	32	26	20.0	27.2	38.2	2	1.046	0.000	R	26	38.2	146.174	149.030	150.076	150.079	0
2	22071906	44	High	1.5	Precise	1	32	26	29	27.2	38.2	18.5	29	26	32	18.5	38.2	27.2	2	1.022	0.000	D	26	38.2	150.583	152.143	153.165	153.167	0
2	22071906	45	High	1.5	Precise	1	30	34	20	36.9	38.7	2.3	20	34	30	2.3	38.7	36.9	1	0.993	0.000	R	30	36.9	153.670	155.956	156.949	156.951	0
2	22071906	46	High	1.5	Precise	1	31	34	23	22.6	38.7	1.0	34	31	23	38.7	22.6	1.0	2	1.160	0.000	L	34	38.7	157.453	158.276	159.437	159.439	0
2	22071906	47	High	1.5	Precise	1	31	30	33	22.6	36.9	20.0	30	33	31	36.9	20.0	22.6	2	0.913	0.000	L	30	36.9	159.942	161.075	161.989	161.991	0
2	22071906	48	High	1.5	Vague	2	36	34	2	21.0	38.7	1.6	36	2	34	21.0	1.6	38.7	1	0.837	0.000	L	36	21.0	162.493	164.247	165.084	165.087	0
2	22071906	49	High	1.5	Precise	1	36	26	23	21.0	38.2	1.0	26	23	36	38.2	1.0	21.0	2	0.753	0.000	L	26	38.2	165.589	166.172	166.925	166.927	0
2	22071906	50	High	1.5	Vague	2	31	34	5	22.6	38.7	12.3	31	34	5	22.6	38.7	12.3	2	1.018	0.000	D	34	38.7	167.430	170.027	171.045	171.047	0
2	22071906	51	High	1.5	Vague	2	36	26	13	21.0	38.2	16.6	36	26	13	21.0	38.2	16.6	2	0.765	0.000	D	26	38.2	171.550	172.360	173.125	173.127	0
2	22071906	52	High	1.5	Precise	1	36	32	20	21.0	27.2	2.3	32	36	20	27.2	21.0	2.3	2	1.243	0.000	L	32	27.2	173.630	174.329	175.573	175.575	0
2	22071906	53	High	1.5	Vague	2	31	32	12	22.6	27.2	19.5	12	31	32	19.5	22.6	27.2	2	1.346	0.000	R	32	27.2	176.078	178.747	180.093	180.095	0
2	22071906	54	High	1.5	Precise	1	30	26	23	36.9	38.2	1.0	30	23	26	36.9	1.0	38.2	2	0.526	0.000	R	26	38.2	180.598	183.535	184.061	184.063	0
2	22071906	55	High	1.5	Precise	1	31	34	33	22.6	38.7	20.0	34	33	31	38.7	20.0	22.6	2	0.916	0.001	L	34	38.7	184.566	185.081	185.997	185.999	0
2	22071906	56	High	1.5	Precise	1	36	32	22	21.0	27.2	12.3	32	22	36	27.2	12.3	21.0	3	1.177	0.001	D	22	12.3	186.503	188.292	189.469	189.471	0
2	22071906	57	High	1.5	Vague	2	36	31	12	21.0	22.6	19.5	12	31	36	19.5	22.6	21.0	NaN	NaN	NaN	NaN	NaN	NaN	189.974	191.143	NaN	192.630	1
2	22071906	58	High	1.5	Precise	1	36	32	23	21.0	27.2	1.0	32	23	36	27.2	1.0	21.0	2	1.193	0.001	L	32	27.2	194.633	197.252	198.445	198.447	0
2	22071906	59	High	1.5	Precise	1	30	26	29	36.9	38.2	18.5	29	30	26	18.5	36.9	38.2	1	0.694	0.001	D	30	36.9	198.950	200.463	201.157	201.160	0
2	22071906	60	High	1.5	Precise	1	31	30	27	22.6	36.9	10.2	31	30	27	22.6	36.9	10.2	2	0.919	0.000	D	30	36.9	201.663	203.166	204.085	204.087	0
2	22071906	61	High	1.5	Precise	1	36	34	23	21.0	38.7	1.0	23	36	34	1.0	21.0	38.7	2	0.895	0.001	R	34	38.7	223.579	224.982	225.877	225.880	0
2	22071906	62	High	1.5	Precise	1	36	30	29	21.0	36.9	18.5	29	36	30	18.5	21.0	36.9	2	0.743	0.000	R	30	36.9	226.383	227.093	227.836	227.839	0
2	22071906	63	High	1.5	Vague	2	31	30	2	22.6	36.9	1.6	2	30	31	1.6	36.9	22.6	2	0.674	0.000	D	30	36.9	228.342	229.779	230.453	230.455	0
2	22071906	64	High	1.5	Vague	2	36	34	12	21.0	38.7	19.5	12	34	36	19.5	38.7	21.0	2	1.226	0.000	D	34	38.7	230.958	233.635	234.861	234.863	0
2	22071906	65	High	1.5	Vague	2	36	30	1	21.0	36.9	3.1	36	30	1	21.0	36.9	3.1	2	0.745	0.001	D	30	36.9	235.366	237.796	238.541	238.543	0
2	22071906	66	High	1.5	Precise	1	32	34	23	27.2	38.7	1.0	23	32	34	1.0	27.2	38.7	2	0.908	0.001	R	34	38.7	239.046	241.681	242.589	242.591	0
2	22071906	67	High	1.5	Vague	2	36	26	7	21.0	38.2	6.7	36	7	26	21.0	6.7	38.2	2	1.355	0.000	R	26	38.2	243.094	245.185	246.541	246.543	0
2	22071906	68	High	1.5	Precise	1	26	34	33	38.2	38.7	20.0	33	34	26	20.0	38.7	38.2	1	0.834	0.000	R	26	38.2	247.045	248.931	249.764	249.767	0
2	22071906	69	High	1.5	Vague	2	32	34	7	27.2	38.7	6.7	34	32	7	38.7	27.2	6.7	NaN	NaN	NaN	NaN	NaN	NaN	250.270	252.992	NaN	254.482	1
2	22071906	70	High	1.5	Vague	2	36	30	2	21.0	36.9	1.6	30	2	36	36.9	1.6	21.0	2	0.726	0.000	L	30	36.9	256.485	257.030	257.756	257.759	0
2	22071906	71	High	1.5	Vague	2	31	26	12	22.6	38.2	19.5	26	31	12	38.2	22.6	19.5	2	0.942	0.000	L	26	38.2	258.261	258.807	259.749	259.751	0
2	22071906	72	High	1.5	Precise	1	36	32	27	21.0	27.2	10.2	36	27	32	21.0	10.2	27.2	2	1.391	0.001	R	32	27.2	260.254	262.886	264.277	264.279	0
2	22071906	73	High	1.5	Precise	1	31	34	29	22.6	38.7	18.5	29	31	34	18.5	22.6	38.7	2	1.242	0.000	R	34	38.7	264.783	266.403	267.645	267.647	0
2	22071906	74	High	1.5	Vague	2	31	30	5	22.6	36.9	12.3	5	31	30	12.3	22.6	36.9	2	0.864	0.000	R	30	36.9	268.150	270.429	271.293	271.295	0
2	22071906	75	High	1.5	Precise	1	36	30	20	21.0	36.9	2.3	30	36	20	36.9	21.0	2.3	2	0.513	0.000	L	30	36.9	271.798	274.723	275.236	275.239	0
2	22071906	76	High	1.5	Vague	2	36	31	1	21.0	22.6	3.1	1	31	36	3.1	22.6	21.0	NaN	NaN	NaN	NaN	NaN	NaN	275.742	278.402	NaN	279.889	1
2	22071906	77	High	1.5	Vague	2	31	32	13	22.6	27.2	16.6	13	32	31	16.6	27.2	22.6	2	1.123	0.000	D	32	27.2	281.892	284.322	285.444	285.447	0
2	22071906	78	High	1.5	Vague	2	32	30	7	27.2	36.9	6.7	7	30	32	6.7	36.9	27.2	2	0.624	0.000	D	30	36.9	285.950	287.285	287.909	287.911	0
2	22071906	79	High	1.5	Precise	1	32	34	33	27.2	38.7	20.0	32	34	33	27.2	38.7	20.0	2	0.932	0.000	D	34	38.7	288.414	290.121	291.053	291.055	0
2	22071906	80	High	1.5	Vague	2	36	26	2	21.0	38.2	1.6	2	26	36	1.6	38.2	21.0	2	0.663	0.001	D	26	38.2	291.558	293.342	294.005	294.007	0
2	22071906	81	High	1.5	Precise	1	26	34	29	38.2	38.7	18.5	29	26	34	18.5	38.2	38.7	1	0.730	0.000	D	26	38.2	294.509	296.794	297.525	297.527	0
2	22071906	82	High	1.5	Vague	2	36	26	5	21.0	38.2	12.3	26	5	36	38.2	12.3	21.0	NaN	NaN	NaN	NaN	NaN	NaN	298.029	298.560	NaN	300.046	1
2	22071906	83	High	1.5	Precise	1	31	32	23	22.6	27.2	1.0	23	31	32	1.0	22.6	27.2	2	1.090	0.000	R	32	27.2	302.049	303.754	304.845	304.847	0
2	22071906	84	High	1.5	Precise	1	26	34	23	38.2	38.7	1.0	26	23	34	38.2	1.0	38.7	1	0.648	0.000	L	26	38.2	305.349	306.973	307.621	307.623	0
2	22071906	85	High	1.5	Vague	2	36	32	5	21.0	27.2	12.3	32	5	36	27.2	12.3	21.0	3	1.283	0.001	D	5	12.3	308.125	310.594	311.877	311.879	0
2	22071906	86	High	1.5	Precise	1	36	31	33	21.0	22.6	20.0	33	31	36	20.0	22.6	21.0	2	1.047	0.001	D	31	22.6	312.382	313.926	314.973	314.976	0
2	22071906	87	High	1.5	Vague	2	32	30	2	27.2	36.9	1.6	32	2	30	27.2	1.6	36.9	2	0.707	0.001	R	30	36.9	315.478	316.962	317.669	317.671	0
2	22071906	88	High	1.5	Precise	1	36	34	29	21.0	38.7	18.5	34	36	29	38.7	21.0	18.5	NaN	NaN	NaN	NaN	NaN	NaN	318.173	319.369	NaN	320.856	1
2	22071906	89	High	1.5	Vague	2	26	34	7	38.2	38.7	6.7	34	26	7	38.7	38.2	6.7	2	1.401	0.000	L	34	38.7	322.859	325.491	326.893	326.895	0
2	22071906	90	High	1.5	Precise	1	26	34	20	38.2	38.7	2.3	26	20	34	38.2	2.3	38.7	1	0.966	0.000	L	26	38.2	327.397	328.375	329.341	329.343	0
2	22071906	91	High	1.5	Precise	1	30	34	33	36.9	38.7	20.0	30	34	33	36.9	38.7	20.0	1	0.610	0.000	L	30	36.9	329.846	332.515	333.125	333.127	0
2	22071906	92	High	1.5	Vague	2	32	30	13	27.2	36.9	16.6	13	30	32	16.6	36.9	27.2	2	0.694	0.001	D	30	36.9	333.630	334.703	335.397	335.399	0
2	22071906	93	High	1.5	Precise	1	36	31	29	21.0	22.6	18.5	36	31	29	21.0	22.6	18.5	NaN	NaN	NaN	NaN	NaN	NaN	335.902	336.910	NaN	338.397	1
2	22071906	94	High	1.5	Vague	2	31	26	1	22.6	38.2	3.1	1	31	26	3.1	22.6	38.2	2	1.120	0.001	R	26	38.2	340.399	341.717	342.837	342.839	0
2	22071906	95	High	1.5	Precise	1	32	26	27	27.2	38.2	10.2	26	32	27	38.2	27.2	10.2	2	0.684	0.000	L	26	38.2	343.342	345.864	346.548	346.551	0
2	22071906	96	High	1.5	Precise	1	32	34	27	27.2	38.7	10.2	27	32	34	10.2	27.2	38.7	1	1.141	0.001	D	32	27.2	347.055	349.375	350.517	350.519	0
2	22071906	97	High	1.5	Precise	1	31	26	20	22.6	38.2	2.3	26	31	20	38.2	22.6	2.3	2	0.639	0.000	L	26	38.2	351.021	353.509	354.149	354.151	0
2	22071906	98	High	1.5	Vague	2	26	34	5	38.2	38.7	12.3	5	34	26	12.3	38.7	38.2	1	0.692	0.000	R	26	38.2	354.653	355.809	356.500	356.503	0
2	22071906	99	High	1.5	Precise	1	36	31	27	21.0	22.6	10.2	27	31	36	10.2	22.6	21.0	2	0.919	0.000	D	31	22.6	357.005	359.605	360.524	360.527	0
2	22071906	100	High	1.5	Precise	1	36	30	33	21.0	36.9	20.0	33	36	30	20.0	21.0	36.9	2	0.723	0.000	R	30	36.9	361.030	361.561	362.284	362.287	0
2	22071906	101	High	1.5	Vague	2	30	26	5	36.9	38.2	12.3	26	5	30	38.2	12.3	36.9	1	0.503	0.001	R	30	36.9	362.790	364.926	365.429	365.431	0
2	22071906	102	High	1.5	Vague	2	36	34	13	21.0	38.7	16.6	13	36	34	16.6	21.0	38.7	2	1.191	0.000	R	34	38.7	365.934	367.494	368.684	368.687	0
2	22071906	103	High	1.5	Precise	1	30	26	22	36.9	38.2	12.3	22	26	30	12.3	38.2	36.9	1	0.598	0.000	R	30	36.9	369.189	372.039	372.637	372.639	0
2	22071906	104	High	1.5	Vague	2	30	34	1	36.9	38.7	3.1	34	30	1	38.7	36.9	3.1	1	0.622	0.001	D	30	36.9	373.142	375.790	376.413	376.415	0
2	22071906	105	High	1.5	Precise	1	32	34	20	27.2	38.7	2.3	32	34	20	27.2	38.7	2.3	2	1.067	0.001	D	34	38.7	376.917	379.882	380.949	380.951	0
2	22071906	106	High	1.5	Vague	2	36	26	1	21.0	38.2	3.1	36	1	26	21.0	3.1	38.2	2	0.738	0.001	R	26	38.2	381.454	384.403	385.141	385.143	0
2	22071906	107	High	1.5	Vague	2	36	32	13	21.0	27.2	16.6	13	36	32	16.6	21.0	27.2	2	0.869	0.000	R	32	27.2	385.646	386.383	387.253	387.255	0
2	22071906	108	High	1.5	Vague	2	26	34	2	38.2	38.7	1.6	2	26	34	1.6	38.2	38.7	2	0.783	0.001	R	34	38.7	387.758	388.317	389.101	389.103	0
2	22071906	109	High	1.5	Vague	2	30	26	12	36.9	38.2	19.5	12	30	26	19.5	36.9	38.2	1	0.868	0.000	D	30	36.9	389.606	391.352	392.221	392.223	0
2	22071906	110	High	1.5	Vague	2	36	26	12	21.0	38.2	19.5	36	26	12	21.0	38.2	19.5	2	0.551	0.000	D	26	38.2	392.726	395.213	395.764	395.767	0
2	22071906	111	High	1.5	Precise	1	30	34	29	36.9	38.7	18.5	34	29	30	38.7	18.5	36.9	1	0.892	0.000	R	30	36.9	396.270	397.032	397.925	397.927	0
2	22071906	112	High	1.5	Vague	2	30	26	7	36.9	38.2	6.7	7	26	30	6.7	38.2	36.9	2	0.723	0.001	D	26	38.2	398.429	399.554	400.277	400.279	0
2	22071906	113	High	1.5	Precise	1	36	34	33	21.0	38.7	20.0	36	34	33	21.0	38.7	20.0	2	1.181	0.001	D	34	38.7	400.782	403.608	404.789	404.791	0
2	22071906	114	High	1.5	Precise	1	31	34	27	22.6	38.7	10.2	34	31	27	38.7	22.6	10.2	2	1.156	0.001	L	34	38.7	405.294	406.313	407.469	407.471	0
2	22071906	115	High	1.5	Vague	2	30	34	2	36.9	38.7	1.6	2	30	34	1.6	36.9	38.7	1	1.083	0.000	D	30	36.9	407.974	410.378	411.461	411.463	0
2	22071906	116	High	1.5	Vague	2	31	32	7	22.6	27.2	6.7	7	31	32	6.7	22.6	27.2	NaN	NaN	NaN	NaN	NaN	NaN	411.966	414.743	NaN	416.230	1
2	22071906	117	High	1.5	Vague	2	32	26	1	27.2	38.2	3.1	26	32	1	38.2	27.2	3.1	2	0.511	0.001	L	26	38.2	418.233	421.174	421.685	421.687	0
2	22071906	118	High	1.5	Vague	2	30	34	7	36.9	38.7	6.7	7	30	34	6.7	36.9	38.7	1	1.029	0.001	D	30	36.9	422.190	423.159	424.189	424.191	0
2	22071906	119	High	1.5	Vague	2	36	30	5	21.0	36.9	12.3	5	30	36	12.3	36.9	21.0	2	1.100	0.001	D	30	36.9	424.694	427.321	428.421	428.424	0
2	22071906	120	High	1.5	Precise	1	32	30	22	27.2	36.9	12.3	22	30	32	12.3	36.9	27.2	2	0.808	0.001	D	30	36.9	428.927	430.677	431.485	431.487	0
2	22071906	121	High	1.5	Precise	1	31	30	29	22.6	36.9	18.5	30	29	31	36.9	18.5	22.6	2	0.739	0.000	L	30	36.9	447.643	448.642	449.381	449.383	0
2	22071906	122	High	1.5	Precise	1	36	30	23	21.0	36.9	1.0	23	36	30	1.0	21.0	36.9	2	0.850	0.000	R	30	36.9	449.886	452.754	453.604	453.607	0
2	22071906	123	High	1.5	Precise	1	31	34	22	22.6	38.7	12.3	34	31	22	38.7	22.6	12.3	1	1.005	0.000	D	31	22.6	454.110	455.528	456.533	456.535	0
2	22071906	124	High	1.5	Precise	1	31	26	33	22.6	38.2	20.0	31	26	33	22.6	38.2	20.0	2	0.740	0.001	D	26	38.2	457.038	458.816	459.557	459.559	0
2	22071906	125	High	1.5	Vague	2	31	30	7	22.6	36.9	6.7	7	31	30	6.7	22.6	36.9	2	0.987	0.000	R	30	36.9	460.061	460.978	461.964	461.967	0
2	22071906	126	High	1.5	Precise	1	30	34	23	36.9	38.7	1.0	23	30	34	1.0	36.9	38.7	1	0.925	0.001	D	30	36.9	462.470	465.352	466.276	466.279	0
2	22071906	127	High	1.5	Precise	1	30	34	27	36.9	38.7	10.2	34	27	30	38.7	10.2	36.9	1	1.089	0.000	R	30	36.9	466.781	469.499	470.589	470.591	0
2	22071906	128	High	1.5	Vague	2	26	34	12	38.2	38.7	19.5	26	12	34	38.2	19.5	38.7	1	1.023	0.000	L	26	38.2	471.093	471.886	472.909	472.911	0
2	22071906	129	High	1.5	Vague	2	31	26	7	22.6	38.2	6.7	7	26	31	6.7	38.2	22.6	2	0.693	0.001	D	26	38.2	473.414	474.023	474.717	474.720	0
2	22071906	130	High	1.5	Vague	2	32	26	7	27.2	38.2	6.7	26	32	7	38.2	27.2	6.7	2	0.599	0.000	L	26	38.2	475.222	476.165	476.764	476.767	0
2	22071906	131	High	1.5	Vague	2	26	34	13	38.2	38.7	16.6	26	34	13	38.2	38.7	16.6	1	0.723	0.000	L	26	38.2	477.269	478.865	479.588	479.591	0
2	22071906	132	High	1.5	Vague	2	36	31	2	21.0	22.6	1.6	2	31	36	1.6	22.6	21.0	2	1.066	0.000	D	31	22.6	480.093	480.923	481.989	481.991	0
2	22071906	133	High	1.5	Precise	1	32	30	29	27.2	36.9	18.5	32	29	30	27.2	18.5	36.9	2	0.680	0.001	R	30	36.9	482.494	483.885	484.565	484.567	0
2	22071906	134	High	1.5	Vague	2	31	34	7	22.6	38.7	6.7	34	31	7	38.7	22.6	6.7	2	1.081	0.000	L	34	38.7	485.070	487.475	488.556	488.559	0
2	22071906	135	High	1.5	Precise	1	30	26	33	36.9	38.2	20.0	26	30	33	38.2	36.9	20.0	2	0.565	0.001	L	26	38.2	489.062	490.048	490.613	490.615	0
2	22071906	136	High	1.5	Vague	2	30	26	2	36.9	38.2	1.6	26	2	30	38.2	1.6	36.9	2	0.395	0.000	L	26	38.2	491.117	491.737	492.133	492.135	0
2	22071906	137	High	1.5	Vague	2	31	30	1	22.6	36.9	3.1	31	30	1	22.6	36.9	3.1	2	0.840	0.000	D	30	36.9	492.638	494.205	495.045	495.047	0
2	22071906	138	High	1.5	Vague	2	26	34	1	38.2	38.7	3.1	1	26	34	3.1	38.2	38.7	1	0.615	0.000	D	26	38.2	495.549	498.333	498.949	498.951	0
2	22071906	139	High	1.5	Precise	1	31	32	22	22.6	27.2	12.3	22	31	32	12.3	22.6	27.2	1	0.734	0.000	D	31	22.6	499.454	500.822	501.556	501.559	0
2	22071906	140	High	1.5	Vague	2	36	30	7	21.0	36.9	6.7	36	7	30	21.0	6.7	36.9	2	0.919	0.000	R	30	36.9	502.061	504.013	504.933	504.935	0
2	22071906	141	High	1.5	Precise	1	30	26	20	36.9	38.2	2.3	26	30	20	38.2	36.9	2.3	2	0.416	0.000	L	26	38.2	505.438	508.340	508.756	508.759	0
2	22071906	142	High	1.5	Vague	2	32	34	13	27.2	38.7	16.6	32	13	34	27.2	16.6	38.7	2	1.047	0.000	R	34	38.7	509.262	511.493	512.540	512.543	0
2	22071906	143	High	1.5	Vague	2	31	26	13	22.6	38.2	16.6	31	13	26	22.6	16.6	38.2	2	0.537	0.000	R	26	38.2	513.045	514.691	515.228	515.231	0
2	22071906	144	High	1.5	Vague	2	31	30	12	22.6	36.9	19.5	31	30	12	22.6	36.9	19.5	2	0.625	0.000	D	30	36.9	515.733	517.659	518.284	518.287	0
2	22071906	145	High	1.5	Vague	2	36	34	1	21.0	38.7	3.1	1	36	34	3.1	21.0	38.7	2	0.837	0.000	R	34	38.7	518.791	519.743	520.580	520.583	0
2	22071906	146	High	1.5	Precise	1	32	34	29	27.2	38.7	18.5	29	32	34	18.5	27.2	38.7	2	0.650	0.000	R	34	38.7	521.086	521.730	522.381	522.383	0
2	22071906	147	High	1.5	Precise	1	31	32	33	22.6	27.2	20.0	31	32	33	22.6	27.2	20.0	1	1.022	0.001	L	31	22.6	522.886	524.487	525.508	525.511	0
2	22071906	148	High	1.5	Precise	1	36	26	22	21.0	38.2	12.3	36	26	22	21.0	38.2	12.3	2	0.518	0.001	D	26	38.2	526.014	528.958	529.477	529.479	0
2	22071906	149	High	1.5	Precise	1	26	34	22	38.2	38.7	12.3	34	26	22	38.7	38.2	12.3	1	0.425	0.000	D	26	38.2	529.982	531.691	532.117	532.119	0
2	22071906	150	High	1.5	Precise	1	36	26	20	21.0	38.2	2.3	26	36	20	38.2	21.0	2.3	2	0.669	0.000	L	26	38.2	532.623	533.927	534.596	534.599	0
2	22071906	151	High	1.5	Precise	1	36	30	22	21.0	36.9	12.3	30	36	22	36.9	21.0	12.3	2	1.063	0.001	L	30	36.9	535.102	537.126	538.189	538.191	0
2	22071906	152	High	1.5	Vague	2	31	26	5	22.6	38.2	12.3	26	31	5	38.2	22.6	12.3	2	0.850	0.001	L	26	38.2	538.694	539.962	540.813	540.815	0
2	22071906	153	High	1.5	Precise	1	31	30	20	22.6	36.9	2.3	30	31	20	36.9	22.6	2.3	2	0.903	0.000	L	30	36.9	541.318	542.726	543.628	543.631	0
2	22071906	154	High	1.5	Vague	2	31	34	12	22.6	38.7	19.5	34	12	31	38.7	19.5	22.6	NaN	NaN	NaN	NaN	NaN	NaN	544.134	545.911	NaN	547.399	1
2	22071906	155	High	1.5	Precise	1	31	32	29	22.6	27.2	18.5	29	31	32	18.5	22.6	27.2	1	0.977	0.000	D	31	22.6	549.402	551.004	551.981	551.983	0
2	22071906	156	High	1.5	Precise	1	36	34	20	21.0	38.7	2.3	36	20	34	21.0	2.3	38.7	2	1.213	0.000	R	34	38.7	552.486	554.287	555.500	555.503	0
2	22071906	157	High	1.5	Vague	2	30	34	13	36.9	38.7	16.6	34	30	13	38.7	36.9	16.6	2	0.761	0.000	L	34	38.7	556.005	558.643	559.404	559.407	0
2	22071906	158	High	1.5	Precise	1	32	34	22	27.2	38.7	12.3	22	32	34	12.3	27.2	38.7	2	0.980	0.001	R	34	38.7	559.909	561.777	562.757	562.759	0
2	22071906	159	High	1.5	Precise	1	31	30	22	22.6	36.9	12.3	22	30	31	12.3	36.9	22.6	2	1.165	0.000	D	30	36.9	563.263	563.968	565.133	565.135	0
2	22071906	160	High	1.5	Precise	1	26	34	27	38.2	38.7	10.2	27	34	26	10.2	38.7	38.2	1	0.534	0.000	R	26	38.2	565.638	567.318	567.853	567.855	0
2	22071906	161	High	1.5	Precise	1	36	31	22	21.0	22.6	12.3	31	22	36	22.6	12.3	21.0	2	1.360	0.001	L	31	22.6	568.358	570.877	572.237	572.239	0
2	22071906	162	High	1.5	Vague	2	30	34	5	36.9	38.7	12.3	30	5	34	36.9	12.3	38.7	1	0.793	0.001	L	30	36.9	572.742	573.356	574.149	574.152	0
2	22071906	163	High	1.5	Precise	1	31	32	20	22.6	27.2	2.3	20	32	31	2.3	27.2	22.6	1	1.433	0.000	R	31	22.6	574.654	577.116	578.549	578.551	0
2	22071906	164	High	1.5	Precise	1	36	31	20	21.0	22.6	2.3	31	20	36	22.6	2.3	21.0	NaN	NaN	NaN	NaN	NaN	NaN	579.054	581.293	NaN	582.780	1
2	22071906	165	High	1.5	Precise	1	36	34	22	21.0	38.7	12.3	36	34	22	21.0	38.7	12.3	2	1.224	0.000	D	34	38.7	584.782	587.044	588.268	588.271	0
2	22071906	166	High	1.5	Vague	2	31	34	13	22.6	38.7	16.6	34	13	31	38.7	16.6	22.6	2	0.926	0.001	L	34	38.7	588.774	590.639	591.565	591.567	0
2	22071906	167	High	1.5	Precise	1	36	26	33	21.0	38.2	20.0	26	36	33	38.2	21.0	20.0	2	0.984	0.000	L	26	38.2	592.070	594.580	595.564	595.567	0
2	22071906	168	High	1.5	Vague	2	36	31	13	21.0	22.6	16.6	36	31	13	21.0	22.6	16.6	2	1.389	0.000	D	31	22.6	596.069	598.143	599.532	599.535	0
2	22071906	169	High	1.5	Vague	2	31	32	1	22.6	27.2	3.1	1	32	31	3.1	27.2	22.6	2	1.423	0.000	D	32	27.2	600.038	601.542	602.965	602.967	0
2	22071906	170	High	1.5	Precise	1	36	31	23	21.0	22.6	1.0	31	23	36	22.6	1.0	21.0	NaN	NaN	NaN	NaN	NaN	NaN	603.470	605.051	NaN	606.538	1
2	22071906	171	High	1.5	Precise	1	32	30	33	27.2	36.9	20.0	30	32	33	36.9	27.2	20.0	2	0.831	0.001	L	30	36.9	608.540	609.837	610.669	610.671	0
2	22071906	172	High	1.5	Vague	2	30	26	13	36.9	38.2	16.6	26	30	13	38.2	36.9	16.6	1	0.549	0.001	D	30	36.9	611.173	612.792	613.340	613.343	0
2	22071906	173	High	1.5	Precise	1	31	32	27	22.6	27.2	10.2	32	27	31	27.2	10.2	22.6	NaN	NaN	NaN	NaN	NaN	NaN	613.846	615.997	NaN	617.484	1
2	22071906	174	High	1.5	Precise	1	31	26	27	22.6	38.2	10.2	31	26	27	22.6	38.2	10.2	2	0.737	0.000	D	26	38.2	619.486	621.387	622.124	622.127	0
2	22071906	175	High	1.5	Vague	2	31	34	2	22.6	38.7	1.6	2	31	34	1.6	22.6	38.7	2	0.958	0.000	R	34	38.7	622.630	624.814	625.772	625.775	0
2	22071906	176	High	1.5	Vague	2	36	32	1	21.0	27.2	3.1	32	36	1	27.2	21.0	3.1	2	1.063	0.000	L	32	27.2	626.278	627.733	628.796	628.799	0
2	22071906	177	High	1.5	Vague	2	36	34	5	21.0	38.7	12.3	34	36	5	38.7	21.0	12.3	2	0.868	0.000	L	34	38.7	629.301	630.616	631.484	631.487	0
2	22071906	178	High	1.5	Vague	2	36	32	7	21.0	27.2	6.7	32	7	36	27.2	6.7	21.0	NaN	NaN	NaN	NaN	NaN	NaN	631.990	632.548	NaN	634.035	1
2	22071906	179	High	1.5	Vague	2	36	32	12	21.0	27.2	19.5	36	32	12	21.0	27.2	19.5	1	0.664	0.000	L	36	21.0	636.037	637.252	637.916	637.919	0
2	22071906	180	High	1.5	Vague	2	32	30	5	27.2	36.9	12.3	32	5	30	27.2	12.3	36.9	2	0.899	0.000	R	30	36.9	638.421	639.817	640.716	640.719	0
2	22071906	181	Low	10.0	Vague	2	31	34	15	22.6	38.7	18.3	34	31	15	38.7	22.6	18.3	2	1.907	0.000	L	34	38.7	669.221	670.681	672.588	672.591	0
2	22071906	182	Low	10.0	Precise	1	31	34	35	22.6	38.7	19.0	34	31	35	38.7	22.6	19.0	2	2.237	0.001	L	34	38.7	673.094	673.616	675.853	675.855	0
2	22071906	183	Low	10.0	Precise	1	36	32	19	21.0	27.2	1.4	19	32	36	1.4	27.2	21.0	2	3.242	0.001	D	32	27.2	676.358	678.810	682.052	682.055	0
2	22071906	184	Low	10.0	Vague	2	36	26	15	21.0	38.2	18.3	26	36	15	38.2	21.0	18.3	2	1.165	0.000	L	26	38.2	682.558	684.079	685.244	685.247	0
2	22071906	185	Low	10.0	Vague	2	30	34	8	36.9	38.7	29.9	34	30	8	38.7	36.9	29.9	1	2.470	0.000	D	30	36.9	685.750	688.583	691.052	691.055	0
2	22071906	186	Low	10.0	Vague	2	31	34	3	22.6	38.7	3.1	3	31	34	3.1	22.6	38.7	2	2.261	0.001	R	34	38.7	691.558	694.207	696.469	696.471	0
2	22071906	187	Low	10.0	Vague	2	36	32	4	21.0	27.2	8.2	36	32	4	21.0	27.2	8.2	2	2.193	0.000	D	32	27.2	696.973	698.660	700.852	700.855	0
2	22071906	188	Low	10.0	Precise	1	36	34	24	21.0	38.7	3.2	24	34	36	3.2	38.7	21.0	2	1.889	0.000	D	34	38.7	701.357	703.692	705.580	705.583	0
2	22071906	189	Low	10.0	Precise	1	31	34	24	22.6	38.7	3.2	34	31	24	38.7	22.6	3.2	1	1.747	0.000	D	31	22.6	706.086	707.210	708.957	708.959	0
2	22071906	190	Low	10.0	Precise	1	32	26	35	27.2	38.2	19.0	35	26	32	19.0	38.2	27.2	2	0.000	2.147	D	26	38.2	709.462	711.104	711.104	711.114	0
2	22071906	191	Low	10.0	Vague	2	36	34	6	21.0	38.7	3.0	6	36	34	3.0	21.0	38.7	2	1.387	0.000	R	34	38.7	711.617	714.377	715.764	715.767	0
2	22071906	192	Low	10.0	Precise	1	31	30	25	22.6	36.9	17.1	25	31	30	17.1	22.6	36.9	2	2.199	0.000	R	30	36.9	716.269	718.694	720.892	720.895	0
2	22071906	193	Low	10.0	Vague	2	31	26	9	22.6	38.2	13.0	9	26	31	13.0	38.2	22.6	2	2.287	0.001	D	26	38.2	721.397	723.525	725.813	725.815	0
2	22071906	194	Low	10.0	Precise	1	31	32	24	22.6	27.2	3.2	24	31	32	3.2	22.6	27.2	2	3.539	0.001	R	32	27.2	726.318	727.386	730.925	730.927	0
2	22071906	195	Low	10.0	Precise	1	31	32	28	22.6	27.2	12.1	31	32	28	22.6	27.2	12.1	2	2.770	0.000	D	32	27.2	731.429	733.578	736.348	736.351	0
2	22071906	196	Low	10.0	Precise	1	36	32	21	21.0	27.2	1.0	36	21	32	21.0	1.0	27.2	2	1.126	0.000	R	32	27.2	736.853	737.870	738.996	738.999	0
2	22071906	197	Low	10.0	Vague	2	31	26	3	22.6	38.2	3.1	26	3	31	38.2	3.1	22.6	2	0.809	0.001	L	26	38.2	739.501	740.731	741.540	741.543	0
2	22071906	198	Low	10.0	Precise	1	30	26	21	36.9	38.2	1.0	26	21	30	38.2	1.0	36.9	2	0.782	0.000	L	26	38.2	742.046	742.982	743.764	743.767	0
2	22071906	199	Low	10.0	Precise	1	26	34	35	38.2	38.7	19.0	34	35	26	38.7	19.0	38.2	1	1.451	0.000	R	26	38.2	744.270	744.866	746.317	746.319	0
2	22071906	200	Low	10.0	Precise	1	31	26	35	22.6	38.2	19.0	31	35	26	22.6	19.0	38.2	2	0.743	0.001	R	26	38.2	746.822	748.502	749.244	749.247	0
2	22071906	201	Low	10.0	Precise	1	31	34	25	22.6	38.7	17.1	34	25	31	38.7	17.1	22.6	2	4.737	0.000	L	34	38.7	749.751	752.507	757.244	757.246	0
2	22071906	202	Low	10.0	Precise	1	36	30	19	21.0	36.9	1.4	30	36	19	36.9	21.0	1.4	2	1.689	0.000	L	30	36.9	757.749	759.683	761.372	761.375	0
2	22071906	203	Low	10.0	Precise	1	36	32	28	21.0	27.2	12.1	28	36	32	12.1	21.0	27.2	2	1.368	0.000	R	32	27.2	761.878	762.948	764.316	764.319	0
2	22071906	204	Low	10.0	Precise	1	31	32	35	22.6	27.2	19.0	32	35	31	27.2	19.0	22.6	2	1.787	0.000	L	32	27.2	764.822	766.225	768.012	768.015	0
2	22071906	205	Low	10.0	Vague	2	32	30	6	27.2	36.9	3.0	6	32	30	3.0	27.2	36.9	2	1.088	0.001	R	30	36.9	768.518	770.612	771.701	771.703	0
2	22071906	206	Low	10.0	Vague	2	36	30	6	21.0	36.9	3.0	6	36	30	3.0	21.0	36.9	2	0.969	0.000	R	30	36.9	772.207	773.987	774.956	774.959	0
2	22071906	207	Low	10.0	Vague	2	32	26	3	27.2	38.2	3.1	3	32	26	3.1	27.2	38.2	2	1.214	0.000	R	26	38.2	775.462	776.646	777.860	777.863	0
2	22071906	208	Low	10.0	Precise	1	36	31	21	21.0	22.6	1.0	31	36	21	22.6	21.0	1.0	2	3.840	0.001	L	31	22.6	778.365	780.852	784.692	784.695	0
2	22071906	209	Low	10.0	Precise	1	32	34	35	27.2	38.7	19.0	34	35	32	38.7	19.0	27.2	2	1.136	0.000	L	34	38.7	785.197	786.685	787.820	787.823	0
2	22071906	210	Low	10.0	Vague	2	32	26	6	27.2	38.2	3.0	26	6	32	38.2	3.0	27.2	2	0.756	0.000	L	26	38.2	788.326	789.457	790.212	790.215	0
2	22071906	211	Low	10.0	Precise	1	26	34	19	38.2	38.7	1.4	34	26	19	38.7	38.2	1.4	1	1.321	0.000	D	26	38.2	790.717	792.763	794.085	794.087	0
2	22071906	212	Low	10.0	Vague	2	36	31	8	21.0	22.6	29.9	31	36	8	22.6	21.0	29.9	3	1.897	0.001	R	8	29.9	794.590	796.683	798.580	798.583	0
2	22071906	213	Low	10.0	Precise	1	32	34	19	27.2	38.7	1.4	34	32	19	38.7	27.2	1.4	2	0.796	0.000	L	34	38.7	799.086	799.808	800.604	800.607	0
2	22071906	214	Low	10.0	Precise	1	30	26	35	36.9	38.2	19.0	26	35	30	38.2	19.0	36.9	2	0.735	0.000	L	26	38.2	801.110	802.798	803.532	803.535	0
2	22071906	215	Low	10.0	Vague	2	30	26	6	36.9	38.2	3.0	30	6	26	36.9	3.0	38.2	2	0.838	0.000	R	26	38.2	804.037	805.614	806.452	806.455	0
2	22071906	216	Low	10.0	Precise	1	32	34	28	27.2	38.7	12.1	28	34	32	12.1	38.7	27.2	2	2.595	0.001	D	34	38.7	806.957	809.034	811.628	811.631	0
2	22071906	217	Low	10.0	Precise	1	30	34	19	36.9	38.7	1.4	19	34	30	1.4	38.7	36.9	2	0.774	0.001	D	34	38.7	812.134	813.062	813.836	813.839	0
2	22071906	218	Low	10.0	Precise	1	31	30	19	22.6	36.9	1.4	31	19	30	22.6	1.4	36.9	2	1.886	0.000	R	30	36.9	814.341	815.254	817.140	817.143	0
2	22071906	219	Low	10.0	Vague	2	26	34	3	38.2	38.7	3.1	3	26	34	3.1	38.2	38.7	1	1.446	0.000	D	26	38.2	817.645	819.766	821.212	821.215	0
2	22071906	220	Low	10.0	Precise	1	36	30	28	21.0	36.9	12.1	28	30	36	12.1	36.9	21.0	2	4.999	0.000	D	30	36.9	821.717	822.661	827.660	827.663	0
2	22071906	221	Low	10.0	Precise	1	26	34	21	38.2	38.7	1.0	26	34	21	38.2	38.7	1.0	1	1.570	0.000	L	26	38.2	828.165	829.035	830.604	830.607	0
2	22071906	222	Low	10.0	Precise	1	36	34	21	21.0	38.7	1.0	36	21	34	21.0	1.0	38.7	2	1.356	0.000	R	34	38.7	831.109	832.432	833.788	833.791	0
2	22071906	223	Low	10.0	Precise	1	32	26	24	27.2	38.2	3.2	32	24	26	27.2	3.2	38.2	2	1.554	0.001	R	26	38.2	834.294	836.011	837.564	837.567	0
2	22071906	224	Low	10.0	Vague	2	36	31	15	21.0	22.6	18.3	36	31	15	21.0	22.6	18.3	3	4.073	0.001	R	15	18.3	838.069	839.012	843.085	843.087	0
2	22071906	225	Low	10.0	Vague	2	31	26	8	22.6	38.2	29.9	31	8	26	22.6	29.9	38.2	2	2.079	0.000	R	26	38.2	843.590	846.470	848.548	848.551	0
2	22071906	226	Low	10.0	Precise	1	36	31	25	21.0	22.6	17.1	31	36	25	22.6	21.0	17.1	3	3.744	0.000	R	25	17.1	849.054	849.876	853.620	853.623	0
2	22071906	227	Low	10.0	Precise	1	31	30	24	22.6	36.9	3.2	24	31	30	3.2	22.6	36.9	2	1.614	0.000	R	30	36.9	854.125	856.454	858.068	858.071	0
2	22071906	228	Low	10.0	Precise	1	36	30	25	21.0	36.9	17.1	25	36	30	17.1	21.0	36.9	2	1.090	0.000	R	30	36.9	858.573	859.626	860.716	860.719	0
2	22071906	229	Low	10.0	Vague	2	31	32	15	22.6	27.2	18.3	31	32	15	22.6	27.2	18.3	2	1.828	0.001	D	32	27.2	861.222	863.328	865.156	865.159	0
2	22071906	230	Low	10.0	Vague	2	36	26	3	21.0	38.2	3.1	26	3	36	38.2	3.1	21.0	2	1.057	0.001	L	26	38.2	865.662	868.611	869.668	869.671	0
2	22071906	231	Low	10.0	Vague	2	31	32	6	22.6	27.2	3.0	6	31	32	3.0	22.6	27.2	2	1.065	0.000	R	32	27.2	870.173	871.851	872.916	872.919	0
2	22071906	232	Low	10.0	Vague	2	31	26	15	22.6	38.2	18.3	31	15	26	22.6	18.3	38.2	2	0.815	0.001	R	26	38.2	873.422	875.253	876.068	876.071	0
2	22071906	233	Low	10.0	Precise	1	31	26	25	22.6	38.2	17.1	26	25	31	38.2	17.1	22.6	2	0.617	0.001	L	26	38.2	876.574	878.028	878.644	878.647	0
2	22071906	234	Low	10.0	Vague	2	36	32	6	21.0	27.2	3.0	6	32	36	3.0	27.2	21.0	2	0.914	0.000	D	32	27.2	879.149	881.451	882.364	882.367	0
2	22071906	235	Low	10.0	Vague	2	36	34	3	21.0	38.7	3.1	34	3	36	38.7	3.1	21.0	2	1.968	0.001	L	34	38.7	882.869	885.052	887.020	887.023	0
2	22071906	236	Low	10.0	Vague	2	36	30	9	21.0	36.9	13.0	9	30	36	13.0	36.9	21.0	2	0.818	0.001	D	30	36.9	887.526	890.210	891.028	891.031	0
2	22071906	237	Low	10.0	Vague	2	32	26	8	27.2	38.2	29.9	26	32	8	38.2	27.2	29.9	2	0.833	0.000	L	26	38.2	891.534	893.123	893.956	893.959	0
2	22071906	238	Low	10.0	Precise	1	36	34	35	21.0	38.7	19.0	36	35	34	21.0	19.0	38.7	2	1.436	0.000	R	34	38.7	894.461	896.664	898.100	898.103	0
2	22071906	239	Low	10.0	Precise	1	31	26	24	22.6	38.2	3.2	24	26	31	3.2	38.2	22.6	2	0.587	0.000	D	26	38.2	898.606	899.937	900.524	900.527	0
2	22071906	240	Low	10.0	Precise	1	36	26	25	21.0	38.2	17.1	25	26	36	17.1	38.2	21.0	2	1.073	0.000	D	26	38.2	901.029	901.668	902.740	902.743	0
2	22071906	241	Low	10.0	Vague	2	36	32	8	21.0	27.2	29.9	36	8	32	21.0	29.9	27.2	2	1.384	0.000	R	32	27.2	920.441	922.005	923.388	923.391	0
2	22071906	242	Low	10.0	Precise	1	32	34	24	27.2	38.7	3.2	32	34	24	27.2	38.7	3.2	2	2.258	0.000	D	34	38.7	923.893	926.682	928.940	928.943	0
2	22071906	243	Low	10.0	Precise	1	36	26	35	21.0	38.2	19.0	26	36	35	38.2	21.0	19.0	2	0.870	0.000	L	26	38.2	929.445	932.271	933.140	933.143	0
2	22071906	244	Low	10.0	Vague	2	26	34	4	38.2	38.7	8.2	4	26	34	8.2	38.2	38.7	1	3.547	0.000	D	26	38.2	933.646	935.025	938.572	938.575	0
2	22071906	245	Low	10.0	Vague	2	31	32	3	22.6	27.2	3.1	32	31	3	27.2	22.6	3.1	2	1.819	0.001	L	32	27.2	939.078	940.721	942.540	942.544	0
2	22071906	246	Low	10.0	Precise	1	30	26	19	36.9	38.2	1.4	26	30	19	38.2	36.9	1.4	2	1.547	0.000	L	26	38.2	943.046	944.785	946.332	946.335	0
2	22071906	247	Low	10.0	Precise	1	31	26	21	22.6	38.2	1.0	31	21	26	22.6	1.0	38.2	2	1.583	0.001	R	26	38.2	946.837	948.054	949.636	949.639	0
2	22071906	248	Low	10.0	Vague	2	36	31	4	21.0	22.6	8.2	31	4	36	22.6	8.2	21.0	2	4.177	0.000	L	31	22.6	950.142	952.819	956.996	956.999	0
2	22071906	249	Low	10.0	Precise	1	36	26	19	21.0	38.2	1.4	36	26	19	21.0	38.2	1.4	2	1.228	0.000	D	26	38.2	957.501	959.768	960.996	960.999	0
2	22071906	250	Low	10.0	Vague	2	30	34	6	36.9	38.7	3.0	6	34	30	3.0	38.7	36.9	1	0.900	0.001	R	30	36.9	961.502	962.497	963.396	963.399	0
2	22071906	251	Low	10.0	Vague	2	31	26	4	22.6	38.2	8.2	31	26	4	22.6	38.2	8.2	2	0.751	0.000	D	26	38.2	963.902	964.677	965.428	965.431	0
2	22071906	252	Low	10.0	Precise	1	36	31	28	21.0	22.6	12.1	36	28	31	21.0	12.1	22.6	3	5.438	0.001	D	28	12.1	965.934	966.991	972.428	972.432	0
2	22071906	253	Low	10.0	Precise	1	31	30	35	22.6	36.9	19.0	31	35	30	22.6	19.0	36.9	2	2.249	0.000	R	30	36.9	972.934	973.571	975.820	975.822	0
2	22071906	254	Low	10.0	Vague	2	32	26	4	27.2	38.2	8.2	32	26	4	27.2	38.2	8.2	2	0.803	0.001	D	26	38.2	976.325	978.842	979.645	979.647	0
2	22071906	255	Low	10.0	Precise	1	30	34	21	36.9	38.7	1.0	21	34	30	1.0	38.7	36.9	1	6.208	0.000	R	30	36.9	980.149	981.580	987.788	987.791	0
2	22071906	256	Low	10.0	Vague	2	31	30	6	22.6	36.9	3.0	30	6	31	36.9	3.0	22.6	2	1.418	0.000	L	30	36.9	988.293	991.274	992.692	992.695	0
2	22071906	257	Low	10.0	Vague	2	30	26	9	36.9	38.2	13.0	30	26	9	36.9	38.2	13.0	2	3.816	0.001	D	26	38.2	993.197	994.804	998.620	998.624	0
2	22071906	258	Low	10.0	Precise	1	32	30	24	27.2	36.9	3.2	32	24	30	27.2	3.2	36.9	2	7.052	0.000	R	30	36.9	999.126	1001.832	1008.884	1008.887	0
2	22071906	259	Low	10.0	Vague	2	36	34	4	21.0	38.7	8.2	36	34	4	21.0	38.7	8.2	2	1.603	0.001	D	34	38.7	1009.389	1011.609	1013.212	1013.215	0
2	22071906	260	Low	10.0	Vague	2	32	34	8	27.2	38.7	29.9	34	32	8	38.7	27.2	29.9	2	6.537	0.000	L	34	38.7	1013.717	1014.531	1021.068	1021.071	0
2	22071906	261	Low	10.0	Vague	2	32	30	15	27.2	36.9	18.3	30	32	15	36.9	27.2	18.3	2	3.665	0.000	L	30	36.9	1021.574	1023.659	1027.324	1027.327	0
2	22071906	262	Low	10.0	Precise	1	36	30	35	21.0	36.9	19.0	36	35	30	21.0	19.0	36.9	2	1.530	0.000	R	30	36.9	1027.829	1029.602	1031.132	1031.135	0
2	22071906	263	Low	10.0	Precise	1	36	34	19	21.0	38.7	1.4	19	36	34	1.4	21.0	38.7	2	3.327	0.000	R	34	38.7	1031.638	1033.149	1036.476	1036.479	0
2	22071906	264	Low	10.0	Precise	1	31	26	19	22.6	38.2	1.4	26	19	31	38.2	1.4	22.6	2	2.283	0.001	L	26	38.2	1036.981	1038.818	1041.100	1041.103	0
2	22071906	265	Low	10.0	Precise	1	31	34	19	22.6	38.7	1.4	34	31	19	38.7	22.6	1.4	2	1.297	0.000	L	34	38.7	1041.606	1043.260	1044.556	1044.559	0
2	22071906	266	Low	10.0	Precise	1	36	26	28	21.0	38.2	12.1	26	36	28	38.2	21.0	12.1	2	1.552	0.000	L	26	38.2	1045.061	1046.804	1048.356	1048.358	0
2	22071906	267	Low	10.0	Vague	2	36	31	3	21.0	22.6	3.1	31	36	3	22.6	21.0	3.1	3	5.358	0.000	R	3	3.1	1048.862	1050.526	1055.884	1055.887	0
2	22071906	268	Low	10.0	Vague	2	30	26	4	36.9	38.2	8.2	30	26	4	36.9	38.2	8.2	1	0.846	0.001	L	30	36.9	1056.390	1057.598	1058.444	1058.447	0
2	22071906	269	Low	10.0	Vague	2	26	34	8	38.2	38.7	29.9	26	34	8	38.2	38.7	29.9	1	0.879	0.000	L	26	38.2	1058.950	1061.845	1062.724	1062.726	0
2	22071906	270	Low	10.0	Precise	1	30	34	25	36.9	38.7	17.1	25	34	30	17.1	38.7	36.9	1	1.746	0.001	R	30	36.9	1063.230	1064.914	1066.660	1066.663	0
2	22071906	271	Low	10.0	Vague	2	32	30	3	27.2	36.9	3.1	32	3	30	27.2	3.1	36.9	2	0.702	0.000	R	30	36.9	1067.165	1069.142	1069.844	1069.847	0
2	22071906	272	Low	10.0	Precise	1	32	34	25	27.2	38.7	17.1	25	34	32	17.1	38.7	27.2	2	2.223	0.000	D	34	38.7	1070.349	1072.733	1074.956	1074.959	0
2	22071906	273	Low	10.0	Vague	2	26	34	6	38.2	38.7	3.0	6	26	34	3.0	38.2	38.7	1	0.890	0.001	D	26	38.2	1075.462	1077.835	1078.724	1078.727	0
2	22071906	274	Low	10.0	Vague	2	30	34	3	36.9	38.7	3.1	30	34	3	36.9	38.7	3.1	1	0.905	0.000	L	30	36.9	1079.230	1079.955	1080.860	1080.863	0
2	22071906	275	Low	10.0	Vague	2	32	30	9	27.2	36.9	13.0	32	30	9	27.2	36.9	13.0	2	1.047	0.000	D	30	36.9	1081.366	1084.341	1085.388	1085.391	0
2	22071906	276	Low	10.0	Precise	1	36	34	28	21.0	38.7	12.1	28	36	34	12.1	21.0	38.7	2	1.873	0.000	R	34	38.7	1085.893	1088.259	1090.132	1090.135	0
2	22071906	277	Low	10.0	Precise	1	36	32	25	21.0	27.2	17.1	25	36	32	17.1	21.0	27.2	2	1.544	0.001	R	32	27.2	1090.637	1091.484	1093.028	1093.031	0
2	22071906	278	Low	10.0	Vague	2	31	32	8	22.6	27.2	29.9	8	31	32	29.9	22.6	27.2	2	3.880	0.001	R	32	27.2	1093.534	1094.997	1098.876	1098.879	0
2	22071906	279	Low	10.0	Precise	1	36	30	24	21.0	36.9	3.2	36	24	30	21.0	3.2	36.9	2	1.337	0.000	R	30	36.9	1099.382	1100.235	1101.572	1101.574	0
2	22071906	280	Low	10.0	Vague	2	31	30	8	22.6	36.9	29.9	30	8	31	36.9	29.9	22.6	2	0.869	0.000	L	30	36.9	1102.078	1103.391	1104.260	1104.263	0
2	22071906	281	Low	10.0	Vague	2	31	34	6	22.6	38.7	3.0	6	34	31	3.0	38.7	22.6	2	1.049	0.000	D	34	38.7	1104.766	1106.939	1107.988	1107.991	0
2	22071906	282	Low	10.0	Precise	1	30	34	35	36.9	38.7	19.0	34	35	30	38.7	19.0	36.9	1	1.048	0.000	R	30	36.9	1108.493	1110.869	1111.916	1111.919	0
2	22071906	283	Low	10.0	Vague	2	32	34	6	27.2	38.7	3.0	34	6	32	38.7	3.0	27.2	2	1.059	0.000	L	34	38.7	1112.423	1114.209	1115.268	1115.271	0
2	22071906	284	Low	10.0	Precise	1	36	32	24	21.0	27.2	3.2	36	24	32	21.0	3.2	27.2	2	1.373	0.000	R	32	27.2	1115.773	1117.679	1119.052	1119.054	0
2	22071906	285	Low	10.0	Vague	2	30	26	8	36.9	38.2	29.9	30	8	26	36.9	29.9	38.2	2	2.391	0.001	R	26	38.2	1119.558	1122.341	1124.732	1124.735	0
2	22071906	286	Low	10.0	Precise	1	36	26	24	21.0	38.2	3.2	36	24	26	21.0	3.2	38.2	2	0.630	0.001	R	26	38.2	1125.238	1125.990	1126.620	1126.622	0
2	22071906	287	Low	10.0	Precise	1	32	26	25	27.2	38.2	17.1	32	25	26	27.2	17.1	38.2	2	0.522	0.000	R	26	38.2	1127.125	1128.626	1129.148	1129.151	0
2	22071906	288	Low	10.0	Precise	1	36	31	19	21.0	22.6	1.4	19	36	31	1.4	21.0	22.6	3	4.399	0.000	L	19	1.4	1129.653	1131.941	1136.340	1136.343	0
2	22071906	289	Low	10.0	Vague	2	36	30	8	21.0	36.9	29.9	30	8	36	36.9	29.9	21.0	2	4.873	0.001	L	30	36.9	1136.845	1139.291	1144.164	1144.167	0
2	22071906	290	Low	10.0	Precise	1	32	26	28	27.2	38.2	12.1	28	26	32	12.1	38.2	27.2	2	0.777	0.001	D	26	38.2	1144.670	1145.227	1146.004	1146.007	0
2	22071906	291	Low	10.0	Vague	2	32	26	9	27.2	38.2	13.0	26	32	9	38.2	27.2	13.0	2	0.687	0.000	L	26	38.2	1146.510	1148.205	1148.892	1148.895	0
2	22071906	292	Low	10.0	Precise	1	32	30	35	27.2	36.9	19.0	35	30	32	19.0	36.9	27.2	2	1.513	0.001	D	30	36.9	1149.398	1149.891	1151.404	1151.407	0
2	22071906	293	Low	10.0	Vague	2	32	30	8	27.2	36.9	29.9	32	30	8	27.2	36.9	29.9	2	1.051	0.001	D	30	36.9	1151.909	1154.546	1155.596	1155.598	0
2	22071906	294	Low	10.0	Vague	2	32	30	4	27.2	36.9	8.2	4	30	32	8.2	36.9	27.2	2	1.794	0.000	D	30	36.9	1156.102	1158.578	1160.372	1160.375	0
2	22071906	295	Low	10.0	Vague	2	31	34	9	22.6	38.7	13.0	31	9	34	22.6	13.0	38.7	2	2.100	0.001	R	34	38.7	1160.878	1163.792	1165.892	1165.895	0
2	22071906	296	Low	10.0	Vague	2	31	30	9	22.6	36.9	13.0	31	9	30	22.6	13.0	36.9	2	1.210	0.000	R	30	36.9	1166.398	1168.626	1169.836	1169.838	0
2	22071906	297	Low	10.0	Vague	2	36	31	6	21.0	22.6	3.0	36	31	6	21.0	22.6	3.0	3	2.854	0.000	R	6	3.0	1170.341	1173.214	1176.068	1176.071	0
2	22071906	298	Low	10.0	Precise	1	32	26	21	27.2	38.2	1.0	21	32	26	1.0	27.2	38.2	2	1.087	0.000	R	26	38.2	1176.573	1177.821	1178.908	1178.910	0
2	22071906	299	Low	10.0	Vague	2	32	34	15	27.2	38.7	18.3	15	34	32	18.3	38.7	27.2	2	1.850	0.000	D	34	38.7	1179.413	1182.082	1183.932	1183.935	0
2	22071906	300	Low	10.0	Precise	1	36	26	21	21.0	38.2	1.0	26	21	36	38.2	1.0	21.0	2	2.316	0.000	L	26	38.2	1184.437	1185.136	1187.452	1187.454	0
2	22071906	301	Low	10.0	Vague	2	36	32	15	21.0	27.2	18.3	32	15	36	27.2	18.3	21.0	2	1.639	0.001	L	32	27.2	1197.840	1200.053	1201.692	1201.695	0
2	22071906	302	Low	10.0	Vague	2	31	30	4	22.6	36.9	8.2	4	31	30	8.2	22.6	36.9	2	0.894	0.000	R	30	36.9	1202.198	1203.598	1204.492	1204.494	0
2	22071906	303	Low	10.0	Precise	1	36	32	35	21.0	27.2	19.0	35	32	36	19.0	27.2	21.0	2	0.881	0.000	D	32	27.2	1204.998	1207.875	1208.756	1208.759	0
2	22071906	304	Low	10.0	Vague	2	32	34	3	27.2	38.7	3.1	3	34	32	3.1	38.7	27.2	2	0.888	0.001	D	34	38.7	1209.262	1211.516	1212.404	1212.407	0
2	22071906	305	Low	10.0	Precise	1	30	34	28	36.9	38.7	12.1	30	34	28	36.9	38.7	12.1	1	4.132	0.000	L	30	36.9	1212.910	1213.936	1218.068	1218.071	0
2	22071906	306	Low	10.0	Precise	1	32	30	25	27.2	36.9	17.1	32	25	30	27.2	17.1	36.9	2	1.010	0.001	R	30	36.9	1218.573	1220.146	1221.156	1221.159	0
2	22071906	307	Low	10.0	Vague	2	32	34	9	27.2	38.7	13.0	9	34	32	13.0	38.7	27.2	2	1.256	0.001	D	34	38.7	1221.662	1222.388	1223.644	1223.647	0
2	22071906	308	Low	10.0	Precise	1	31	34	28	22.6	38.7	12.1	31	34	28	22.6	38.7	12.1	2	2.402	0.000	D	34	38.7	1224.149	1226.891	1229.292	1229.295	0
2	22071906	309	Low	10.0	Precise	1	32	30	28	27.2	36.9	12.1	32	28	30	27.2	12.1	36.9	2	1.703	0.000	R	30	36.9	1229.798	1232.405	1234.108	1234.110	0
2	22071906	310	Low	10.0	Vague	2	31	32	4	22.6	27.2	8.2	4	32	31	8.2	27.2	22.6	2	3.286	0.000	D	32	27.2	1234.613	1236.318	1239.604	1239.606	0
2	22071906	311	Low	10.0	Precise	1	26	34	25	38.2	38.7	17.1	25	34	26	17.1	38.7	38.2	1	1.606	0.001	R	26	38.2	1240.109	1240.902	1242.508	1242.511	0
2	22071906	312	Low	10.0	Precise	1	32	30	19	27.2	36.9	1.4	32	19	30	27.2	1.4	36.9	2	1.185	0.000	R	30	36.9	1243.014	1244.099	1245.284	1245.287	0
2	22071906	313	Low	10.0	Precise	1	30	34	24	36.9	38.7	3.2	30	34	24	36.9	38.7	3.2	1	3.220	0.000	L	30	36.9	1245.789	1248.112	1251.332	1251.334	0
2	22071906	314	Low	10.0	Vague	2	31	26	6	22.6	38.2	3.0	26	6	31	38.2	3.0	22.6	2	0.987	0.000	L	26	38.2	1251.837	1254.201	1255.188	1255.190	0
2	22071906	315	Low	10.0	Vague	2	32	26	15	27.2	38.2	18.3	32	15	26	27.2	18.3	38.2	2	1.600	0.000	R	26	38.2	1255.693	1257.796	1259.396	1259.398	0
2	22071906	316	Low	10.0	Precise	1	32	30	21	27.2	36.9	1.0	21	30	32	1.0	36.9	27.2	2	0.970	0.000	D	30	36.9	1259.901	1260.858	1261.828	1261.831	0
2	22071906	317	Low	10.0	Vague	2	36	34	9	21.0	38.7	13.0	34	9	36	38.7	13.0	21.0	2	2.006	0.000	L	34	38.7	1262.333	1263.366	1265.372	1265.374	0
2	22071906	318	Low	10.0	Vague	2	36	30	3	21.0	36.9	3.1	36	30	3	21.0	36.9	3.1	2	0.940	0.000	D	30	36.9	1265.877	1268.280	1269.220	1269.223	0
2	22071906	319	Low	10.0	Vague	2	30	26	3	36.9	38.2	3.1	26	30	3	38.2	36.9	3.1	1	1.325	0.001	D	30	36.9	1269.725	1270.511	1271.836	1271.839	0
2	22071906	320	Low	10.0	Precise	1	30	26	24	36.9	38.2	3.2	26	24	30	38.2	3.2	36.9	1	1.169	0.001	R	30	36.9	1272.341	1273.707	1274.876	1274.879	0
2	22071906	321	Low	10.0	Precise	1	31	32	25	22.6	27.2	17.1	31	32	25	22.6	27.2	17.1	2	2.262	0.001	D	32	27.2	1275.382	1276.407	1278.668	1278.671	0
2	22071906	322	Low	10.0	Vague	2	36	26	6	21.0	38.2	3.0	6	36	26	3.0	21.0	38.2	2	0.855	0.000	R	26	38.2	1279.174	1281.269	1282.124	1282.126	0
2	22071906	323	Low	10.0	Precise	1	31	26	28	22.6	38.2	12.1	28	26	31	12.1	38.2	22.6	2	0.715	0.001	D	26	38.2	1282.630	1284.210	1284.924	1284.928	0
2	22071906	324	Low	10.0	Precise	1	31	34	21	22.6	38.7	1.0	21	34	31	1.0	38.7	22.6	2	1.363	0.001	D	34	38.7	1285.431	1288.282	1289.644	1289.647	0
2	22071906	325	Low	10.0	Precise	1	36	31	24	21.0	22.6	3.2	24	36	31	3.2	21.0	22.6	1	7.192	0.000	D	36	21.0	1290.149	1290.844	1298.036	1298.039	0
2	22071906	326	Low	10.0	Vague	2	36	26	9	21.0	38.2	13.0	9	26	36	13.0	38.2	21.0	2	1.372	0.001	D	26	38.2	1298.542	1299.873	1301.244	1301.247	0
2	22071906	327	Low	10.0	Precise	1	26	34	24	38.2	38.7	3.2	24	34	26	3.2	38.7	38.2	1	2.848	0.001	R	26	38.2	1301.750	1303.588	1306.436	1306.439	0
2	22071906	328	Low	10.0	Vague	2	36	32	9	21.0	27.2	13.0	32	36	9	27.2	21.0	13.0	1	1.578	0.001	D	36	21.0	1306.942	1308.747	1310.324	1310.327	0
2	22071906	329	Low	10.0	Vague	2	30	34	4	36.9	38.7	8.2	30	34	4	36.9	38.7	8.2	1	2.400	0.000	L	30	36.9	1310.830	1312.700	1315.100	1315.102	0
2	22071906	330	Low	10.0	Vague	2	31	30	15	22.6	36.9	18.3	31	30	15	22.6	36.9	18.3	2	0.727	0.001	D	30	36.9	1315.606	1316.469	1317.196	1317.199	0
2	22071906	331	Low	10.0	Vague	2	36	30	15	21.0	36.9	18.3	15	36	30	18.3	21.0	36.9	2	0.917	0.000	R	30	36.9	1317.702	1319.023	1319.940	1319.942	0
2	22071906	332	Low	10.0	Vague	2	36	34	8	21.0	38.7	29.9	34	36	8	38.7	21.0	29.9	2	1.854	0.000	L	34	38.7	1320.446	1321.238	1323.092	1323.095	0
2	22071906	333	Low	10.0	Vague	2	31	34	8	22.6	38.7	29.9	8	31	34	29.9	22.6	38.7	2	1.927	0.001	R	34	38.7	1323.598	1326.501	1328.428	1328.430	0
2	22071906	334	Low	10.0	Precise	1	31	30	21	22.6	36.9	1.0	31	30	21	22.6	36.9	1.0	2	0.790	0.001	D	30	36.9	1328.933	1331.919	1332.708	1332.712	0
2	22071906	335	Low	10.0	Precise	1	31	32	19	22.6	27.2	1.4	31	32	19	22.6	27.2	1.4	2	2.113	0.000	D	32	27.2	1333.214	1334.787	1336.900	1336.902	0
2	22071906	336	Low	10.0	Precise	1	36	31	35	21.0	22.6	19.0	35	31	36	19.0	22.6	21.0	1	2.219	0.000	R	36	21.0	1337.405	1340.057	1342.276	1342.279	0
2	22071906	337	Low	10.0	Precise	1	30	26	28	36.9	38.2	12.1	26	30	28	38.2	36.9	12.1	1	0.647	0.000	D	30	36.9	1342.782	1344.997	1345.644	1345.647	0
2	22071906	338	Low	10.0	Vague	2	30	26	15	36.9	38.2	18.3	15	26	30	18.3	38.2	36.9	2	1.232	0.000	D	26	38.2	1346.149	1347.188	1348.420	1348.422	0
2	22071906	339	Low	10.0	Precise	1	36	30	21	21.0	36.9	1.0	30	36	21	36.9	21.0	1.0	2	1.993	0.000	L	30	36.9	1348.925	1351.043	1353.036	1353.039	0
2	22071906	340	Low	10.0	Vague	2	26	34	9	38.2	38.7	13.0	9	26	34	13.0	38.2	38.7	1	1.583	0.000	D	26	38.2	1353.541	1354.045	1355.628	1355.631	0
2	22071906	341	Low	10.0	Vague	2	36	32	3	21.0	27.2	3.1	32	36	3	27.2	21.0	3.1	2	4.016	0.001	L	32	27.2	1356.133	1359.084	1363.100	1363.103	0
2	22071906	342	Low	10.0	Precise	1	36	34	25	21.0	38.7	17.1	34	25	36	38.7	17.1	21.0	2	1.314	0.000	L	34	38.7	1363.605	1364.442	1365.756	1365.759	0
2	22071906	343	Low	10.0	Precise	1	31	32	21	22.6	27.2	1.0	32	31	21	27.2	22.6	1.0	2	1.159	0.000	L	32	27.2	1366.261	1367.069	1368.228	1368.231	0
2	22071906	344	Low	10.0	Precise	1	32	34	21	27.2	38.7	1.0	32	21	34	27.2	1.0	38.7	1	0.830	0.001	L	32	27.2	1368.734	1371.047	1371.876	1371.879	0
2	22071906	345	Low	10.0	Precise	1	31	30	28	22.6	36.9	12.1	31	30	28	22.6	36.9	12.1	2	0.798	0.000	D	30	36.9	1372.382	1374.766	1375.564	1375.566	0
2	22071906	346	Low	10.0	Precise	1	32	26	19	27.2	38.2	1.4	26	19	32	38.2	1.4	27.2	2	0.774	0.001	L	26	38.2	1376.069	1378.791	1379.564	1379.567	0
2	22071906	347	Low	10.0	Vague	2	36	34	15	21.0	38.7	18.3	15	36	34	18.3	21.0	38.7	2	0.957	0.000	R	34	38.7	1380.070	1380.759	1381.716	1381.718	0
2	22071906	348	Low	10.0	Vague	2	31	30	3	22.6	36.9	3.1	31	3	30	22.6	3.1	36.9	2	0.978	0.001	R	30	36.9	1382.221	1384.962	1385.940	1385.942	0
2	22071906	349	Low	10.0	Vague	2	30	34	9	36.9	38.7	13.0	30	9	34	36.9	13.0	38.7	1	1.067	0.000	L	30	36.9	1386.446	1389.073	1390.140	1390.142	0
2	22071906	350	Low	10.0	Vague	2	36	26	4	21.0	38.2	8.2	26	36	4	38.2	21.0	8.2	2	1.251	0.000	L	26	38.2	1390.646	1393.258	1394.508	1394.511	0
2	22071906	351	Low	10.0	Precise	1	26	34	28	38.2	38.7	12.1	28	26	34	12.1	38.2	38.7	1	0.868	0.000	D	26	38.2	1395.013	1395.728	1396.596	1396.599	0
2	22071906	352	Low	10.0	Precise	1	30	26	25	36.9	38.2	17.1	25	26	30	17.1	38.2	36.9	2	1.423	0.000	D	26	38.2	1397.101	1398.845	1400.268	1400.270	0
2	22071906	353	Low	10.0	Vague	2	26	34	15	38.2	38.7	18.3	26	15	34	38.2	18.3	38.7	1	0.690	0.000	L	26	38.2	1400.774	1402.577	1403.268	1403.270	0
2	22071906	354	Low	10.0	Vague	2	30	34	15	36.9	38.7	18.3	30	34	15	36.9	38.7	18.3	1	1.347	0.000	L	30	36.9	1403.774	1405.152	1406.500	1406.502	0
2	22071906	355	Low	10.0	Vague	2	31	34	4	22.6	38.7	8.2	34	31	4	38.7	22.6	8.2	2	1.394	0.001	L	34	38.7	1407.004	1409.098	1410.492	1410.494	0
2	22071906	356	Low	10.0	Vague	2	36	31	9	21.0	22.6	13.0	36	31	9	21.0	22.6	13.0	3	3.577	0.000	R	9	13.0	1410.998	1411.731	1415.308	1415.310	0
2	22071906	357	Low	10.0	Vague	2	32	34	4	27.2	38.7	8.2	34	4	32	38.7	8.2	27.2	2	0.826	0.000	L	34	38.7	1415.814	1417.586	1418.412	1418.414	0
2	22071906	358	Low	10.0	Vague	2	31	32	9	22.6	27.2	13.0	31	9	32	22.6	13.0	27.2	3	2.367	0.000	D	9	13.0	1418.916	1420.341	1422.708	1422.711	0
2	22071906	359	Low	10.0	Vague	2	36	30	4	21.0	36.9	8.2	30	36	4	36.9	21.0	8.2	2	0.712	0.000	L	30	36.9	1423.214	1425.420	1426.132	1426.134	0
2	22071906	360	Low	10.0	Vague	2	36	26	8	21.0	38.2	29.9	8	36	26	29.9	21.0	38.2	2	0.731	0.000	R	26	38.2	1426.637	1427.169	1427.900	1427.903	0
