Group	subID	trial	TimePressure	TimeConstraint	Vagueness	Vaguenesscode	ID1	ID2	ID3	V1	V2	V3	ID_left	ID_middle	ID_right	Bid_left	Bid_middle	Bid_right	chosenItem	RT	RTvariance	chosenPosition	chosenID	chosenValue	fixation_time	option_time	choice_time	feedback_time	timeout
2	22110302	1	High	1.5	Vague	2	33	26	5	40.2	61.2	6.1	26	33	5	61.2	40.2	6.1	NaN	NaN	NaN	NaN	NaN	NaN	19.222	20.557	NaN	22.047	1
2	22110302	2	High	1.5	Precise	1	34	35	36	47.0	49.8	11.2	36	34	35	11.2	47.0	49.8	3	0.562	0.000	L	36	11.2	24.051	24.713	25.275	25.278	0
2	22110302	3	High	1.5	Vague	2	32	26	5	31.4	61.2	6.1	26	5	32	61.2	6.1	31.4	1	1.182	0.000	R	32	31.4	25.783	26.653	27.835	27.838	0
2	22110302	4	High	1.5	Vague	2	33	34	6	40.2	47.0	3.0	34	33	6	47.0	40.2	3.0	2	1.416	0.000	L	34	47.0	28.342	30.979	32.395	32.397	0
2	22110302	5	High	1.5	Vague	2	34	26	3	47.0	61.2	7.3	34	3	26	47.0	7.3	61.2	NaN	NaN	NaN	NaN	NaN	NaN	32.902	34.762	NaN	36.249	1
2	22110302	6	High	1.5	Vague	2	34	26	6	47.0	61.2	3.0	26	6	34	61.2	3.0	47.0	NaN	NaN	NaN	NaN	NaN	NaN	38.253	41.070	NaN	42.557	1
2	22110302	7	High	1.5	Precise	1	34	35	20	47.0	49.8	3.6	20	34	35	3.6	47.0	49.8	2	1.188	0.001	R	35	49.8	44.560	46.408	47.595	47.599	0
2	22110302	8	High	1.5	Vague	2	33	34	9	40.2	47.0	20.0	34	33	9	47.0	40.2	20.0	1	1.238	0.000	D	33	40.2	48.103	50.725	51.963	51.966	0
2	22110302	9	High	1.5	Vague	2	32	35	14	31.4	49.8	15.8	14	35	32	15.8	49.8	31.4	NaN	NaN	NaN	NaN	NaN	NaN	52.468	55.270	NaN	56.757	1
2	22110302	10	High	1.5	Vague	2	28	32	3	20.9	31.4	7.3	28	32	3	20.9	31.4	7.3	3	1.110	0.000	R	3	7.3	58.760	60.740	61.851	61.853	0
2	22110302	11	High	1.5	Vague	2	33	35	6	40.2	49.8	3.0	6	33	35	3.0	40.2	49.8	NaN	NaN	NaN	NaN	NaN	NaN	62.356	64.349	NaN	65.836	1
2	22110302	12	High	1.5	Precise	1	35	26	36	49.8	61.2	11.2	26	35	36	61.2	49.8	11.2	3	0.960	0.000	R	36	11.2	67.840	68.915	69.875	69.877	0
2	22110302	13	High	1.5	Precise	1	35	26	23	49.8	61.2	3.0	23	35	26	3.0	49.8	61.2	NaN	NaN	NaN	NaN	NaN	NaN	70.379	71.157	NaN	72.644	1
2	22110302	14	High	1.5	Precise	1	32	26	27	31.4	61.2	7.3	32	27	26	31.4	7.3	61.2	2	1.058	0.000	R	26	61.2	74.646	75.489	76.547	76.549	0
2	22110302	15	High	1.5	Vague	2	28	35	14	20.9	49.8	15.8	14	28	35	15.8	20.9	49.8	NaN	NaN	NaN	NaN	NaN	NaN	77.051	79.566	NaN	81.053	1
2	22110302	16	High	1.5	Vague	2	28	34	9	20.9	47.0	20.0	9	34	28	20.0	47.0	20.9	1	1.263	0.000	R	28	20.9	83.055	85.340	86.603	86.605	0
2	22110302	17	High	1.5	Precise	1	35	26	27	49.8	61.2	7.3	35	27	26	49.8	7.3	61.2	1	1.370	0.000	L	35	49.8	87.108	89.968	91.339	91.342	0
2	22110302	18	High	1.5	Precise	1	28	35	23	20.9	49.8	3.0	28	35	23	20.9	49.8	3.0	NaN	NaN	NaN	NaN	NaN	NaN	91.844	93.416	NaN	94.902	1
2	22110302	19	High	1.5	Precise	1	34	26	27	47.0	61.2	7.3	34	27	26	47.0	7.3	61.2	NaN	NaN	NaN	NaN	NaN	NaN	96.904	98.232	NaN	99.719	1
2	22110302	20	High	1.5	Vague	2	32	26	6	31.4	61.2	3.0	26	6	32	61.2	3.0	31.4	1	0.986	0.000	R	32	31.4	101.722	104.321	105.307	105.309	0
2	22110302	21	High	1.5	Vague	2	34	35	14	47.0	49.8	15.8	35	14	34	49.8	15.8	47.0	1	1.020	0.001	R	34	47.0	105.812	107.279	108.299	108.301	0
2	22110302	22	High	1.5	Vague	2	28	32	14	20.9	31.4	15.8	14	32	28	15.8	31.4	20.9	1	1.033	0.000	R	28	20.9	108.804	110.810	111.843	111.845	0
2	22110302	23	High	1.5	Vague	2	32	34	9	31.4	47.0	20.0	32	9	34	31.4	20.0	47.0	2	0.849	0.001	R	34	47.0	112.348	115.258	116.107	116.109	0
2	22110302	24	High	1.5	Precise	1	34	26	24	47.0	61.2	2.6	26	24	34	61.2	2.6	47.0	1	1.366	0.000	R	34	47.0	116.612	117.645	119.011	119.013	0
2	22110302	25	High	1.5	Precise	1	33	35	24	40.2	49.8	2.6	24	35	33	2.6	49.8	40.2	1	0.961	0.000	R	33	40.2	119.516	122.170	123.131	123.133	0
2	22110302	26	High	1.5	Vague	2	33	35	5	40.2	49.8	6.1	33	35	5	40.2	49.8	6.1	3	0.869	0.000	R	5	6.1	123.636	126.181	127.051	127.053	0
2	22110302	27	High	1.5	Vague	2	32	34	3	31.4	47.0	7.3	3	32	34	7.3	31.4	47.0	2	0.984	0.000	R	34	47.0	127.556	130.091	131.075	131.077	0
2	22110302	28	High	1.5	Vague	2	32	33	2	31.4	40.2	4.2	32	33	2	31.4	40.2	4.2	3	0.450	0.000	R	2	4.2	131.580	133.249	133.699	133.701	0
2	22110302	29	High	1.5	Vague	2	32	35	6	31.4	49.8	3.0	32	6	35	31.4	3.0	49.8	2	0.673	0.000	R	35	49.8	134.203	136.498	137.171	137.174	0
2	22110302	30	High	1.5	Precise	1	33	35	25	40.2	49.8	4.7	35	25	33	49.8	4.7	40.2	NaN	NaN	NaN	NaN	NaN	NaN	137.676	138.464	NaN	139.950	1
2	22110302	31	High	1.5	Vague	2	28	34	14	20.9	47.0	15.8	14	28	34	15.8	20.9	47.0	2	0.663	0.000	R	34	47.0	141.953	144.244	144.907	144.909	0
2	22110302	32	High	1.5	Precise	1	33	35	23	40.2	49.8	3.0	23	35	33	3.0	49.8	40.2	1	0.618	0.001	R	33	40.2	145.412	147.785	148.403	148.405	0
2	22110302	33	High	1.5	Precise	1	33	26	25	40.2	61.2	4.7	33	25	26	40.2	4.7	61.2	2	1.301	0.000	R	26	61.2	148.907	150.421	151.723	151.725	0
2	22110302	34	High	1.5	Precise	1	32	35	24	31.4	49.8	2.6	32	24	35	31.4	2.6	49.8	NaN	NaN	NaN	NaN	NaN	NaN	152.227	152.769	NaN	154.255	1
2	22110302	35	High	1.5	Precise	1	33	34	25	40.2	47.0	4.7	34	25	33	47.0	4.7	40.2	1	0.868	0.000	R	33	40.2	156.258	158.871	159.739	159.741	0
2	22110302	36	High	1.5	Precise	1	28	32	23	20.9	31.4	3.0	28	23	32	20.9	3.0	31.4	2	0.591	0.001	R	32	31.4	160.244	161.500	162.091	162.093	0
2	22110302	37	High	1.5	Precise	1	32	33	25	31.4	40.2	4.7	32	33	25	31.4	40.2	4.7	3	0.784	0.000	R	25	4.7	162.595	165.178	165.963	165.965	0
2	22110302	38	High	1.5	Vague	2	34	26	5	47.0	61.2	6.1	34	5	26	47.0	6.1	61.2	3	0.821	0.000	D	5	6.1	166.468	167.750	168.571	168.574	0
2	22110302	39	High	1.5	Vague	2	33	34	2	40.2	47.0	4.2	33	34	2	40.2	47.0	4.2	1	1.022	0.000	L	33	40.2	169.076	170.501	171.523	171.525	0
2	22110302	40	High	1.5	Precise	1	32	34	36	31.4	47.0	11.2	32	34	36	31.4	47.0	11.2	3	1.411	0.001	R	36	11.2	172.027	172.905	174.315	174.317	0
2	22110302	41	High	1.5	Vague	2	32	26	3	31.4	61.2	7.3	32	3	26	31.4	7.3	61.2	2	0.842	0.000	R	26	61.2	174.820	176.713	177.555	177.557	0
2	22110302	42	High	1.5	Precise	1	35	26	25	49.8	61.2	4.7	26	35	25	61.2	49.8	4.7	2	1.279	0.000	L	26	61.2	178.059	180.003	181.283	181.286	0
2	22110302	43	High	1.5	Precise	1	28	35	25	20.9	49.8	4.7	28	25	35	20.9	4.7	49.8	2	1.196	0.000	R	35	49.8	181.788	183.975	185.171	185.174	0
2	22110302	44	High	1.5	Vague	2	28	32	2	20.9	31.4	4.2	32	2	28	31.4	4.2	20.9	3	0.300	0.000	D	2	4.2	185.676	187.583	187.883	187.885	0
2	22110302	45	High	1.5	Vague	2	32	26	9	31.4	61.2	20.0	26	32	9	61.2	31.4	20.0	1	0.685	0.000	D	32	31.4	188.388	189.191	189.875	189.877	0
2	22110302	46	High	1.5	Vague	2	35	26	14	49.8	61.2	15.8	26	35	14	61.2	49.8	15.8	3	0.801	0.000	R	14	15.8	190.379	192.626	193.427	193.429	0
2	22110302	47	High	1.5	Vague	2	28	35	3	20.9	49.8	7.3	3	35	28	7.3	49.8	20.9	NaN	NaN	NaN	NaN	NaN	NaN	193.932	194.852	NaN	196.339	1
2	22110302	48	High	1.5	Precise	1	28	35	20	20.9	49.8	3.6	20	35	28	3.6	49.8	20.9	3	0.968	0.000	L	20	3.6	198.341	201.059	202.027	202.029	0
2	22110302	49	High	1.5	Vague	2	34	35	9	47.0	49.8	20.0	35	34	9	49.8	47.0	20.0	3	1.440	0.000	R	9	20.0	202.532	204.610	206.051	206.053	0
2	22110302	50	High	1.5	Vague	2	28	33	14	20.9	40.2	15.8	14	33	28	15.8	40.2	20.9	2	1.397	0.000	D	33	40.2	206.556	208.462	209.859	209.861	0
2	22110302	51	High	1.5	Precise	1	34	26	23	47.0	61.2	3.0	23	34	26	3.0	47.0	61.2	3	1.304	0.000	L	23	3.0	210.363	211.899	213.203	213.205	0
2	22110302	52	High	1.5	Vague	2	28	34	3	20.9	47.0	7.3	28	3	34	20.9	7.3	47.0	2	0.000	2.909	R	34	47.0	213.708	216.111	216.111	216.123	0
2	22110302	53	High	1.5	Vague	2	28	33	9	20.9	40.2	20.0	9	33	28	20.0	40.2	20.9	NaN	NaN	NaN	NaN	NaN	NaN	216.626	218.926	NaN	220.413	1
2	22110302	54	High	1.5	Precise	1	32	34	27	31.4	47.0	7.3	34	27	32	47.0	7.3	31.4	NaN	NaN	NaN	NaN	NaN	NaN	222.415	225.311	NaN	226.798	1
2	22110302	55	High	1.5	Precise	1	32	33	27	31.4	40.2	7.3	27	33	32	7.3	40.2	31.4	1	0.772	0.000	R	32	31.4	228.801	231.103	231.875	231.877	0
2	22110302	56	High	1.5	Precise	1	28	26	24	20.9	61.2	2.6	24	28	26	2.6	20.9	61.2	1	0.935	0.001	D	28	20.9	232.380	233.124	234.059	234.061	0
2	22110302	57	High	1.5	Vague	2	32	33	5	31.4	40.2	6.1	5	32	33	6.1	31.4	40.2	3	0.913	0.001	L	5	6.1	234.564	237.058	237.971	237.974	0
2	22110302	58	High	1.5	Precise	1	32	34	24	31.4	47.0	2.6	34	32	24	47.0	31.4	2.6	NaN	NaN	NaN	NaN	NaN	NaN	238.476	239.213	NaN	240.699	1
2	22110302	59	High	1.5	Precise	1	28	34	20	20.9	47.0	3.6	28	34	20	20.9	47.0	3.6	3	0.246	0.000	R	20	3.6	242.702	244.116	244.363	244.365	0
2	22110302	60	High	1.5	Precise	1	32	33	36	31.4	40.2	11.2	32	36	33	31.4	11.2	40.2	NaN	NaN	NaN	NaN	NaN	NaN	244.868	247.774	NaN	249.261	1
2	22110302	61	High	1.5	Precise	1	32	34	25	31.4	47.0	4.7	32	25	34	31.4	4.7	47.0	2	0.505	0.000	R	34	47.0	271.375	273.922	274.427	274.429	0
2	22110302	62	High	1.5	Vague	2	28	35	9	20.9	49.8	20.0	28	9	35	20.9	20.0	49.8	2	0.439	0.000	R	35	49.8	274.932	277.179	277.619	277.621	0
2	22110302	63	High	1.5	Vague	2	34	35	6	47.0	49.8	3.0	6	35	34	3.0	49.8	47.0	1	0.755	0.000	R	34	47.0	278.124	280.024	280.779	280.781	0
2	22110302	64	High	1.5	Precise	1	28	34	27	20.9	47.0	7.3	28	27	34	20.9	7.3	47.0	2	1.398	0.000	R	34	47.0	281.284	282.013	283.411	283.414	0
2	22110302	65	High	1.5	Precise	1	32	33	20	31.4	40.2	3.6	33	20	32	40.2	3.6	31.4	1	0.960	0.000	R	32	31.4	283.916	285.347	286.307	286.309	0
2	22110302	66	High	1.5	Vague	2	33	26	14	40.2	61.2	15.8	33	14	26	40.2	15.8	61.2	2	0.641	0.000	R	26	61.2	286.812	288.265	288.907	288.909	0
2	22110302	67	High	1.5	Precise	1	28	33	25	20.9	40.2	4.7	28	25	33	20.9	4.7	40.2	1	0.883	0.000	L	28	20.9	289.412	290.672	291.555	291.557	0
2	22110302	68	High	1.5	Vague	2	32	26	2	31.4	61.2	4.2	2	26	32	4.2	61.2	31.4	1	0.627	0.000	R	32	31.4	292.060	293.752	294.379	294.381	0
2	22110302	69	High	1.5	Precise	1	32	26	36	31.4	61.2	11.2	36	32	26	11.2	31.4	61.2	2	0.521	0.001	R	26	61.2	294.884	296.259	296.779	296.781	0
2	22110302	70	High	1.5	Vague	2	28	26	6	20.9	61.2	3.0	28	6	26	20.9	3.0	61.2	2	0.554	0.000	R	26	61.2	297.283	298.601	299.155	299.157	0
2	22110302	71	High	1.5	Precise	1	28	26	25	20.9	61.2	4.7	25	28	26	4.7	20.9	61.2	2	0.708	0.001	R	26	61.2	299.660	300.863	301.571	301.574	0
2	22110302	72	High	1.5	Precise	1	33	34	24	40.2	47.0	2.6	24	33	34	2.6	40.2	47.0	NaN	NaN	NaN	NaN	NaN	NaN	302.077	303.724	NaN	305.214	1
2	22110302	73	High	1.5	Vague	2	28	32	5	20.9	31.4	6.1	5	28	32	6.1	20.9	31.4	NaN	NaN	NaN	NaN	NaN	NaN	307.216	308.191	NaN	309.678	1
2	22110302	74	High	1.5	Vague	2	33	35	2	40.2	49.8	4.2	35	33	2	49.8	40.2	4.2	3	0.595	0.000	R	2	4.2	311.680	313.809	314.403	314.406	0
2	22110302	75	High	1.5	Precise	1	32	35	23	31.4	49.8	3.0	32	23	35	31.4	3.0	49.8	2	1.210	0.000	R	35	49.8	314.908	317.153	318.363	318.365	0
2	22110302	76	High	1.5	Precise	1	33	26	20	40.2	61.2	3.6	26	20	33	61.2	3.6	40.2	1	0.996	0.001	R	33	40.2	318.868	320.519	321.515	321.518	0
2	22110302	77	High	1.5	Precise	1	33	26	23	40.2	61.2	3.0	33	26	23	40.2	61.2	3.0	3	0.275	0.001	R	23	3.0	322.020	324.584	324.859	324.862	0
2	22110302	78	High	1.5	Vague	2	32	33	9	31.4	40.2	20.0	9	33	32	20.0	40.2	31.4	1	0.215	0.000	R	32	31.4	325.364	326.196	326.411	326.413	0
2	22110302	79	High	1.5	Precise	1	28	32	24	20.9	31.4	2.6	24	28	32	2.6	20.9	31.4	2	0.223	0.000	R	32	31.4	326.916	329.612	329.835	329.837	0
2	22110302	80	High	1.5	Precise	1	32	35	25	31.4	49.8	4.7	35	32	25	49.8	31.4	4.7	3	0.853	0.000	R	25	4.7	330.341	332.102	332.955	332.957	0
2	22110302	81	High	1.5	Precise	1	33	35	36	40.2	49.8	11.2	33	35	36	40.2	49.8	11.2	3	1.314	0.000	R	36	11.2	333.460	334.817	336.131	336.133	0
2	22110302	82	High	1.5	Precise	1	28	33	24	20.9	40.2	2.6	33	28	24	40.2	20.9	2.6	3	0.651	0.000	R	24	2.6	336.636	339.016	339.667	339.669	0
2	22110302	83	High	1.5	Vague	2	28	34	5	20.9	47.0	6.1	28	5	34	20.9	6.1	47.0	2	0.305	0.000	R	34	47.0	340.172	341.002	341.307	341.309	0
2	22110302	84	High	1.5	Precise	1	34	35	24	47.0	49.8	2.6	34	35	24	47.0	49.8	2.6	3	0.000	1.704	R	24	2.6	341.812	343.011	343.011	343.023	0
2	22110302	85	High	1.5	Precise	1	28	32	25	20.9	31.4	4.7	28	25	32	20.9	4.7	31.4	2	0.209	0.001	R	32	31.4	343.526	344.330	344.539	344.541	0
2	22110302	86	High	1.5	Vague	2	33	26	3	40.2	61.2	7.3	3	26	33	7.3	61.2	40.2	1	1.282	0.000	R	33	40.2	345.044	346.362	347.643	347.645	0
2	22110302	87	High	1.5	Precise	1	33	26	27	40.2	61.2	7.3	27	26	33	7.3	61.2	40.2	1	0.814	0.001	R	33	40.2	348.148	349.685	350.499	350.501	0
2	22110302	88	High	1.5	Precise	1	32	26	20	31.4	61.2	3.6	20	32	26	3.6	31.4	61.2	NaN	NaN	NaN	NaN	NaN	NaN	351.004	352.436	NaN	353.922	1
2	22110302	89	High	1.5	Vague	2	28	34	2	20.9	47.0	4.2	34	2	28	47.0	4.2	20.9	2	0.980	0.000	L	34	47.0	355.925	356.559	357.539	357.541	0
2	22110302	90	High	1.5	Precise	1	33	34	23	40.2	47.0	3.0	34	23	33	47.0	3.0	40.2	3	0.798	0.000	D	23	3.0	358.044	359.357	360.155	360.158	0
2	22110302	91	High	1.5	Precise	1	34	26	36	47.0	61.2	11.2	34	36	26	47.0	11.2	61.2	2	0.661	0.000	R	26	61.2	360.660	362.446	363.107	363.109	0
2	22110302	92	High	1.5	Precise	1	28	26	23	20.9	61.2	3.0	23	26	28	3.0	61.2	20.9	NaN	NaN	NaN	NaN	NaN	NaN	363.612	365.289	NaN	366.776	1
2	22110302	93	High	1.5	Precise	1	28	32	36	20.9	31.4	11.2	32	36	28	31.4	11.2	20.9	1	0.899	0.000	R	28	20.9	368.778	370.600	371.499	371.501	0
2	22110302	94	High	1.5	Vague	2	28	26	3	20.9	61.2	7.3	3	28	26	7.3	20.9	61.2	NaN	NaN	NaN	NaN	NaN	NaN	372.004	373.158	NaN	374.645	1
2	22110302	95	High	1.5	Precise	1	32	33	24	31.4	40.2	2.6	24	32	33	2.6	31.4	40.2	2	0.516	0.000	R	33	40.2	376.647	379.087	379.603	379.605	0
2	22110302	96	High	1.5	Vague	2	33	26	2	40.2	61.2	4.2	26	33	2	61.2	40.2	4.2	NaN	NaN	NaN	NaN	NaN	NaN	380.108	380.895	NaN	382.381	1
2	22110302	97	High	1.5	Precise	1	33	26	24	40.2	61.2	2.6	26	33	24	61.2	40.2	2.6	3	0.627	0.000	R	24	2.6	384.384	386.768	387.395	387.398	0
2	22110302	98	High	1.5	Vague	2	28	26	5	20.9	61.2	6.1	5	26	28	6.1	61.2	20.9	1	1.063	0.000	R	28	20.9	387.900	390.492	391.555	391.558	0
2	22110302	99	High	1.5	Vague	2	28	35	5	20.9	49.8	6.1	35	28	5	49.8	20.9	6.1	3	1.224	0.001	R	5	6.1	392.060	394.035	395.259	395.262	0
2	22110302	100	High	1.5	Precise	1	28	34	36	20.9	47.0	11.2	34	36	28	47.0	11.2	20.9	1	1.263	0.000	R	28	20.9	395.764	397.331	398.595	398.597	0
2	22110302	101	High	1.5	Vague	2	28	32	6	20.9	31.4	3.0	6	28	32	3.0	20.9	31.4	2	0.697	0.000	R	32	31.4	399.100	401.610	402.307	402.309	0
2	22110302	102	High	1.5	Vague	2	28	32	9	20.9	31.4	20.0	9	28	32	20.0	20.9	31.4	2	0.999	0.000	R	32	31.4	402.812	404.316	405.315	405.318	0
2	22110302	103	High	1.5	Vague	2	28	34	6	20.9	47.0	3.0	34	28	6	47.0	20.9	3.0	3	1.086	0.000	R	6	3.0	405.820	407.053	408.139	408.141	0
2	22110302	104	High	1.5	Vague	2	34	26	14	47.0	61.2	15.8	26	14	34	61.2	15.8	47.0	1	0.029	0.000	R	34	47.0	408.644	410.766	410.795	410.797	0
2	22110302	105	High	1.5	Precise	1	28	35	27	20.9	49.8	7.3	28	35	27	20.9	49.8	7.3	3	0.128	0.001	R	27	7.3	411.300	413.516	413.643	413.645	0
2	22110302	106	High	1.5	Precise	1	32	34	23	31.4	47.0	3.0	23	34	32	3.0	47.0	31.4	1	0.372	0.001	R	32	31.4	414.148	416.479	416.851	416.853	0
2	22110302	107	High	1.5	Precise	1	28	33	27	20.9	40.2	7.3	27	33	28	7.3	40.2	20.9	1	1.207	0.000	R	28	20.9	417.356	418.260	419.467	419.469	0
2	22110302	108	High	1.5	Precise	1	28	33	23	20.9	40.2	3.0	28	23	33	20.9	3.0	40.2	2	0.838	0.000	R	33	40.2	419.972	421.908	422.747	422.749	0
2	22110302	109	High	1.5	Vague	2	35	26	2	49.8	61.2	4.2	26	2	35	61.2	4.2	49.8	1	0.667	0.000	R	35	49.8	423.252	423.904	424.571	424.574	0
2	22110302	110	High	1.5	Vague	2	28	35	6	20.9	49.8	3.0	28	6	35	20.9	3.0	49.8	2	0.395	0.000	R	35	49.8	425.077	427.272	427.667	427.669	0
2	22110302	111	High	1.5	Precise	1	32	34	20	31.4	47.0	3.6	32	34	20	31.4	47.0	3.6	3	0.822	0.000	R	20	3.6	428.172	429.646	430.467	430.469	0
2	22110302	112	High	1.5	Vague	2	33	26	9	40.2	61.2	20.0	9	26	33	20.0	61.2	40.2	NaN	NaN	NaN	NaN	NaN	NaN	430.972	431.820	NaN	433.307	1
2	22110302	113	High	1.5	Precise	1	32	26	25	31.4	61.2	4.7	25	26	32	4.7	61.2	31.4	1	0.885	0.001	R	32	31.4	435.309	436.294	437.179	437.181	0
2	22110302	114	High	1.5	Precise	1	28	34	23	20.9	47.0	3.0	23	28	34	3.0	20.9	47.0	2	0.988	0.000	R	34	47.0	437.684	439.991	440.979	440.981	0
2	22110302	115	High	1.5	Precise	1	34	26	25	47.0	61.2	4.7	25	26	34	4.7	61.2	47.0	1	0.816	0.000	R	34	47.0	441.484	443.859	444.675	444.677	0
2	22110302	116	High	1.5	Vague	2	28	33	2	20.9	40.2	4.2	33	2	28	40.2	4.2	20.9	1	1.088	0.000	R	28	20.9	445.180	446.308	447.395	447.398	0
2	22110302	117	High	1.5	Vague	2	34	26	2	47.0	61.2	4.2	34	2	26	47.0	4.2	61.2	2	0.924	0.000	R	26	61.2	447.900	449.463	450.387	450.389	0
2	22110302	118	High	1.5	Vague	2	35	26	3	49.8	61.2	7.3	3	35	26	7.3	49.8	61.2	2	0.549	0.001	R	26	61.2	450.892	452.150	452.699	452.702	0
2	22110302	119	High	1.5	Vague	2	34	35	2	47.0	49.8	4.2	35	2	34	49.8	4.2	47.0	1	1.482	0.000	R	34	47.0	453.204	455.513	456.995	456.998	0
2	22110302	120	High	1.5	Precise	1	28	35	36	20.9	49.8	11.2	28	35	36	20.9	49.8	11.2	2	1.180	0.000	D	35	49.8	457.500	460.399	461.579	461.581	0
2	22110302	121	High	1.5	Vague	2	28	26	9	20.9	61.2	20.0	9	26	28	20.0	61.2	20.9	1	1.141	0.000	R	28	20.9	483.158	484.910	486.051	486.054	0
2	22110302	122	High	1.5	Precise	1	32	35	36	31.4	49.8	11.2	35	36	32	49.8	11.2	31.4	2	0.482	0.000	L	35	49.8	486.556	488.609	489.091	489.094	0
2	22110302	123	High	1.5	Vague	2	32	35	5	31.4	49.8	6.1	35	5	32	49.8	6.1	31.4	3	1.007	0.000	D	5	6.1	489.596	491.260	492.267	492.269	0
2	22110302	124	High	1.5	Precise	1	28	32	20	20.9	31.4	3.6	32	28	20	31.4	20.9	3.6	3	1.245	0.000	R	20	3.6	492.772	494.142	495.387	495.390	0
2	22110302	125	High	1.5	Precise	1	28	34	25	20.9	47.0	4.7	25	28	34	4.7	20.9	47.0	3	1.369	0.000	L	25	4.7	495.893	496.778	498.147	498.149	0
2	22110302	126	High	1.5	Precise	1	35	26	20	49.8	61.2	3.6	20	35	26	3.6	49.8	61.2	2	1.017	0.000	R	26	61.2	498.652	500.890	501.907	501.909	0
2	22110302	127	High	1.5	Precise	1	28	33	20	20.9	40.2	3.6	33	28	20	40.2	20.9	3.6	2	0.354	0.000	L	33	40.2	502.412	504.841	505.195	505.197	0
2	22110302	128	High	1.5	Vague	2	28	35	2	20.9	49.8	4.2	28	2	35	20.9	4.2	49.8	2	0.840	0.000	R	35	49.8	505.700	508.155	508.995	508.998	0
2	22110302	129	High	1.5	Precise	1	33	35	20	40.2	49.8	3.6	20	35	33	3.6	49.8	40.2	2	1.106	0.001	D	35	49.8	509.500	510.289	511.395	511.397	0
2	22110302	130	High	1.5	Vague	2	34	35	5	47.0	49.8	6.1	35	34	5	49.8	47.0	6.1	NaN	NaN	NaN	NaN	NaN	NaN	511.900	512.456	NaN	513.946	1
2	22110302	131	High	1.5	Vague	2	33	35	9	40.2	49.8	20.0	9	35	33	20.0	49.8	40.2	3	0.000	3.675	L	9	20.0	515.949	517.615	517.615	517.624	0
2	22110302	132	High	1.5	Precise	1	32	33	23	31.4	40.2	3.0	32	23	33	31.4	3.0	40.2	NaN	NaN	NaN	NaN	NaN	NaN	518.126	519.104	NaN	520.592	1
2	22110302	133	High	1.5	Precise	1	33	34	36	40.2	47.0	11.2	33	34	36	40.2	47.0	11.2	1	0.622	0.000	L	33	40.2	522.594	524.629	525.251	525.254	0
2	22110302	134	High	1.5	Vague	2	32	34	5	31.4	47.0	6.1	34	32	5	47.0	31.4	6.1	1	0.774	0.000	D	32	31.4	525.756	528.141	528.915	528.918	0
2	22110302	135	High	1.5	Vague	2	35	26	6	49.8	61.2	3.0	26	6	35	61.2	3.0	49.8	1	0.770	0.000	R	35	49.8	529.420	531.345	532.115	532.118	0
2	22110302	136	High	1.5	Precise	1	33	34	20	40.2	47.0	3.6	34	20	33	47.0	3.6	40.2	2	0.854	0.001	L	34	47.0	532.620	533.965	534.819	534.821	0
2	22110302	137	High	1.5	Precise	1	34	35	25	47.0	49.8	4.7	34	35	25	47.0	49.8	4.7	3	1.000	0.000	R	25	4.7	535.325	536.579	537.579	537.582	0
2	22110302	138	High	1.5	Precise	1	28	32	27	20.9	31.4	7.3	28	32	27	20.9	31.4	7.3	1	0.887	0.001	L	28	20.9	538.084	539.220	540.107	540.110	0
2	22110302	139	High	1.5	Vague	2	32	35	2	31.4	49.8	4.2	35	32	2	49.8	31.4	4.2	NaN	NaN	NaN	NaN	NaN	NaN	540.612	541.742	NaN	543.229	1
2	22110302	140	High	1.5	Precise	1	28	26	20	20.9	61.2	3.6	20	28	26	3.6	20.9	61.2	1	1.232	0.000	D	28	20.9	545.231	547.187	548.419	548.421	0
2	22110302	141	High	1.5	Vague	2	28	33	5	20.9	40.2	6.1	5	28	33	6.1	20.9	40.2	3	0.849	0.000	L	5	6.1	548.925	549.851	550.699	550.701	0
2	22110302	142	High	1.5	Precise	1	32	35	20	31.4	49.8	3.6	32	20	35	31.4	3.6	49.8	2	0.698	0.001	R	35	49.8	551.204	552.194	552.891	552.894	0
2	22110302	143	High	1.5	Vague	2	32	34	6	31.4	47.0	3.0	34	6	32	47.0	3.0	31.4	3	0.867	0.000	D	6	3.0	553.396	555.945	556.811	556.813	0
2	22110302	144	High	1.5	Precise	1	28	35	24	20.9	49.8	2.6	24	35	28	2.6	49.8	20.9	2	0.565	0.000	D	35	49.8	557.316	560.174	560.739	560.741	0
2	22110302	145	High	1.5	Precise	1	28	26	27	20.9	61.2	7.3	28	27	26	20.9	7.3	61.2	3	1.201	0.000	D	27	7.3	561.244	563.458	564.659	564.661	0
2	22110302	146	High	1.5	Vague	2	33	35	14	40.2	49.8	15.8	14	35	33	15.8	49.8	40.2	2	1.218	0.000	D	35	49.8	565.164	568.033	569.251	569.253	0
2	22110302	147	High	1.5	Vague	2	33	26	6	40.2	61.2	3.0	26	33	6	61.2	40.2	3.0	1	1.078	0.000	D	33	40.2	569.756	572.381	573.459	573.461	0
2	22110302	148	High	1.5	Vague	2	33	35	3	40.2	49.8	7.3	33	35	3	40.2	49.8	7.3	2	1.406	0.000	D	35	49.8	573.964	576.389	577.795	577.797	0
2	22110302	149	High	1.5	Vague	2	32	34	14	31.4	47.0	15.8	34	32	14	47.0	31.4	15.8	1	1.164	0.000	D	32	31.4	578.300	579.432	580.595	580.597	0
2	22110302	150	High	1.5	Vague	2	32	35	3	31.4	49.8	7.3	3	35	32	7.3	49.8	31.4	2	0.863	0.000	D	35	49.8	581.100	581.861	582.723	582.726	0
2	22110302	151	High	1.5	Precise	1	33	35	27	40.2	49.8	7.3	27	33	35	7.3	40.2	49.8	1	0.989	0.000	D	33	40.2	583.228	585.750	586.739	586.742	0
2	22110302	152	High	1.5	Vague	2	32	26	14	31.4	61.2	15.8	32	14	26	31.4	15.8	61.2	3	0.989	0.000	D	14	15.8	587.244	589.967	590.955	590.958	0
2	22110302	153	High	1.5	Vague	2	28	26	2	20.9	61.2	4.2	2	26	28	4.2	61.2	20.9	2	1.111	0.001	D	26	61.2	591.461	593.053	594.163	594.166	0
2	22110302	154	High	1.5	Vague	2	32	33	3	31.4	40.2	7.3	3	32	33	7.3	31.4	40.2	1	1.094	0.000	D	32	31.4	594.668	597.133	598.227	598.229	0
2	22110302	155	High	1.5	Vague	2	28	26	14	20.9	61.2	15.8	26	14	28	61.2	15.8	20.9	3	0.912	0.000	D	14	15.8	598.732	600.995	601.907	601.910	0
2	22110302	156	High	1.5	Precise	1	28	33	36	20.9	40.2	11.2	33	28	36	40.2	20.9	11.2	1	0.938	0.000	D	28	20.9	602.412	604.714	605.651	605.653	0
2	22110302	157	High	1.5	Vague	2	35	26	9	49.8	61.2	20.0	35	26	9	49.8	61.2	20.0	NaN	NaN	NaN	NaN	NaN	NaN	606.156	607.382	NaN	608.868	1
2	22110302	158	High	1.5	Vague	2	28	33	3	20.9	40.2	7.3	33	28	3	40.2	20.9	7.3	NaN	NaN	NaN	NaN	NaN	NaN	610.870	613.059	NaN	614.546	1
2	22110302	159	High	1.5	Vague	2	33	34	3	40.2	47.0	7.3	3	33	34	7.3	40.2	47.0	NaN	NaN	NaN	NaN	NaN	NaN	616.548	617.972	NaN	619.458	1
2	22110302	160	High	1.5	Precise	1	28	26	36	20.9	61.2	11.2	26	36	28	61.2	11.2	20.9	3	0.752	0.001	D	36	11.2	621.461	624.148	624.900	624.902	0
2	22110302	161	High	1.5	Vague	2	35	26	5	49.8	61.2	6.1	5	35	26	6.1	49.8	61.2	1	0.803	0.001	D	35	49.8	625.404	627.896	628.699	628.702	0
2	22110302	162	High	1.5	Precise	1	34	35	23	47.0	49.8	3.0	23	34	35	3.0	47.0	49.8	1	1.039	0.000	D	34	47.0	629.204	630.420	631.459	631.462	0
2	22110302	163	High	1.5	Precise	1	34	26	20	47.0	61.2	3.6	26	34	20	61.2	47.0	3.6	1	0.751	0.000	D	34	47.0	631.964	634.916	635.667	635.669	0
2	22110302	164	High	1.5	Precise	1	32	26	23	31.4	61.2	3.0	26	32	23	61.2	31.4	3.0	NaN	NaN	NaN	NaN	NaN	NaN	636.172	636.885	NaN	638.371	1
2	22110302	165	High	1.5	Precise	1	32	35	27	31.4	49.8	7.3	35	32	27	49.8	31.4	7.3	1	1.180	0.000	D	32	31.4	640.375	642.416	643.595	643.597	0
2	22110302	166	High	1.5	Vague	2	28	33	6	20.9	40.2	3.0	6	33	28	3.0	40.2	20.9	2	0.984	0.000	D	33	40.2	644.100	645.764	646.747	646.749	0
2	22110302	167	High	1.5	Precise	1	28	34	24	20.9	47.0	2.6	24	28	34	2.6	20.9	47.0	1	1.205	0.000	D	28	20.9	647.252	648.198	649.403	649.406	0
2	22110302	168	High	1.5	Precise	1	34	35	27	47.0	49.8	7.3	27	35	34	7.3	49.8	47.0	2	0.867	0.001	D	35	49.8	649.908	652.072	652.939	652.942	0
2	22110302	169	High	1.5	Vague	2	33	34	5	40.2	47.0	6.1	5	33	34	6.1	40.2	47.0	1	0.890	0.001	D	33	40.2	653.444	654.810	655.699	655.702	0
2	22110302	170	High	1.5	Vague	2	32	33	6	31.4	40.2	3.0	32	33	6	31.4	40.2	3.0	2	0.917	0.000	D	33	40.2	656.204	658.382	659.299	659.302	0
2	22110302	171	High	1.5	Precise	1	32	26	24	31.4	61.2	2.6	26	32	24	61.2	31.4	2.6	1	0.696	0.000	D	32	31.4	659.804	661.587	662.283	662.285	0
2	22110302	172	High	1.5	Vague	2	32	34	2	31.4	47.0	4.2	34	2	32	47.0	4.2	31.4	3	0.574	0.000	D	2	4.2	662.788	664.381	664.955	664.958	0
2	22110302	173	High	1.5	Precise	1	33	26	36	40.2	61.2	11.2	33	36	26	40.2	11.2	61.2	NaN	NaN	NaN	NaN	NaN	NaN	665.460	667.571	NaN	669.059	1
2	22110302	174	High	1.5	Vague	2	34	35	3	47.0	49.8	7.3	34	3	35	47.0	7.3	49.8	3	0.818	0.000	D	3	7.3	671.061	673.993	674.811	674.814	0
2	22110302	175	High	1.5	Vague	2	34	26	9	47.0	61.2	20.0	26	34	9	61.2	47.0	20.0	1	0.577	0.000	D	34	47.0	675.316	677.234	677.811	677.814	0
2	22110302	176	High	1.5	Vague	2	32	33	14	31.4	40.2	15.8	14	33	32	15.8	40.2	31.4	2	0.190	0.001	D	33	40.2	678.316	680.421	680.611	680.614	0
2	22110302	177	High	1.5	Vague	2	33	34	14	40.2	47.0	15.8	34	33	14	47.0	40.2	15.8	NaN	NaN	NaN	NaN	NaN	NaN	681.116	683.438	NaN	684.925	1
2	22110302	178	High	1.5	Precise	1	35	26	24	49.8	61.2	2.6	26	35	24	61.2	49.8	2.6	NaN	NaN	NaN	NaN	NaN	NaN	686.928	688.086	NaN	689.573	1
2	22110302	179	High	1.5	Precise	1	33	34	27	40.2	47.0	7.3	27	34	33	7.3	47.0	40.2	1	1.037	0.000	R	33	40.2	691.575	693.830	694.867	694.869	0
2	22110302	180	High	1.5	Vague	2	32	35	9	31.4	49.8	20.0	32	9	35	31.4	20.0	49.8	2	0.834	0.000	R	35	49.8	695.372	696.386	697.219	697.222	0
2	22110302	181	Low	10.0	Vague	2	34	35	1	47.0	49.8	3.4	34	1	35	47.0	3.4	49.8	2	0.983	0.000	R	35	49.8	724.077	727.021	728.003	728.006	0
2	22110302	182	Low	10.0	Vague	2	28	33	4	20.9	40.2	6.3	33	4	28	40.2	6.3	20.9	2	1.574	0.000	L	33	40.2	728.509	730.357	731.931	731.934	0
2	22110302	183	Low	10.0	Vague	2	34	26	7	47.0	61.2	5.2	7	26	34	5.2	61.2	47.0	2	1.027	0.001	D	26	61.2	732.437	735.392	736.419	736.422	0
2	22110302	184	Low	10.0	Vague	2	34	35	8	47.0	49.8	20.7	34	35	8	47.0	49.8	20.7	3	0.481	0.000	R	8	20.7	736.925	739.442	739.923	739.926	0
2	22110302	185	Low	10.0	Precise	1	32	33	30	31.4	40.2	6.8	30	32	33	6.8	31.4	40.2	3	0.949	0.000	L	30	6.8	740.428	741.526	742.475	742.478	0
2	22110302	186	Low	10.0	Vague	2	28	33	8	20.9	40.2	20.7	33	8	28	40.2	20.7	20.9	1	0.706	0.001	R	28	20.9	742.980	744.505	745.211	745.214	0
2	22110302	187	Low	10.0	Precise	1	28	35	21	20.9	49.8	3.0	35	28	21	49.8	20.9	3.0	3	1.248	0.000	R	21	3.0	745.716	748.483	749.731	749.734	0
2	22110302	188	Low	10.0	Precise	1	28	34	21	20.9	47.0	3.0	28	34	21	20.9	47.0	3.0	1	1.180	0.001	L	28	20.9	750.237	750.855	752.035	752.038	0
2	22110302	189	Low	10.0	Precise	1	28	33	21	20.9	40.2	3.0	33	21	28	40.2	3.0	20.9	1	0.000	1.841	R	28	20.9	752.540	753.876	753.876	753.890	0
2	22110302	190	Low	10.0	Precise	1	28	26	31	20.9	61.2	11.1	26	28	31	61.2	20.9	11.1	3	1.024	0.001	R	31	11.1	754.393	756.755	757.779	757.782	0
2	22110302	191	Low	10.0	Vague	2	32	33	4	31.4	40.2	6.3	4	33	32	6.3	40.2	31.4	1	1.457	0.000	R	32	31.4	758.284	760.218	761.675	761.677	0
2	22110302	192	Low	10.0	Precise	1	33	26	22	40.2	61.2	4.7	22	33	26	4.7	40.2	61.2	1	0.873	0.000	D	33	40.2	762.180	763.706	764.579	764.581	0
2	22110302	193	Low	10.0	Precise	1	33	34	19	40.2	47.0	3.5	33	34	19	40.2	47.0	3.5	3	0.814	0.001	R	19	3.5	765.084	766.446	767.259	767.262	0
2	22110302	194	Low	10.0	Vague	2	33	34	12	40.2	47.0	18.7	34	12	33	47.0	18.7	40.2	1	1.103	0.000	R	33	40.2	767.764	770.180	771.283	771.286	0
2	22110302	195	Low	10.0	Vague	2	34	35	11	47.0	49.8	7.9	35	11	34	49.8	7.9	47.0	1	1.462	0.000	R	34	47.0	771.788	773.366	774.827	774.829	0
2	22110302	196	Low	10.0	Precise	1	32	35	21	31.4	49.8	3.0	21	32	35	3.0	31.4	49.8	2	1.052	0.000	R	35	49.8	775.332	777.983	779.035	779.037	0
2	22110302	197	Low	10.0	Vague	2	28	26	4	20.9	61.2	6.3	4	28	26	6.3	20.9	61.2	2	1.148	0.000	R	26	61.2	779.540	781.111	782.259	782.262	0
2	22110302	198	Low	10.0	Precise	1	32	34	30	31.4	47.0	6.8	32	34	30	31.4	47.0	6.8	3	0.674	0.000	R	30	6.8	782.764	785.497	786.171	786.174	0
2	22110302	199	Low	10.0	Precise	1	32	26	21	31.4	61.2	3.0	32	26	21	31.4	61.2	3.0	3	0.823	0.000	R	21	3.0	786.676	788.820	789.643	789.646	0
2	22110302	200	Low	10.0	Vague	2	32	35	8	31.4	49.8	20.7	35	8	32	49.8	20.7	31.4	1	1.221	0.000	R	32	31.4	790.148	791.862	793.083	793.086	0
2	22110302	201	Low	10.0	Vague	2	32	26	12	31.4	61.2	18.7	12	26	32	18.7	61.2	31.4	1	0.923	0.001	R	32	31.4	793.588	795.384	796.307	796.310	0
2	22110302	202	Low	10.0	Vague	2	28	34	12	20.9	47.0	18.7	12	34	28	18.7	47.0	20.9	1	1.554	0.001	R	28	20.9	796.812	797.450	799.003	799.006	0
2	22110302	203	Low	10.0	Vague	2	32	35	7	31.4	49.8	5.2	32	7	35	31.4	5.2	49.8	2	0.594	0.000	R	35	49.8	799.508	802.361	802.955	802.958	0
2	22110302	204	Low	10.0	Vague	2	28	26	7	20.9	61.2	5.2	28	26	7	20.9	61.2	5.2	3	1.208	0.001	R	7	5.2	803.461	804.947	806.155	806.158	0
2	22110302	205	Low	10.0	Precise	1	33	35	22	40.2	49.8	4.7	22	35	33	4.7	49.8	40.2	1	1.031	0.000	R	33	40.2	806.661	809.412	810.443	810.446	0
2	22110302	206	Low	10.0	Precise	1	33	34	21	40.2	47.0	3.0	34	33	21	47.0	40.2	3.0	2	1.600	0.000	L	34	47.0	810.948	811.483	813.083	813.086	0
2	22110302	207	Low	10.0	Vague	2	33	26	8	40.2	61.2	20.7	8	26	33	20.7	61.2	40.2	1	1.267	0.000	R	33	40.2	813.588	814.673	815.940	815.942	0
2	22110302	208	Low	10.0	Vague	2	34	35	12	47.0	49.8	18.7	12	34	35	18.7	47.0	49.8	2	1.364	0.000	R	35	49.8	816.444	818.856	820.219	820.222	0
2	22110302	209	Low	10.0	Precise	1	32	35	22	31.4	49.8	4.7	22	32	35	4.7	31.4	49.8	2	0.625	0.000	R	35	49.8	820.725	823.194	823.819	823.822	0
2	22110302	210	Low	10.0	Vague	2	28	26	12	20.9	61.2	18.7	26	28	12	61.2	20.9	18.7	3	1.137	0.000	R	12	18.7	824.325	826.538	827.675	827.678	0
2	22110302	211	Low	10.0	Precise	1	34	26	22	47.0	61.2	4.7	34	26	22	47.0	61.2	4.7	3	1.130	0.000	R	22	4.7	828.180	830.114	831.243	831.246	0
2	22110302	212	Low	10.0	Vague	2	28	34	4	20.9	47.0	6.3	4	28	34	6.3	20.9	47.0	2	0.032	0.000	R	34	47.0	831.748	832.844	832.875	832.878	0
2	22110302	213	Low	10.0	Vague	2	33	26	11	40.2	61.2	7.9	26	33	11	61.2	40.2	7.9	3	1.393	0.000	R	11	7.9	833.380	834.755	836.147	836.150	0
2	22110302	214	Low	10.0	Vague	2	28	34	7	20.9	47.0	5.2	28	7	34	20.9	5.2	47.0	2	0.340	0.000	R	34	47.0	836.652	837.431	837.771	837.773	0
2	22110302	215	Low	10.0	Precise	1	28	32	30	20.9	31.4	6.8	28	32	30	20.9	31.4	6.8	3	0.441	0.001	R	30	6.8	838.275	840.387	840.827	840.830	0
2	22110302	216	Low	10.0	Precise	1	34	35	19	47.0	49.8	3.5	34	35	19	47.0	49.8	3.5	3	0.717	0.000	R	19	3.5	841.332	842.046	842.763	842.766	0
2	22110302	217	Low	10.0	Precise	1	28	32	29	20.9	31.4	13.6	32	28	29	31.4	20.9	13.6	3	1.111	0.000	R	29	13.6	843.268	846.132	847.243	847.246	0
2	22110302	218	Low	10.0	Vague	2	28	32	11	20.9	31.4	7.9	28	11	32	20.9	7.9	31.4	2	0.831	0.001	R	32	31.4	847.748	849.740	850.571	850.574	0
2	22110302	219	Low	10.0	Vague	2	28	34	8	20.9	47.0	20.7	8	28	34	20.7	20.9	47.0	2	1.034	0.000	R	34	47.0	851.077	853.305	854.339	854.342	0
2	22110302	220	Low	10.0	Precise	1	28	34	22	20.9	47.0	4.7	28	22	34	20.9	4.7	47.0	2	2.816	0.000	R	34	47.0	854.844	856.899	859.715	859.718	0
2	22110302	221	Low	10.0	Vague	2	33	35	11	40.2	49.8	7.9	11	35	33	7.9	49.8	40.2	3	1.723	0.000	L	11	7.9	860.220	860.856	862.579	862.582	0
2	22110302	222	Low	10.0	Vague	2	28	35	12	20.9	49.8	18.7	12	35	28	18.7	49.8	20.9	1	0.777	0.000	R	28	20.9	863.084	864.706	865.483	865.486	0
2	22110302	223	Low	10.0	Precise	1	28	35	22	20.9	49.8	4.7	22	28	35	4.7	20.9	49.8	1	0.911	0.000	D	28	20.9	865.988	866.852	867.763	867.766	0
2	22110302	224	Low	10.0	Vague	2	32	34	4	31.4	47.0	6.3	34	32	4	47.0	31.4	6.3	3	0.963	0.001	R	4	6.3	868.268	870.040	871.004	871.006	0
2	22110302	225	Low	10.0	Precise	1	33	35	31	40.2	49.8	11.1	35	31	33	49.8	11.1	40.2	3	1.168	0.001	D	31	11.1	871.509	873.652	874.820	874.822	0
2	22110302	226	Low	10.0	Precise	1	32	33	31	31.4	40.2	11.1	32	33	31	31.4	40.2	11.1	1	1.497	0.001	L	32	31.4	875.325	876.858	878.355	878.358	0
2	22110302	227	Low	10.0	Precise	1	28	33	30	20.9	40.2	6.8	30	33	28	6.8	40.2	20.9	1	1.407	0.000	R	28	20.9	878.861	880.044	881.451	881.454	0
2	22110302	228	Low	10.0	Precise	1	32	26	22	31.4	61.2	4.7	32	26	22	31.4	61.2	4.7	1	1.010	0.001	L	32	31.4	881.956	883.345	884.355	884.358	0
2	22110302	229	Low	10.0	Precise	1	32	34	22	31.4	47.0	4.7	34	32	22	47.0	31.4	4.7	3	0.901	0.000	R	22	4.7	884.861	887.670	888.571	888.574	0
2	22110302	230	Low	10.0	Vague	2	34	26	11	47.0	61.2	7.9	11	26	34	7.9	61.2	47.0	3	0.006	0.000	L	11	7.9	889.076	890.861	890.867	890.874	0
2	22110302	231	Low	10.0	Precise	1	28	34	19	20.9	47.0	3.5	28	19	34	20.9	3.5	47.0	3	0.246	0.000	D	19	3.5	891.377	893.093	893.339	893.342	0
2	22110302	232	Low	10.0	Precise	1	32	34	21	31.4	47.0	3.0	21	32	34	3.0	31.4	47.0	1	0.906	0.000	D	32	31.4	893.844	896.602	897.508	897.510	0
2	22110302	233	Low	10.0	Vague	2	33	34	1	40.2	47.0	3.4	34	33	1	47.0	40.2	3.4	2	0.182	0.000	L	34	47.0	898.012	898.557	898.739	898.742	0
2	22110302	234	Low	10.0	Precise	1	28	34	30	20.9	47.0	6.8	28	30	34	20.9	6.8	47.0	3	0.444	0.001	D	30	6.8	899.244	900.815	901.260	901.262	0
2	22110302	235	Low	10.0	Precise	1	34	35	31	47.0	49.8	11.1	31	34	35	11.1	47.0	49.8	2	1.644	0.000	R	35	49.8	901.764	903.439	905.083	905.086	0
2	22110302	236	Low	10.0	Precise	1	34	35	22	47.0	49.8	4.7	35	22	34	49.8	4.7	47.0	2	0.875	0.001	L	35	49.8	905.588	906.240	907.116	907.118	0
2	22110302	237	Low	10.0	Vague	2	28	35	7	20.9	49.8	5.2	28	35	7	20.9	49.8	5.2	3	0.903	0.000	R	7	5.2	907.620	909.413	910.315	910.318	0
2	22110302	238	Low	10.0	Precise	1	34	35	21	47.0	49.8	3.0	21	34	35	3.0	47.0	49.8	1	0.807	0.000	D	34	47.0	910.820	913.404	914.211	914.213	0
2	22110302	239	Low	10.0	Vague	2	32	33	11	31.4	40.2	7.9	11	33	32	7.9	40.2	31.4	3	1.010	0.000	L	11	7.9	914.716	915.721	916.731	916.734	0
2	22110302	240	Low	10.0	Precise	1	32	35	30	31.4	49.8	6.8	32	30	35	31.4	6.8	49.8	2	0.868	0.001	R	35	49.8	917.236	917.968	918.836	918.838	0
2	22110302	241	Low	10.0	Precise	1	28	35	30	20.9	49.8	6.8	28	35	30	20.9	49.8	6.8	1	2.525	0.000	L	28	20.9	923.614	925.526	928.051	928.054	0
2	22110302	242	Low	10.0	Vague	2	34	35	7	47.0	49.8	5.2	7	34	35	5.2	47.0	49.8	3	1.418	0.000	L	7	5.2	928.556	930.625	932.043	932.046	0
2	22110302	243	Low	10.0	Vague	2	32	26	11	31.4	61.2	7.9	11	32	26	7.9	31.4	61.2	3	1.522	0.000	L	11	7.9	932.548	933.849	935.371	935.374	0
2	22110302	244	Low	10.0	Precise	1	35	26	22	49.8	61.2	4.7	26	22	35	61.2	4.7	49.8	1	0.234	0.000	R	35	49.8	935.876	936.498	936.732	936.734	0
2	22110302	245	Low	10.0	Vague	2	33	26	4	40.2	61.2	6.3	26	33	4	61.2	40.2	6.3	2	0.003	0.000	L	26	61.2	937.236	938.680	938.683	938.691	0
2	22110302	246	Low	10.0	Precise	1	33	34	30	40.2	47.0	6.8	34	33	30	47.0	40.2	6.8	3	0.608	0.000	R	30	6.8	939.193	940.531	941.139	941.142	0
2	22110302	247	Low	10.0	Precise	1	33	34	22	40.2	47.0	4.7	22	33	34	4.7	40.2	47.0	1	1.056	0.001	D	33	40.2	941.645	943.892	944.947	944.950	0
2	22110302	248	Low	10.0	Precise	1	32	34	31	31.4	47.0	11.1	34	32	31	47.0	31.4	11.1	3	0.997	0.001	R	31	11.1	945.452	946.094	947.092	947.094	0
2	22110302	249	Low	10.0	Precise	1	32	35	31	31.4	49.8	11.1	31	32	35	11.1	31.4	49.8	3	0.052	0.000	L	31	11.1	947.597	948.999	949.052	949.054	0
2	22110302	250	Low	10.0	Vague	2	32	34	8	31.4	47.0	20.7	32	34	8	31.4	47.0	20.7	2	0.393	0.001	D	34	47.0	949.556	950.819	951.212	951.214	0
2	22110302	251	Low	10.0	Precise	1	33	26	29	40.2	61.2	13.6	26	29	33	61.2	13.6	40.2	1	0.165	0.001	R	33	40.2	951.716	952.903	953.068	953.070	0
2	22110302	252	Low	10.0	Vague	2	28	26	11	20.9	61.2	7.9	26	11	28	61.2	7.9	20.9	3	1.137	0.001	D	11	7.9	953.573	955.162	956.300	956.302	0
2	22110302	253	Low	10.0	Precise	1	28	33	22	20.9	40.2	4.7	28	22	33	20.9	4.7	40.2	1	1.477	0.000	L	28	20.9	956.804	957.983	959.459	959.462	0
2	22110302	254	Low	10.0	Precise	1	34	35	30	47.0	49.8	6.8	34	30	35	47.0	6.8	49.8	2	1.369	0.001	R	35	49.8	959.964	961.315	962.684	962.686	0
2	22110302	255	Low	10.0	Precise	1	35	26	30	49.8	61.2	6.8	26	35	30	61.2	49.8	6.8	3	1.678	0.000	R	30	6.8	963.188	965.053	966.731	966.734	0
2	22110302	256	Low	10.0	Vague	2	33	35	1	40.2	49.8	3.4	35	33	1	49.8	40.2	3.4	1	0.123	0.001	D	33	40.2	967.236	968.273	968.396	968.398	0
2	22110302	257	Low	10.0	Precise	1	33	26	31	40.2	61.2	11.1	33	31	26	40.2	11.1	61.2	2	0.161	0.001	R	26	61.2	968.900	971.635	971.795	971.798	0
2	22110302	258	Low	10.0	Vague	2	33	26	12	40.2	61.2	18.7	26	33	12	61.2	40.2	18.7	1	0.495	0.000	D	33	40.2	972.300	972.804	973.299	973.302	0
2	22110302	259	Low	10.0	Vague	2	32	35	1	31.4	49.8	3.4	32	35	1	31.4	49.8	3.4	3	0.116	0.000	R	1	3.4	973.804	976.783	976.900	976.902	0
2	22110302	260	Low	10.0	Precise	1	33	26	19	40.2	61.2	3.5	19	33	26	3.5	40.2	61.2	1	0.547	0.000	D	33	40.2	977.404	977.960	978.507	978.510	0
2	22110302	261	Low	10.0	Precise	1	34	26	19	47.0	61.2	3.5	19	26	34	3.5	61.2	47.0	3	1.385	0.000	L	19	3.5	979.012	979.690	981.075	981.078	0
2	22110302	262	Low	10.0	Vague	2	34	26	1	47.0	61.2	3.4	26	1	34	61.2	3.4	47.0	1	0.635	0.000	R	34	47.0	981.580	982.504	983.139	983.142	0
2	22110302	263	Low	10.0	Vague	2	32	34	7	31.4	47.0	5.2	32	34	7	31.4	47.0	5.2	3	0.487	0.001	R	7	5.2	983.644	984.772	985.259	985.262	0
2	22110302	264	Low	10.0	Vague	2	28	32	7	20.9	31.4	5.2	32	7	28	31.4	5.2	20.9	2	0.667	0.001	L	32	31.4	985.764	988.696	989.364	989.366	0
2	22110302	265	Low	10.0	Precise	1	28	34	31	20.9	47.0	11.1	31	34	28	11.1	47.0	20.9	3	1.590	0.000	L	31	11.1	989.868	992.349	993.939	993.942	0
2	22110302	266	Low	10.0	Vague	2	28	32	4	20.9	31.4	6.3	32	28	4	31.4	20.9	6.3	3	0.260	0.000	R	4	6.3	994.445	995.655	995.915	995.917	0
2	22110302	267	Low	10.0	Precise	1	34	26	31	47.0	61.2	11.1	31	34	26	11.1	47.0	61.2	2	3.333	0.000	R	26	61.2	996.420	999.070	1002.403	1002.406	0
2	22110302	268	Low	10.0	Vague	2	32	33	8	31.4	40.2	20.7	32	33	8	31.4	40.2	20.7	2	0.778	0.001	D	33	40.2	1002.908	1005.786	1006.564	1006.566	0
2	22110302	269	Low	10.0	Vague	2	33	26	1	40.2	61.2	3.4	26	33	1	61.2	40.2	3.4	2	1.596	0.000	L	26	61.2	1007.069	1009.743	1011.339	1011.342	0
2	22110302	270	Low	10.0	Vague	2	28	35	11	20.9	49.8	7.9	28	11	35	20.9	7.9	49.8	3	0.831	0.000	D	11	7.9	1011.845	1014.396	1015.227	1015.230	0
2	22110302	271	Low	10.0	Precise	1	28	35	29	20.9	49.8	13.6	29	28	35	13.6	20.9	49.8	2	1.249	0.000	R	35	49.8	1015.732	1018.699	1019.947	1019.950	0
2	22110302	272	Low	10.0	Vague	2	28	33	11	20.9	40.2	7.9	28	33	11	20.9	40.2	7.9	3	1.226	0.001	R	11	7.9	1020.452	1022.546	1023.772	1023.774	0
2	22110302	273	Low	10.0	Precise	1	28	26	19	20.9	61.2	3.5	28	26	19	20.9	61.2	3.5	3	0.425	0.000	R	19	3.5	1024.276	1027.114	1027.539	1027.542	0
2	22110302	274	Low	10.0	Precise	1	32	34	19	31.4	47.0	3.5	32	19	34	31.4	3.5	47.0	2	1.950	0.000	R	34	47.0	1028.044	1030.573	1032.523	1032.526	0
2	22110302	275	Low	10.0	Precise	1	28	32	19	20.9	31.4	3.5	28	32	19	20.9	31.4	3.5	1	0.033	0.000	L	28	20.9	1033.028	1034.354	1034.387	1034.390	0
2	22110302	276	Low	10.0	Vague	2	32	26	7	31.4	61.2	5.2	7	32	26	5.2	31.4	61.2	2	0.846	0.000	R	26	61.2	1034.892	1035.637	1036.483	1036.486	0
2	22110302	277	Low	10.0	Vague	2	32	33	7	31.4	40.2	5.2	33	32	7	40.2	31.4	5.2	2	0.221	0.000	L	33	40.2	1036.988	1037.719	1037.939	1037.942	0
2	22110302	278	Low	10.0	Precise	1	32	33	22	31.4	40.2	4.7	33	22	32	40.2	4.7	31.4	2	3.353	0.000	L	33	40.2	1038.444	1040.834	1044.188	1044.190	0
2	22110302	279	Low	10.0	Precise	1	28	32	22	20.9	31.4	4.7	28	22	32	20.9	4.7	31.4	2	1.786	0.000	R	32	31.4	1044.692	1046.170	1047.956	1047.959	0
2	22110302	280	Low	10.0	Precise	1	32	35	19	31.4	49.8	3.5	19	35	32	3.5	49.8	31.4	3	0.442	0.000	L	19	3.5	1048.461	1049.401	1049.843	1049.845	0
2	22110302	281	Low	10.0	Precise	1	33	35	21	40.2	49.8	3.0	21	35	33	3.0	49.8	40.2	1	1.508	0.001	R	33	40.2	1050.349	1052.024	1053.532	1053.534	0
2	22110302	282	Low	10.0	Precise	1	28	35	19	20.9	49.8	3.5	28	19	35	20.9	3.5	49.8	2	1.548	0.001	R	35	49.8	1054.036	1055.967	1057.516	1057.518	0
2	22110302	283	Low	10.0	Precise	1	33	26	30	40.2	61.2	6.8	33	30	26	40.2	6.8	61.2	1	2.577	0.001	L	33	40.2	1058.020	1059.499	1062.075	1062.078	0
2	22110302	284	Low	10.0	Vague	2	28	32	12	20.9	31.4	18.7	28	32	12	20.9	31.4	18.7	1	1.169	0.001	L	28	20.9	1062.580	1065.203	1066.372	1066.374	0
2	22110302	285	Low	10.0	Precise	1	28	33	29	20.9	40.2	13.6	29	33	28	13.6	40.2	20.9	3	0.908	0.000	L	29	13.6	1066.876	1069.592	1070.500	1070.502	0
2	22110302	286	Low	10.0	Precise	1	32	33	29	31.4	40.2	13.6	29	33	32	13.6	40.2	31.4	2	0.735	0.000	D	33	40.2	1071.005	1073.444	1074.180	1074.182	0
2	22110302	287	Low	10.0	Precise	1	28	26	21	20.9	61.2	3.0	26	21	28	61.2	3.0	20.9	2	0.000	1.908	L	26	61.2	1074.684	1076.087	1076.088	1076.092	0
2	22110302	288	Low	10.0	Precise	1	32	26	31	31.4	61.2	11.1	26	32	31	61.2	31.4	11.1	3	0.000	2.570	R	31	11.1	1076.594	1078.657	1078.657	1078.675	0
2	22110302	289	Low	10.0	Vague	2	34	35	4	47.0	49.8	6.3	34	35	4	47.0	49.8	6.3	3	1.905	0.000	R	4	6.3	1079.177	1081.314	1083.219	1083.222	0
2	22110302	290	Low	10.0	Vague	2	28	34	11	20.9	47.0	7.9	34	28	11	47.0	20.9	7.9	3	1.541	0.000	R	11	7.9	1083.724	1086.262	1087.803	1087.806	0
2	22110302	291	Low	10.0	Vague	2	35	26	1	49.8	61.2	3.4	26	1	35	61.2	3.4	49.8	1	2.511	0.000	R	35	49.8	1088.309	1091.093	1093.604	1093.606	0
2	22110302	292	Low	10.0	Vague	2	33	35	7	40.2	49.8	5.2	33	7	35	40.2	5.2	49.8	1	0.294	0.000	L	33	40.2	1094.109	1096.766	1097.059	1097.062	0
2	22110302	293	Low	10.0	Vague	2	32	35	4	31.4	49.8	6.3	4	35	32	6.3	49.8	31.4	1	0.811	0.001	R	32	31.4	1097.564	1098.672	1099.483	1099.486	0
2	22110302	294	Low	10.0	Precise	1	32	33	19	31.4	40.2	3.5	33	19	32	40.2	3.5	31.4	3	0.468	0.000	D	19	3.5	1099.988	1100.535	1101.004	1101.006	0
2	22110302	295	Low	10.0	Precise	1	34	35	29	47.0	49.8	13.6	29	34	35	13.6	47.0	49.8	1	1.917	0.001	D	34	47.0	1101.509	1104.359	1106.276	1106.278	0
2	22110302	296	Low	10.0	Vague	2	34	26	8	47.0	61.2	20.7	26	34	8	61.2	47.0	20.7	1	1.544	0.000	D	34	47.0	1106.781	1108.731	1110.276	1110.278	0
2	22110302	297	Low	10.0	Precise	1	28	34	29	20.9	47.0	13.6	28	34	29	20.9	47.0	13.6	3	1.635	0.000	R	29	13.6	1110.780	1111.320	1112.955	1112.958	0
2	22110302	298	Low	10.0	Vague	2	34	26	12	47.0	61.2	18.7	34	12	26	47.0	18.7	61.2	3	3.395	0.001	D	12	18.7	1113.460	1115.153	1118.548	1118.550	0
2	22110302	299	Low	10.0	Vague	2	32	34	1	31.4	47.0	3.4	34	1	32	47.0	3.4	31.4	2	0.437	0.000	L	34	47.0	1119.053	1121.630	1122.068	1122.070	0
2	22110302	300	Low	10.0	Precise	1	32	34	29	31.4	47.0	13.6	32	29	34	31.4	13.6	47.0	2	0.430	0.000	R	34	47.0	1122.572	1124.285	1124.715	1124.718	0
2	22110302	301	Low	10.0	Precise	1	28	33	19	20.9	40.2	3.5	33	28	19	40.2	20.9	3.5	3	1.072	0.001	R	19	3.5	1149.926	1150.940	1152.012	1152.014	0
2	22110302	302	Low	10.0	Vague	2	35	26	8	49.8	61.2	20.7	35	26	8	49.8	61.2	20.7	3	0.966	0.000	R	8	20.7	1152.516	1153.406	1154.372	1154.374	0
2	22110302	303	Low	10.0	Vague	2	28	26	1	20.9	61.2	3.4	28	26	1	20.9	61.2	3.4	2	0.797	0.000	D	26	61.2	1154.876	1157.231	1158.028	1158.030	0
2	22110302	304	Low	10.0	Precise	1	33	34	31	40.2	47.0	11.1	34	31	33	47.0	11.1	40.2	3	0.984	0.000	D	31	11.1	1158.532	1160.380	1161.364	1161.366	0
2	22110302	305	Low	10.0	Vague	2	28	35	8	20.9	49.8	20.7	35	28	8	49.8	20.9	20.7	1	0.566	0.001	D	28	20.9	1161.868	1163.078	1163.644	1163.646	0
2	22110302	306	Low	10.0	Vague	2	33	34	4	40.2	47.0	6.3	33	34	4	40.2	47.0	6.3	2	0.900	0.000	D	34	47.0	1164.148	1167.119	1168.020	1168.022	0
2	22110302	307	Low	10.0	Precise	1	34	26	30	47.0	61.2	6.8	30	34	26	6.8	47.0	61.2	1	0.852	0.000	D	34	47.0	1168.524	1171.343	1172.196	1172.198	0
2	22110302	308	Low	10.0	Vague	2	32	35	11	31.4	49.8	7.9	11	35	32	7.9	49.8	31.4	3	1.197	0.000	L	11	7.9	1172.700	1174.350	1175.547	1175.550	0
2	22110302	309	Low	10.0	Vague	2	35	26	11	49.8	61.2	7.9	26	11	35	61.2	7.9	49.8	1	0.683	0.000	R	35	49.8	1176.052	1176.864	1177.548	1177.550	0
2	22110302	310	Low	10.0	Precise	1	33	35	29	40.2	49.8	13.6	35	29	33	49.8	13.6	40.2	2	0.378	0.001	L	35	49.8	1178.052	1180.529	1180.908	1180.910	0
2	22110302	311	Low	10.0	Precise	1	35	26	21	49.8	61.2	3.0	26	21	35	61.2	3.0	49.8	1	1.624	0.001	R	35	49.8	1181.412	1181.939	1183.564	1183.566	0
2	22110302	312	Low	10.0	Vague	2	33	35	8	40.2	49.8	20.7	8	33	35	20.7	40.2	49.8	2	1.298	0.001	R	35	49.8	1184.069	1186.346	1187.644	1187.646	0
2	22110302	313	Low	10.0	Vague	2	35	26	7	49.8	61.2	5.2	7	35	26	5.2	49.8	61.2	3	0.128	0.000	L	7	5.2	1188.148	1189.259	1189.388	1189.390	0
2	22110302	314	Low	10.0	Vague	2	32	34	11	31.4	47.0	7.9	32	34	11	31.4	47.0	7.9	1	1.653	0.000	L	32	31.4	1189.892	1192.439	1194.092	1194.094	0
2	22110302	315	Low	10.0	Precise	1	28	26	30	20.9	61.2	6.8	26	28	30	61.2	20.9	6.8	2	1.794	0.000	L	26	61.2	1194.597	1197.361	1199.156	1199.159	0
2	22110302	316	Low	10.0	Precise	1	33	35	30	40.2	49.8	6.8	30	33	35	6.8	40.2	49.8	2	0.741	0.001	R	35	49.8	1199.661	1201.518	1202.260	1202.262	0
2	22110302	317	Low	10.0	Vague	2	33	35	12	40.2	49.8	18.7	35	33	12	49.8	40.2	18.7	1	0.238	0.000	D	33	40.2	1202.764	1205.637	1205.876	1205.878	0
2	22110302	318	Low	10.0	Precise	1	35	26	31	49.8	61.2	11.1	35	26	31	49.8	61.2	11.1	3	2.355	0.001	R	31	11.1	1206.380	1209.136	1211.492	1211.494	0
2	22110302	319	Low	10.0	Vague	2	28	32	1	20.9	31.4	3.4	28	1	32	20.9	3.4	31.4	3	0.420	0.000	D	1	3.4	1211.996	1212.544	1212.964	1212.966	0
2	22110302	320	Low	10.0	Precise	1	28	26	22	20.9	61.2	4.7	26	28	22	61.2	20.9	4.7	2	0.000	1.613	L	26	61.2	1213.468	1214.577	1214.577	1214.592	0
2	22110302	321	Low	10.0	Vague	2	32	33	1	31.4	40.2	3.4	32	33	1	31.4	40.2	3.4	3	0.160	0.001	R	1	3.4	1215.094	1216.204	1216.364	1216.366	0
2	22110302	322	Low	10.0	Precise	1	28	32	31	20.9	31.4	11.1	32	28	31	31.4	20.9	11.1	3	1.757	0.001	R	31	11.1	1216.868	1219.343	1221.100	1221.102	0
2	22110302	323	Low	10.0	Precise	1	32	35	29	31.4	49.8	13.6	35	32	29	49.8	31.4	13.6	1	0.265	0.000	D	32	31.4	1221.605	1222.698	1222.963	1222.965	0
2	22110302	324	Low	10.0	Vague	2	33	35	4	40.2	49.8	6.3	33	35	4	40.2	49.8	6.3	2	1.312	0.000	D	35	49.8	1223.468	1225.444	1226.755	1226.758	0
2	22110302	325	Low	10.0	Vague	2	32	26	8	31.4	61.2	20.7	26	8	32	61.2	20.7	31.4	2	1.534	0.001	L	26	61.2	1227.260	1229.150	1230.684	1230.686	0
2	22110302	326	Low	10.0	Precise	1	28	32	21	20.9	31.4	3.0	21	32	28	3.0	31.4	20.9	2	0.449	0.000	D	32	31.4	1231.188	1232.083	1232.532	1232.534	0
2	22110302	327	Low	10.0	Vague	2	34	26	4	47.0	61.2	6.3	4	34	26	6.3	47.0	61.2	3	0.008	0.000	L	4	6.3	1233.036	1234.643	1234.652	1234.659	0
2	22110302	328	Low	10.0	Vague	2	32	33	12	31.4	40.2	18.7	33	12	32	40.2	18.7	31.4	2	2.581	0.000	L	33	40.2	1235.161	1237.143	1239.724	1239.726	0
2	22110302	329	Low	10.0	Vague	2	28	35	4	20.9	49.8	6.3	4	28	35	6.3	20.9	49.8	2	0.445	0.000	R	35	49.8	1240.228	1243.182	1243.627	1243.630	0
2	22110302	330	Low	10.0	Vague	2	35	26	4	49.8	61.2	6.3	26	4	35	61.2	6.3	49.8	2	2.841	0.001	L	26	61.2	1244.132	1244.898	1247.740	1247.742	0
2	22110302	331	Low	10.0	Vague	2	28	34	1	20.9	47.0	3.4	1	34	28	3.4	47.0	20.9	2	1.663	0.000	D	34	47.0	1248.245	1249.676	1251.340	1251.342	0
2	22110302	332	Low	10.0	Precise	1	32	26	19	31.4	61.2	3.5	19	26	32	3.5	61.2	31.4	1	0.910	0.000	R	32	31.4	1251.845	1254.366	1255.275	1255.278	0
2	22110302	333	Low	10.0	Vague	2	33	26	7	40.2	61.2	5.2	26	7	33	61.2	5.2	40.2	2	1.662	0.000	L	26	61.2	1255.780	1258.126	1259.788	1259.790	0
2	22110302	334	Low	10.0	Precise	1	35	26	29	49.8	61.2	13.6	35	29	26	49.8	13.6	61.2	1	2.098	0.000	L	35	49.8	1260.293	1261.538	1263.635	1263.638	0
2	22110302	335	Low	10.0	Vague	2	33	34	7	40.2	47.0	5.2	7	34	33	5.2	47.0	40.2	1	1.013	0.001	R	33	40.2	1264.140	1266.671	1267.684	1267.686	0
2	22110302	336	Low	10.0	Precise	1	28	26	29	20.9	61.2	13.6	26	29	28	61.2	13.6	20.9	2	0.612	0.000	L	26	61.2	1268.189	1269.623	1270.235	1270.238	0
2	22110302	337	Low	10.0	Vague	2	33	34	11	40.2	47.0	7.9	33	11	34	40.2	7.9	47.0	2	0.253	0.001	R	34	47.0	1270.741	1271.390	1271.644	1271.646	0
2	22110302	338	Low	10.0	Vague	2	32	35	12	31.4	49.8	18.7	32	35	12	31.4	49.8	18.7	1	2.018	0.001	L	32	31.4	1272.148	1273.074	1275.092	1275.094	0
2	22110302	339	Low	10.0	Vague	2	35	26	12	49.8	61.2	18.7	35	12	26	49.8	18.7	61.2	2	0.945	0.000	R	26	61.2	1275.596	1278.387	1279.332	1279.334	0
2	22110302	340	Low	10.0	Vague	2	28	33	1	20.9	40.2	3.4	33	1	28	40.2	3.4	20.9	3	1.422	0.001	D	1	3.4	1279.836	1281.509	1282.932	1282.934	0
2	22110302	341	Low	10.0	Precise	1	33	34	29	40.2	47.0	13.6	29	33	34	13.6	40.2	47.0	3	0.613	0.000	L	29	13.6	1283.436	1285.198	1285.811	1285.814	0
2	22110302	342	Low	10.0	Precise	1	28	35	31	20.9	49.8	11.1	35	28	31	49.8	20.9	11.1	3	0.627	0.000	R	31	11.1	1286.316	1287.552	1288.179	1288.182	0
2	22110302	343	Low	10.0	Vague	2	32	34	12	31.4	47.0	18.7	34	32	12	47.0	31.4	18.7	2	0.000	2.519	L	34	47.0	1288.684	1290.698	1290.698	1290.709	0
2	22110302	344	Low	10.0	Vague	2	28	35	1	20.9	49.8	3.4	35	1	28	49.8	3.4	20.9	1	2.378	0.000	R	28	20.9	1291.211	1292.313	1294.692	1294.694	0
2	22110302	345	Low	10.0	Precise	1	32	26	30	31.4	61.2	6.8	26	30	32	61.2	6.8	31.4	2	0.176	0.000	L	26	61.2	1295.197	1297.604	1297.780	1297.782	0
2	22110302	346	Low	10.0	Precise	1	28	33	31	20.9	40.2	11.1	31	28	33	11.1	20.9	40.2	1	0.150	0.001	D	28	20.9	1298.284	1299.166	1299.316	1299.318	0
2	22110302	347	Low	10.0	Precise	1	32	33	21	31.4	40.2	3.0	21	33	32	3.0	40.2	31.4	3	1.382	0.001	L	21	3.0	1299.820	1302.014	1303.396	1303.398	0
2	22110302	348	Low	10.0	Vague	2	33	34	8	40.2	47.0	20.7	33	34	8	40.2	47.0	20.7	2	0.002	0.001	D	34	47.0	1303.901	1304.850	1304.851	1304.859	0
2	22110302	349	Low	10.0	Precise	1	34	26	29	47.0	61.2	13.6	34	29	26	47.0	13.6	61.2	2	0.314	0.000	R	26	61.2	1305.361	1306.033	1306.348	1306.350	0
2	22110302	350	Low	10.0	Precise	1	33	35	19	40.2	49.8	3.5	19	33	35	3.5	40.2	49.8	1	0.071	0.000	D	33	40.2	1306.852	1307.468	1307.540	1307.542	0
2	22110302	351	Low	10.0	Vague	2	28	33	7	20.9	40.2	5.2	28	7	33	20.9	5.2	40.2	2	0.194	0.000	R	33	40.2	1308.045	1309.586	1309.779	1309.782	0
2	22110302	352	Low	10.0	Vague	2	28	26	8	20.9	61.2	20.7	8	26	28	20.7	61.2	20.9	3	1.175	0.001	L	8	20.7	1310.284	1311.909	1313.084	1313.086	0
2	22110302	353	Low	10.0	Precise	1	35	26	19	49.8	61.2	3.5	19	26	35	3.5	61.2	49.8	1	0.107	0.000	R	35	49.8	1313.588	1315.057	1315.164	1315.166	0
2	22110302	354	Low	10.0	Vague	2	32	26	1	31.4	61.2	3.4	1	32	26	3.4	31.4	61.2	2	1.149	0.000	R	26	61.2	1315.668	1317.542	1318.692	1318.694	0
2	22110302	355	Low	10.0	Precise	1	33	26	21	40.2	61.2	3.0	26	21	33	61.2	3.0	40.2	3	1.060	0.000	D	21	3.0	1319.196	1320.263	1321.324	1321.326	0
2	22110302	356	Low	10.0	Vague	2	28	33	12	20.9	40.2	18.7	33	28	12	40.2	20.9	18.7	1	0.468	0.001	D	28	20.9	1321.828	1323.583	1324.052	1324.054	0
2	22110302	357	Low	10.0	Precise	1	32	26	29	31.4	61.2	13.6	32	26	29	31.4	61.2	13.6	3	1.929	0.001	R	29	13.6	1324.557	1326.459	1328.388	1328.390	0
2	22110302	358	Low	10.0	Vague	2	32	26	4	31.4	61.2	6.3	4	26	32	6.3	61.2	31.4	2	0.711	0.000	D	26	61.2	1328.892	1331.093	1331.804	1331.806	0
2	22110302	359	Low	10.0	Vague	2	28	32	8	20.9	31.4	20.7	28	8	32	20.9	20.7	31.4	1	2.242	0.001	L	28	20.9	1332.309	1335.298	1337.540	1337.543	0
2	22110302	360	Low	10.0	Precise	1	34	26	21	47.0	61.2	3.0	34	26	21	47.0	61.2	3.0	1	8.167	0.001	L	34	47.0	1338.045	1339.805	1347.972	1347.974	0
