Group	subID	trial	TimePressure	TimeConstraint	Vagueness	Vaguenesscode	ID1	ID2	ID3	V1	V2	V3	ID_left	ID_middle	ID_right	Bid_left	Bid_middle	Bid_right	chosenItem	RT	RTvariance	chosenPosition	chosenID	chosenValue	fixation_time	option_time	choice_time	feedback_time	timeout
2	22071908	1	High	1.5	Precise	1	30	34	19	12.3	14.0	1.0	34	19	30	14.0	1.0	12.3	3	1.217	0.000	D	19	1.0	5.394	5.915	7.132	7.136	0
2	22071908	2	High	1.5	Precise	1	32	33	19	12.0	21.8	1.0	19	33	32	1.0	21.8	12.0	NaN	NaN	NaN	NaN	NaN	NaN	7.639	10.556	NaN	12.045	1
2	22071908	3	High	1.5	Precise	1	26	34	24	11.3	14.0	1.5	34	24	26	14.0	1.5	11.3	NaN	NaN	NaN	NaN	NaN	NaN	14.051	16.597	NaN	18.084	1
2	22071908	4	High	1.5	Vague	2	36	34	4	12.0	14.0	7.6	36	4	34	12.0	7.6	14.0	1	0.885	0.000	L	36	12.0	20.088	22.550	23.436	23.438	0
2	22071908	5	High	1.5	Precise	1	30	33	20	12.3	21.8	0.5	20	33	30	0.5	21.8	12.3	3	0.641	0.000	L	20	0.5	23.942	26.739	27.379	27.385	0
2	22071908	6	High	1.5	Precise	1	26	30	19	11.3	12.3	1.0	26	19	30	11.3	1.0	12.3	2	0.614	0.000	R	30	12.3	27.890	28.766	29.380	29.382	0
2	22071908	7	High	1.5	Precise	1	30	34	31	12.3	14.0	8.5	30	31	34	12.3	8.5	14.0	1	0.467	0.000	L	30	12.3	29.884	32.136	32.603	32.606	0
2	22071908	8	High	1.5	Precise	1	26	30	29	11.3	12.3	10.8	29	30	26	10.8	12.3	11.3	3	1.048	0.000	L	29	10.8	33.109	35.083	36.132	36.134	0
2	22071908	9	High	1.5	Precise	1	26	33	22	11.3	21.8	7.7	22	33	26	7.7	21.8	11.3	3	0.786	0.000	L	22	7.7	36.637	39.449	40.235	40.238	0
2	22071908	10	High	1.5	Precise	1	26	33	29	11.3	21.8	10.8	26	29	33	11.3	10.8	21.8	2	0.760	0.000	R	33	21.8	40.741	43.715	44.476	44.478	0
2	22071908	11	High	1.5	Precise	1	26	34	20	11.3	14.0	0.5	26	34	20	11.3	14.0	0.5	2	0.942	0.000	D	34	14.0	44.980	46.862	47.803	47.806	0
2	22071908	12	High	1.5	Precise	1	26	36	20	11.3	12.0	0.5	36	20	26	12.0	0.5	11.3	2	0.602	0.001	L	36	12.0	48.309	50.282	50.884	50.886	0
2	22071908	13	High	1.5	Precise	1	32	33	22	12.0	21.8	7.7	33	22	32	21.8	7.7	12.0	2	0.698	0.000	L	33	21.8	51.389	53.665	54.363	54.366	0
2	22071908	14	High	1.5	Precise	1	26	30	31	11.3	12.3	8.5	30	26	31	12.3	11.3	8.5	2	0.704	0.000	L	30	12.3	54.869	55.715	56.419	56.422	0
2	22071908	15	High	1.5	Vague	2	32	34	4	12.0	14.0	7.6	4	34	32	7.6	14.0	12.0	1	0.643	0.001	R	32	12.0	56.925	59.064	59.708	59.710	0
2	22071908	16	High	1.5	Vague	2	32	36	4	12.0	12.0	7.6	36	32	4	12.0	12.0	7.6	2	0.608	0.000	L	36	12.0	60.212	62.483	63.091	63.094	0
2	22071908	17	High	1.5	Vague	2	26	36	5	11.3	12.0	2.4	36	26	5	12.0	11.3	2.4	2	0.523	0.000	L	36	12.0	63.596	65.096	65.619	65.622	0
2	22071908	18	High	1.5	Vague	2	32	33	1	12.0	21.8	1.0	32	33	1	12.0	21.8	1.0	1	0.868	0.000	L	32	12.0	66.125	66.959	67.828	67.830	0
2	22071908	19	High	1.5	Vague	2	26	36	1	11.3	12.0	1.0	36	1	26	12.0	1.0	11.3	2	0.949	0.000	L	36	12.0	68.333	69.527	70.476	70.478	0
2	22071908	20	High	1.5	Precise	1	34	33	31	14.0	21.8	8.5	31	33	34	8.5	21.8	14.0	3	0.883	0.000	L	31	8.5	70.981	73.200	74.083	74.086	0
2	22071908	21	High	1.5	Precise	1	26	36	24	11.3	12.0	1.5	26	24	36	11.3	1.5	12.0	2	0.804	0.000	R	36	12.0	74.589	75.183	75.987	75.990	0
2	22071908	22	High	1.5	Vague	2	32	33	9	12.0	21.8	10.2	9	33	32	10.2	21.8	12.0	1	1.220	0.000	R	32	12.0	76.492	78.119	79.339	79.342	0
2	22071908	23	High	1.5	Precise	1	32	36	24	12.0	12.0	1.5	36	32	24	12.0	12.0	1.5	1	0.989	0.000	D	32	12.0	79.845	81.279	82.268	82.270	0
2	22071908	24	High	1.5	Vague	2	36	33	13	12.0	21.8	5.0	13	33	36	5.0	21.8	12.0	2	0.708	0.000	D	33	21.8	82.773	83.999	84.708	84.710	0
2	22071908	25	High	1.5	Vague	2	32	34	9	12.0	14.0	10.2	9	34	32	10.2	14.0	12.0	1	0.910	0.000	R	32	12.0	85.212	85.830	86.740	86.742	0
2	22071908	26	High	1.5	Vague	2	30	34	5	12.3	14.0	2.4	30	5	34	12.3	2.4	14.0	1	0.605	0.000	L	30	12.3	87.245	88.958	89.564	89.566	0
2	22071908	27	High	1.5	Precise	1	32	30	31	12.0	12.3	8.5	30	31	32	12.3	8.5	12.0	2	0.560	0.000	L	30	12.3	90.069	91.980	92.540	92.542	0
2	22071908	28	High	1.5	Precise	1	26	32	29	11.3	12.0	10.8	29	32	26	10.8	12.0	11.3	2	0.707	0.000	D	32	12.0	93.044	95.625	96.331	96.334	0
2	22071908	29	High	1.5	Vague	2	34	33	1	14.0	21.8	1.0	1	34	33	1.0	14.0	21.8	2	0.635	0.001	R	33	21.8	96.836	99.233	99.868	99.870	0
2	22071908	30	High	1.5	Vague	2	26	34	9	11.3	14.0	10.2	26	9	34	11.3	10.2	14.0	3	0.803	0.001	D	9	10.2	100.373	101.713	102.516	102.518	0
2	22071908	31	High	1.5	Precise	1	32	36	29	12.0	12.0	10.8	36	32	29	12.0	12.0	10.8	2	0.603	0.001	L	36	12.0	103.021	105.425	106.028	106.030	0
2	22071908	32	High	1.5	Vague	2	36	30	4	12.0	12.3	7.6	30	4	36	12.3	7.6	12.0	2	0.534	0.000	L	30	12.3	106.533	109.518	110.052	110.054	0
2	22071908	33	High	1.5	Vague	2	26	36	2	11.3	12.0	1.0	26	36	2	11.3	12.0	1.0	3	0.759	0.001	R	2	1.0	110.556	112.701	113.460	113.463	0
2	22071908	34	High	1.5	Vague	2	32	34	2	12.0	14.0	1.0	32	2	34	12.0	1.0	14.0	1	0.633	0.001	L	32	12.0	113.965	116.754	117.388	117.390	0
2	22071908	35	High	1.5	Precise	1	36	30	19	12.0	12.3	1.0	30	19	36	12.3	1.0	12.0	2	0.519	0.000	L	30	12.3	117.892	120.037	120.556	120.558	0
2	22071908	36	High	1.5	Vague	2	26	33	1	11.3	21.8	1.0	1	33	26	1.0	21.8	11.3	2	0.906	0.000	D	33	21.8	121.060	122.737	123.644	123.646	0
2	22071908	37	High	1.5	Vague	2	32	30	9	12.0	12.3	10.2	30	32	9	12.3	12.0	10.2	2	0.503	0.000	L	30	12.3	124.149	125.620	126.123	126.126	0
2	22071908	38	High	1.5	Vague	2	36	34	1	12.0	14.0	1.0	36	1	34	12.0	1.0	14.0	1	0.705	0.000	L	36	12.0	126.628	128.899	129.603	129.606	0
2	22071908	39	High	1.5	Precise	1	26	34	19	11.3	14.0	1.0	19	26	34	1.0	11.3	14.0	1	0.838	0.000	D	26	11.3	130.109	131.901	132.740	132.742	0
2	22071908	40	High	1.5	Precise	1	26	36	22	11.3	12.0	7.7	36	26	22	12.0	11.3	7.7	2	0.750	0.000	L	36	12.0	133.244	134.334	135.084	135.086	0
2	22071908	41	High	1.5	Vague	2	30	34	2	12.3	14.0	1.0	2	30	34	1.0	12.3	14.0	1	0.777	0.001	D	30	12.3	135.588	138.491	139.268	139.270	0
2	22071908	42	High	1.5	Precise	1	32	36	31	12.0	12.0	8.5	36	31	32	12.0	8.5	12.0	2	0.743	0.000	L	36	12.0	139.773	142.268	143.011	143.014	0
2	22071908	43	High	1.5	Vague	2	26	36	13	11.3	12.0	5.0	26	36	13	11.3	12.0	5.0	2	0.875	0.000	D	36	12.0	143.516	145.353	146.227	146.230	0
2	22071908	44	High	1.5	Precise	1	26	32	20	11.3	12.0	0.5	20	32	26	0.5	12.0	11.3	2	1.039	0.000	D	32	12.0	146.732	148.636	149.676	149.678	0
2	22071908	45	High	1.5	Precise	1	36	33	31	12.0	21.8	8.5	31	36	33	8.5	12.0	21.8	2	0.960	0.000	R	33	21.8	150.181	152.972	153.932	153.934	0
2	22071908	46	High	1.5	Precise	1	32	33	24	12.0	21.8	1.5	33	24	32	21.8	1.5	12.0	2	0.613	0.000	L	33	21.8	154.436	155.374	155.988	155.990	0
2	22071908	47	High	1.5	Precise	1	34	33	19	14.0	21.8	1.0	19	33	34	1.0	21.8	14.0	2	0.634	0.001	D	33	21.8	156.492	157.034	157.668	157.670	0
2	22071908	48	High	1.5	Vague	2	26	33	4	11.3	21.8	7.6	4	33	26	7.6	21.8	11.3	2	0.649	0.000	D	33	21.8	158.173	159.787	160.436	160.438	0
2	22071908	49	High	1.5	Precise	1	32	30	20	12.0	12.3	0.5	30	32	20	12.3	12.0	0.5	2	0.656	0.000	L	30	12.3	160.941	161.603	162.259	162.262	0
2	22071908	50	High	1.5	Vague	2	26	33	2	11.3	21.8	1.0	33	2	26	21.8	1.0	11.3	2	0.504	0.000	L	33	21.8	162.764	163.779	164.284	164.286	0
2	22071908	51	High	1.5	Vague	2	26	32	2	11.3	12.0	1.0	26	2	32	11.3	1.0	12.0	2	0.752	0.000	R	32	12.0	164.789	167.764	168.516	168.518	0
2	22071908	52	High	1.5	Vague	2	32	30	2	12.0	12.3	1.0	30	32	2	12.3	12.0	1.0	2	0.725	0.001	L	30	12.3	169.020	169.711	170.436	170.438	0
2	22071908	53	High	1.5	Precise	1	26	36	31	11.3	12.0	8.5	26	36	31	11.3	12.0	8.5	3	0.589	0.001	R	31	8.5	170.940	172.391	172.980	172.982	0
2	22071908	54	High	1.5	Vague	2	34	33	9	14.0	21.8	10.2	33	34	9	21.8	14.0	10.2	2	0.613	0.000	L	33	21.8	173.485	174.151	174.764	174.766	0
2	22071908	55	High	1.5	Precise	1	26	34	22	11.3	14.0	7.7	22	34	26	7.7	14.0	11.3	3	1.001	0.000	L	22	7.7	175.269	175.778	176.779	176.782	0
2	22071908	56	High	1.5	Vague	2	36	30	9	12.0	12.3	10.2	36	30	9	12.0	12.3	10.2	2	0.617	0.000	D	30	12.3	177.284	179.138	179.755	179.758	0
2	22071908	57	High	1.5	Vague	2	34	33	2	14.0	21.8	1.0	33	2	34	21.8	1.0	14.0	2	0.568	0.000	L	33	21.8	180.260	181.099	181.667	181.670	0
2	22071908	58	High	1.5	Vague	2	32	36	13	12.0	12.0	5.0	32	13	36	12.0	5.0	12.0	2	1.055	0.001	R	36	12.0	182.173	183.877	184.932	184.934	0
2	22071908	59	High	1.5	Precise	1	32	30	22	12.0	12.3	7.7	32	30	22	12.0	12.3	7.7	1	0.777	0.000	L	32	12.0	185.436	186.114	186.891	186.894	0
2	22071908	60	High	1.5	Precise	1	34	33	22	14.0	21.8	7.7	34	33	22	14.0	21.8	7.7	2	0.851	0.001	D	33	21.8	187.396	188.648	189.500	189.503	0
2	22071908	61	High	1.5	Vague	2	32	34	5	12.0	14.0	2.4	5	34	32	2.4	14.0	12.0	3	0.694	0.000	L	5	2.4	198.777	200.133	200.828	200.830	0
2	22071908	62	High	1.5	Vague	2	30	34	1	12.3	14.0	1.0	30	1	34	12.3	1.0	14.0	1	0.583	0.001	L	30	12.3	201.333	203.693	204.276	204.278	0
2	22071908	63	High	1.5	Precise	1	26	30	24	11.3	12.3	1.5	30	24	26	12.3	1.5	11.3	2	0.637	0.000	L	30	12.3	204.781	205.670	206.307	206.310	0
2	22071908	64	High	1.5	Precise	1	30	34	24	12.3	14.0	1.5	34	30	24	14.0	12.3	1.5	1	0.654	0.000	D	30	12.3	206.813	209.526	210.179	210.182	0
2	22071908	65	High	1.5	Vague	2	26	32	9	11.3	12.0	10.2	9	32	26	10.2	12.0	11.3	3	1.019	0.000	L	9	10.2	210.684	213.136	214.156	214.158	0
2	22071908	66	High	1.5	Precise	1	36	34	31	12.0	14.0	8.5	31	34	36	8.5	14.0	12.0	3	0.799	0.000	L	31	8.5	214.661	215.484	216.283	216.286	0
2	22071908	67	High	1.5	Vague	2	30	33	4	12.3	21.8	7.6	30	4	33	12.3	7.6	21.8	1	0.622	0.000	L	30	12.3	216.788	218.550	219.172	219.174	0
2	22071908	68	High	1.5	Precise	1	32	36	20	12.0	12.0	0.5	20	36	32	0.5	12.0	12.0	2	0.966	0.001	D	36	12.0	219.676	220.213	221.180	221.182	0
2	22071908	69	High	1.5	Precise	1	34	33	29	14.0	21.8	10.8	29	34	33	10.8	14.0	21.8	2	0.969	0.000	R	33	21.8	221.685	223.243	224.212	224.214	0
2	22071908	70	High	1.5	Precise	1	36	30	31	12.0	12.3	8.5	31	36	30	8.5	12.0	12.3	2	0.926	0.000	R	30	12.3	224.716	226.173	227.099	227.102	0
2	22071908	71	High	1.5	Precise	1	30	33	29	12.3	21.8	10.8	30	33	29	12.3	21.8	10.8	1	0.535	0.000	L	30	12.3	227.604	230.308	230.843	230.846	0
2	22071908	72	High	1.5	Vague	2	32	36	2	12.0	12.0	1.0	36	32	2	12.0	12.0	1.0	1	0.628	0.000	D	32	12.0	231.348	234.167	234.796	234.798	0
2	22071908	73	High	1.5	Precise	1	32	33	31	12.0	21.8	8.5	31	33	32	8.5	21.8	12.0	3	0.570	0.000	L	31	8.5	235.301	236.377	236.947	236.950	0
2	22071908	74	High	1.5	Precise	1	26	30	22	11.3	12.3	7.7	22	26	30	7.7	11.3	12.3	2	0.788	0.001	R	30	12.3	237.452	239.431	240.220	240.222	0
2	22071908	75	High	1.5	Vague	2	36	30	2	12.0	12.3	1.0	36	30	2	12.0	12.3	1.0	2	0.565	0.000	D	30	12.3	240.724	243.047	243.611	243.614	0
2	22071908	76	High	1.5	Precise	1	26	32	19	11.3	12.0	1.0	19	32	26	1.0	12.0	11.3	2	0.676	0.000	D	32	12.0	244.116	246.007	246.683	246.687	0
2	22071908	77	High	1.5	Precise	1	34	33	24	14.0	21.8	1.5	34	24	33	14.0	1.5	21.8	2	0.733	0.001	R	33	21.8	247.189	248.398	249.132	249.134	0
2	22071908	78	High	1.5	Precise	1	26	32	31	11.3	12.0	8.5	26	31	32	11.3	8.5	12.0	2	0.752	0.000	R	32	12.0	249.636	251.491	252.243	252.246	0
2	22071908	79	High	1.5	Precise	1	36	30	20	12.0	12.3	0.5	36	30	20	12.0	12.3	0.5	2	0.621	0.000	D	30	12.3	252.748	254.583	255.204	255.206	0
2	22071908	80	High	1.5	Precise	1	26	30	20	11.3	12.3	0.5	30	26	20	12.3	11.3	0.5	2	0.536	0.000	L	30	12.3	255.709	258.227	258.763	258.766	0
2	22071908	81	High	1.5	Precise	1	36	33	29	12.0	21.8	10.8	33	36	29	21.8	12.0	10.8	2	0.631	0.001	L	33	21.8	259.268	260.397	261.028	261.030	0
2	22071908	82	High	1.5	Vague	2	26	34	1	11.3	14.0	1.0	1	34	26	1.0	14.0	11.3	3	1.135	0.001	L	1	1.0	261.533	262.877	264.012	264.014	0
2	22071908	83	High	1.5	Vague	2	26	34	4	11.3	14.0	7.6	4	26	34	7.6	11.3	14.0	1	1.218	0.000	D	26	11.3	264.516	266.313	267.531	267.534	0
2	22071908	84	High	1.5	Precise	1	32	34	29	12.0	14.0	10.8	32	34	29	12.0	14.0	10.8	1	0.678	0.000	L	32	12.0	268.036	270.518	271.195	271.198	0
2	22071908	85	High	1.5	Precise	1	32	30	19	12.0	12.3	1.0	32	30	19	12.0	12.3	1.0	2	0.841	0.000	D	30	12.3	271.700	273.514	274.355	274.358	0
2	22071908	86	High	1.5	Precise	1	30	33	22	12.3	21.8	7.7	30	33	22	12.3	21.8	7.7	1	0.722	0.001	L	30	12.3	274.860	276.233	276.955	276.958	0
2	22071908	87	High	1.5	Vague	2	36	33	9	12.0	21.8	10.2	33	36	9	21.8	12.0	10.2	2	0.469	0.001	L	33	21.8	277.461	278.823	279.292	279.294	0
2	22071908	88	High	1.5	Vague	2	30	34	9	12.3	14.0	10.2	34	9	30	14.0	10.2	12.3	1	0.695	0.000	R	30	12.3	279.797	280.516	281.211	281.214	0
2	22071908	89	High	1.5	Precise	1	26	33	24	11.3	21.8	1.5	33	26	24	21.8	11.3	1.5	2	0.581	0.000	L	33	21.8	281.716	284.119	284.699	284.702	0
2	22071908	90	High	1.5	Precise	1	30	34	29	12.3	14.0	10.8	30	34	29	12.3	14.0	10.8	1	0.657	0.000	L	30	12.3	285.205	286.794	287.451	287.454	0
2	22071908	91	High	1.5	Vague	2	30	33	9	12.3	21.8	10.2	30	33	9	12.3	21.8	10.2	2	0.815	0.000	D	33	21.8	287.956	288.748	289.563	289.566	0
2	22071908	92	High	1.5	Vague	2	26	30	13	11.3	12.3	5.0	13	26	30	5.0	11.3	12.3	2	0.625	0.001	R	30	12.3	290.068	290.722	291.347	291.350	0
2	22071908	93	High	1.5	Vague	2	34	33	4	14.0	21.8	7.6	4	34	33	7.6	14.0	21.8	2	0.661	0.000	R	33	21.8	291.852	292.486	293.147	293.149	0
2	22071908	94	High	1.5	Precise	1	32	30	29	12.0	12.3	10.8	32	30	29	12.0	12.3	10.8	2	0.915	0.000	D	30	12.3	293.652	295.809	296.723	296.726	0
2	22071908	95	High	1.5	Vague	2	32	33	13	12.0	21.8	5.0	33	32	13	21.8	12.0	5.0	2	0.552	0.000	L	33	21.8	297.228	299.163	299.715	299.718	0
2	22071908	96	High	1.5	Precise	1	32	34	19	12.0	14.0	1.0	32	19	34	12.0	1.0	14.0	1	0.519	0.000	L	32	12.0	300.220	301.484	302.003	302.006	0
2	22071908	97	High	1.5	Vague	2	26	36	9	11.3	12.0	10.2	36	26	9	12.0	11.3	10.2	2	1.159	0.001	L	36	12.0	302.508	303.740	304.900	304.902	0
2	22071908	98	High	1.5	Vague	2	32	30	1	12.0	12.3	1.0	30	32	1	12.3	12.0	1.0	2	0.543	0.000	L	30	12.3	305.405	307.981	308.523	308.526	0
2	22071908	99	High	1.5	Precise	1	30	33	19	12.3	21.8	1.0	30	33	19	12.3	21.8	1.0	1	0.807	0.001	L	30	12.3	309.028	311.260	312.067	312.070	0
2	22071908	100	High	1.5	Vague	2	32	33	5	12.0	21.8	2.4	5	32	33	2.4	12.0	21.8	2	0.674	0.000	R	33	21.8	312.572	315.545	316.219	316.222	0
2	22071908	101	High	1.5	Precise	1	36	34	20	12.0	14.0	0.5	36	20	34	12.0	0.5	14.0	1	0.969	0.000	L	36	12.0	316.724	317.826	318.795	318.798	0
2	22071908	102	High	1.5	Precise	1	32	34	31	12.0	14.0	8.5	31	32	34	8.5	12.0	14.0	1	0.821	0.000	D	32	12.0	319.300	321.190	322.011	322.014	0
2	22071908	103	High	1.5	Vague	2	26	30	4	11.3	12.3	7.6	26	4	30	11.3	7.6	12.3	2	0.743	0.000	R	30	12.3	322.516	324.372	325.115	325.118	0
2	22071908	104	High	1.5	Precise	1	36	30	29	12.0	12.3	10.8	30	29	36	12.3	10.8	12.0	2	0.578	0.000	L	30	12.3	325.620	328.025	328.603	328.606	0
2	22071908	105	High	1.5	Precise	1	26	36	19	11.3	12.0	1.0	36	19	26	12.0	1.0	11.3	2	1.049	0.001	L	36	12.0	329.109	330.683	331.732	331.735	0
2	22071908	106	High	1.5	Vague	2	36	30	5	12.0	12.3	2.4	5	30	36	2.4	12.3	12.0	3	1.151	0.000	L	5	2.4	332.237	335.085	336.235	336.238	0
2	22071908	107	High	1.5	Vague	2	26	32	1	11.3	12.0	1.0	1	32	26	1.0	12.0	11.3	3	1.375	0.001	L	1	1.0	336.741	337.477	338.852	338.854	0
2	22071908	108	High	1.5	Vague	2	26	33	13	11.3	21.8	5.0	26	13	33	11.3	5.0	21.8	2	0.688	0.000	R	33	21.8	339.357	339.884	340.572	340.574	0
2	22071908	109	High	1.5	Precise	1	26	33	31	11.3	21.8	8.5	33	26	31	21.8	11.3	8.5	2	0.464	0.000	L	33	21.8	341.077	343.555	344.019	344.022	0
2	22071908	110	High	1.5	Precise	1	36	34	22	12.0	14.0	7.7	22	36	34	7.7	12.0	14.0	3	0.843	0.000	L	22	7.7	344.525	345.320	346.163	346.166	0
2	22071908	111	High	1.5	Vague	2	34	33	13	14.0	21.8	5.0	33	13	34	21.8	5.0	14.0	2	0.593	0.000	L	33	21.8	346.668	348.939	349.531	349.534	0
2	22071908	112	High	1.5	Vague	2	26	33	9	11.3	21.8	10.2	9	26	33	10.2	11.3	21.8	3	0.834	0.000	L	9	10.2	350.036	350.601	351.435	351.438	0
2	22071908	113	High	1.5	Vague	2	30	34	4	12.3	14.0	7.6	34	4	30	14.0	7.6	12.3	1	0.537	0.000	R	30	12.3	351.940	354.738	355.275	355.278	0
2	22071908	114	High	1.5	Vague	2	26	34	13	11.3	14.0	5.0	34	13	26	14.0	5.0	11.3	NaN	NaN	NaN	NaN	NaN	NaN	355.780	356.522	NaN	358.012	1
2	22071908	115	High	1.5	Precise	1	34	33	20	14.0	21.8	0.5	34	33	20	14.0	21.8	0.5	3	0.693	0.000	R	20	0.5	360.016	361.542	362.235	362.239	0
2	22071908	116	High	1.5	Vague	2	26	30	5	11.3	12.3	2.4	5	26	30	2.4	11.3	12.3	2	0.987	0.001	R	30	12.3	362.742	365.600	366.587	366.590	0
2	22071908	117	High	1.5	Vague	2	26	30	9	11.3	12.3	10.2	26	30	9	11.3	12.3	10.2	2	0.619	0.000	D	30	12.3	367.093	369.792	370.411	370.414	0
2	22071908	118	High	1.5	Precise	1	26	36	29	11.3	12.0	10.8	36	29	26	12.0	10.8	11.3	2	0.564	0.000	L	36	12.0	370.916	372.791	373.355	373.358	0
2	22071908	119	High	1.5	Precise	1	30	33	24	12.3	21.8	1.5	30	33	24	12.3	21.8	1.5	1	0.873	0.000	L	30	12.3	373.860	374.354	375.227	375.230	0
2	22071908	120	High	1.5	Vague	2	26	30	2	11.3	12.3	1.0	30	26	2	12.3	11.3	1.0	2	0.422	0.001	L	30	12.3	375.732	377.526	377.947	377.950	0
2	22071908	121	High	1.5	Precise	1	36	34	24	12.0	14.0	1.5	24	36	34	1.5	12.0	14.0	3	0.839	0.000	L	24	1.5	387.486	388.708	389.547	389.549	0
2	22071908	122	High	1.5	Precise	1	32	34	24	12.0	14.0	1.5	34	24	32	14.0	1.5	12.0	1	0.833	0.000	R	32	12.0	390.052	391.626	392.459	392.462	0
2	22071908	123	High	1.5	Vague	2	30	33	13	12.3	21.8	5.0	13	33	30	5.0	21.8	12.3	2	0.832	0.000	D	33	21.8	392.964	395.483	396.315	396.318	0
2	22071908	124	High	1.5	Precise	1	32	33	29	12.0	21.8	10.8	32	29	33	12.0	10.8	21.8	2	0.724	0.001	R	33	21.8	396.820	399.551	400.275	400.278	0
2	22071908	125	High	1.5	Vague	2	34	33	5	14.0	21.8	2.4	5	33	34	2.4	21.8	14.0	3	0.731	0.000	L	5	2.4	400.780	403.617	404.347	404.350	0
2	22071908	126	High	1.5	Precise	1	26	32	22	11.3	12.0	7.7	26	22	32	11.3	7.7	12.0	3	1.019	0.001	D	22	7.7	404.853	407.225	408.243	408.246	0
2	22071908	127	High	1.5	Vague	2	32	36	5	12.0	12.0	2.4	32	36	5	12.0	12.0	2.4	3	0.733	0.001	R	5	2.4	408.748	411.479	412.211	412.214	0
2	22071908	128	High	1.5	Vague	2	32	36	1	12.0	12.0	1.0	32	36	1	12.0	12.0	1.0	1	0.641	0.000	L	32	12.0	412.717	414.866	415.507	415.509	0
2	22071908	129	High	1.5	Vague	2	30	33	2	12.3	21.8	1.0	33	2	30	21.8	1.0	12.3	1	0.547	0.000	R	30	12.3	416.012	417.720	418.267	418.269	0
2	22071908	130	High	1.5	Precise	1	36	33	19	12.0	21.8	1.0	19	33	36	1.0	21.8	12.0	2	0.961	0.000	D	33	21.8	418.773	419.458	420.419	420.421	0
2	22071908	131	High	1.5	Vague	2	26	36	4	11.3	12.0	7.6	4	26	36	7.6	11.3	12.0	2	0.824	0.000	R	36	12.0	420.924	422.523	423.347	423.350	0
2	22071908	132	High	1.5	Precise	1	26	34	29	11.3	14.0	10.8	34	26	29	14.0	11.3	10.8	3	0.893	0.001	R	29	10.8	423.852	426.014	426.907	426.910	0
2	22071908	133	High	1.5	Vague	2	36	34	9	12.0	14.0	10.2	36	34	9	12.0	14.0	10.2	1	0.823	0.000	L	36	12.0	427.413	429.404	430.227	430.230	0
2	22071908	134	High	1.5	Vague	2	26	34	5	11.3	14.0	2.4	34	26	5	14.0	11.3	2.4	3	0.558	0.000	R	5	2.4	430.733	431.709	432.267	432.270	0
2	22071908	135	High	1.5	Precise	1	36	30	22	12.0	12.3	7.7	36	30	22	12.0	12.3	7.7	1	0.559	0.000	L	36	12.0	432.772	435.644	436.203	436.206	0
2	22071908	136	High	1.5	Precise	1	32	30	24	12.0	12.3	1.5	24	32	30	1.5	12.0	12.3	2	0.498	0.001	R	30	12.3	436.708	438.610	439.107	439.110	0
2	22071908	137	High	1.5	Vague	2	32	33	2	12.0	21.8	1.0	33	2	32	21.8	1.0	12.0	2	0.577	0.000	L	33	21.8	439.613	441.514	442.091	442.094	0
2	22071908	138	High	1.5	Precise	1	26	33	20	11.3	21.8	0.5	33	20	26	21.8	0.5	11.3	2	0.512	0.001	L	33	21.8	442.596	444.651	445.163	445.166	0
2	22071908	139	High	1.5	Precise	1	32	34	22	12.0	14.0	7.7	32	22	34	12.0	7.7	14.0	1	0.504	0.000	L	32	12.0	445.669	448.171	448.675	448.678	0
2	22071908	140	High	1.5	Vague	2	30	33	1	12.3	21.8	1.0	1	33	30	1.0	21.8	12.3	1	0.651	0.000	R	30	12.3	449.181	451.585	452.235	452.238	0
2	22071908	141	High	1.5	Precise	1	32	36	22	12.0	12.0	7.7	22	36	32	7.7	12.0	12.0	1	0.795	0.000	R	32	12.0	452.741	454.169	454.963	454.966	0
2	22071908	142	High	1.5	Vague	2	30	33	5	12.3	21.8	2.4	5	30	33	2.4	12.3	21.8	3	0.653	0.000	L	5	2.4	455.469	458.462	459.115	459.118	0
2	22071908	143	High	1.5	Vague	2	32	34	13	12.0	14.0	5.0	13	32	34	5.0	12.0	14.0	2	0.539	0.000	R	34	14.0	459.620	460.904	461.443	461.446	0
2	22071908	144	High	1.5	Precise	1	30	34	20	12.3	14.0	0.5	20	30	34	0.5	12.3	14.0	2	0.615	0.000	R	34	14.0	461.948	464.620	465.235	465.237	0
2	22071908	145	High	1.5	Precise	1	36	30	24	12.0	12.3	1.5	30	36	24	12.3	12.0	1.5	2	0.618	0.001	L	30	12.3	465.740	467.569	468.187	468.190	0
2	22071908	146	High	1.5	Vague	2	36	34	5	12.0	14.0	2.4	36	34	5	12.0	14.0	2.4	1	0.573	0.001	L	36	12.0	468.692	469.670	470.243	470.246	0
2	22071908	147	High	1.5	Vague	2	36	30	13	12.0	12.3	5.0	36	13	30	12.0	5.0	12.3	2	0.671	0.001	R	30	12.3	470.748	473.493	474.163	474.166	0
2	22071908	148	High	1.5	Vague	2	26	34	2	11.3	14.0	1.0	2	34	26	1.0	14.0	11.3	3	0.999	0.000	L	2	1.0	474.668	475.620	476.619	476.622	0
2	22071908	149	High	1.5	Vague	2	36	34	13	12.0	14.0	5.0	13	34	36	5.0	14.0	12.0	1	0.702	0.000	R	36	12.0	477.124	478.478	479.179	479.182	0
2	22071908	150	High	1.5	Vague	2	32	30	4	12.0	12.3	7.6	32	4	30	12.0	7.6	12.3	2	0.592	0.001	R	30	12.3	479.684	482.123	482.715	482.718	0
2	22071908	151	High	1.5	Vague	2	26	30	1	11.3	12.3	1.0	30	1	26	12.3	1.0	11.3	2	0.487	0.000	L	30	12.3	483.220	486.101	486.587	486.590	0
2	22071908	152	High	1.5	Vague	2	36	33	5	12.0	21.8	2.4	5	33	36	2.4	21.8	12.0	2	0.909	0.000	D	33	21.8	487.092	487.878	488.787	488.790	0
2	22071908	153	High	1.5	Precise	1	36	34	29	12.0	14.0	10.8	36	34	29	12.0	14.0	10.8	1	0.612	0.001	L	36	12.0	489.292	491.319	491.931	491.934	0
2	22071908	154	High	1.5	Vague	2	26	32	4	11.3	12.0	7.6	4	26	32	7.6	11.3	12.0	2	0.695	0.000	R	32	12.0	492.436	492.949	493.643	493.646	0
2	22071908	155	High	1.5	Vague	2	36	33	2	12.0	21.8	1.0	36	33	2	12.0	21.8	1.0	1	0.724	0.000	L	36	12.0	494.148	496.039	496.763	496.765	0
2	22071908	156	High	1.5	Precise	1	26	34	31	11.3	14.0	8.5	26	31	34	11.3	8.5	14.0	1	0.838	0.000	L	26	11.3	497.268	497.909	498.747	498.750	0
2	22071908	157	High	1.5	Vague	2	36	34	2	12.0	14.0	1.0	36	34	2	12.0	14.0	1.0	1	0.642	0.001	L	36	12.0	499.252	502.130	502.771	502.774	0
2	22071908	158	High	1.5	Vague	2	36	33	1	12.0	21.8	1.0	33	1	36	21.8	1.0	12.0	2	0.601	0.000	L	33	21.8	503.277	505.858	506.459	506.462	0
2	22071908	159	High	1.5	Precise	1	36	34	19	12.0	14.0	1.0	34	19	36	14.0	1.0	12.0	1	0.699	0.000	R	36	12.0	506.964	507.936	508.635	508.638	0
2	22071908	160	High	1.5	Vague	2	32	33	4	12.0	21.8	7.6	32	4	33	12.0	7.6	21.8	2	0.762	0.000	R	33	21.8	509.141	511.017	511.779	511.781	0
2	22071908	161	High	1.5	Precise	1	30	33	31	12.3	21.8	8.5	33	30	31	21.8	12.3	8.5	2	0.589	0.000	L	33	21.8	512.285	513.718	514.307	514.309	0
2	22071908	162	High	1.5	Precise	1	36	33	22	12.0	21.8	7.7	33	22	36	21.8	7.7	12.0	2	0.671	0.000	L	33	21.8	514.812	515.532	516.203	516.205	0
2	22071908	163	High	1.5	Vague	2	32	30	5	12.0	12.3	2.4	5	30	32	2.4	12.3	12.0	2	0.859	0.000	D	30	12.3	516.708	518.369	519.227	519.230	0
2	22071908	164	High	1.5	Precise	1	26	32	24	11.3	12.0	1.5	24	32	26	1.5	12.0	11.3	1	1.322	0.001	R	26	11.3	519.732	521.145	522.467	522.470	0
2	22071908	165	High	1.5	Vague	2	32	30	13	12.0	12.3	5.0	30	13	32	12.3	5.0	12.0	2	0.544	0.000	L	30	12.3	522.973	524.571	525.115	525.118	0
2	22071908	166	High	1.5	Vague	2	26	33	5	11.3	21.8	2.4	33	5	26	21.8	2.4	11.3	2	0.606	0.000	L	33	21.8	525.620	527.308	527.915	527.917	0
2	22071908	167	High	1.5	Vague	2	26	32	5	11.3	12.0	2.4	5	26	32	2.4	11.3	12.0	2	0.791	0.001	R	32	12.0	528.420	531.037	531.827	531.830	0
2	22071908	168	High	1.5	Precise	1	32	33	20	12.0	21.8	0.5	20	33	32	0.5	21.8	12.0	2	0.771	0.000	D	33	21.8	532.332	534.080	534.851	534.853	0
2	22071908	169	High	1.5	Vague	2	30	34	13	12.3	14.0	5.0	34	13	30	14.0	5.0	12.3	1	0.754	0.000	R	30	12.3	535.356	536.393	537.147	537.149	0
2	22071908	170	High	1.5	Precise	1	36	33	24	12.0	21.8	1.5	36	33	24	12.0	21.8	1.5	2	0.647	0.000	D	33	21.8	537.652	539.124	539.771	539.774	0
2	22071908	171	High	1.5	Vague	2	36	30	1	12.0	12.3	1.0	1	30	36	1.0	12.3	12.0	2	0.680	0.000	D	30	12.3	540.276	542.475	543.155	543.158	0
2	22071908	172	High	1.5	Precise	1	32	34	20	12.0	14.0	0.5	32	20	34	12.0	0.5	14.0	1	0.908	0.001	L	32	12.0	543.661	546.455	547.363	547.366	0
2	22071908	173	High	1.5	Precise	1	30	34	22	12.3	14.0	7.7	34	22	30	14.0	7.7	12.3	1	0.597	0.000	R	30	12.3	547.869	548.982	549.579	549.582	0
2	22071908	174	High	1.5	Precise	1	26	33	19	11.3	21.8	1.0	26	19	33	11.3	1.0	21.8	2	0.676	0.001	R	33	21.8	550.085	551.560	552.235	552.238	0
2	22071908	175	High	1.5	Precise	1	32	36	19	12.0	12.0	1.0	19	36	32	1.0	12.0	12.0	1	1.431	0.000	R	32	12.0	552.740	553.460	554.891	554.893	0
2	22071908	176	High	1.5	Vague	2	36	33	4	12.0	21.8	7.6	36	4	33	12.0	7.6	21.8	2	0.682	0.000	R	33	21.8	555.396	557.577	558.259	558.262	0
2	22071908	177	High	1.5	Precise	1	36	33	20	12.0	21.8	0.5	20	33	36	0.5	21.8	12.0	2	0.634	0.001	D	33	21.8	558.765	561.281	561.915	561.918	0
2	22071908	178	High	1.5	Vague	2	26	32	13	11.3	12.0	5.0	26	13	32	11.3	5.0	12.0	2	1.367	0.001	R	32	12.0	562.420	564.028	565.395	565.398	0
2	22071908	179	High	1.5	Vague	2	32	34	1	12.0	14.0	1.0	1	32	34	1.0	12.0	14.0	1	1.466	0.000	D	32	12.0	565.900	568.544	570.011	570.013	0
2	22071908	180	High	1.5	Vague	2	32	36	9	12.0	12.0	10.2	36	9	32	12.0	10.2	12.0	2	0.870	0.001	L	36	12.0	570.516	572.397	573.267	573.270	0
2	22071908	181	Low	10.0	Vague	2	34	33	8	14.0	21.8	10.6	8	33	34	10.6	21.8	14.0	2	0.636	0.001	D	33	21.8	587.019	587.992	588.627	588.630	0
2	22071908	182	Low	10.0	Vague	2	26	32	11	11.3	12.0	6.3	26	32	11	11.3	12.0	6.3	3	1.109	0.000	R	11	6.3	589.132	591.790	592.899	592.901	0
2	22071908	183	Low	10.0	Precise	1	30	33	27	12.3	21.8	11.2	30	33	27	12.3	21.8	11.2	1	0.549	0.000	L	30	12.3	593.404	595.630	596.179	596.181	0
2	22071908	184	Low	10.0	Vague	2	34	33	3	14.0	21.8	1.0	3	33	34	1.0	21.8	14.0	2	0.666	0.000	D	33	21.8	596.684	598.569	599.235	599.237	0
2	22071908	185	Low	10.0	Precise	1	26	32	23	11.3	12.0	1.0	26	32	23	11.3	12.0	1.0	2	1.133	0.000	D	32	12.0	599.740	600.999	602.131	602.133	0
2	22071908	186	Low	10.0	Precise	1	36	30	21	12.0	12.3	0.9	30	36	21	12.3	12.0	0.9	2	0.532	0.000	L	30	12.3	602.636	603.535	604.067	604.070	0
2	22071908	187	Low	10.0	Vague	2	36	33	6	12.0	21.8	2.5	36	6	33	12.0	2.5	21.8	1	0.466	0.001	L	36	12.0	604.572	605.745	606.211	606.214	0
2	22071908	188	Low	10.0	Vague	2	36	33	10	12.0	21.8	10.1	10	33	36	10.1	21.8	12.0	2	0.717	0.000	D	33	21.8	606.717	608.599	609.315	609.317	0
2	22071908	189	Low	10.0	Vague	2	32	30	8	12.0	12.3	10.6	8	30	32	10.6	12.3	12.0	2	0.917	0.000	D	30	12.3	609.820	611.286	612.203	612.205	0
2	22071908	190	Low	10.0	Vague	2	26	30	11	11.3	12.3	6.3	30	26	11	12.3	11.3	6.3	2	0.522	0.000	L	30	12.3	612.708	613.465	613.987	613.990	0
2	22071908	191	Low	10.0	Vague	2	32	36	8	12.0	12.0	10.6	8	32	36	10.6	12.0	12.0	1	0.591	0.000	D	32	12.0	614.493	616.220	616.811	616.813	0
2	22071908	192	Low	10.0	Precise	1	26	30	35	11.3	12.3	6.6	30	35	26	12.3	6.6	11.3	2	0.510	0.001	L	30	12.3	617.316	618.453	618.963	618.965	0
2	22071908	193	Low	10.0	Vague	2	30	33	3	12.3	21.8	1.0	30	3	33	12.3	1.0	21.8	1	0.563	0.000	L	30	12.3	619.468	621.991	622.555	622.557	0
2	22071908	194	Low	10.0	Precise	1	32	34	35	12.0	14.0	6.6	35	32	34	6.6	12.0	14.0	1	0.601	0.001	D	32	12.0	623.060	626.002	626.603	626.606	0
2	22071908	195	Low	10.0	Precise	1	32	34	28	12.0	14.0	8.3	28	34	32	8.3	14.0	12.0	1	0.859	0.001	R	32	12.0	627.108	629.224	630.083	630.086	0
2	22071908	196	Low	10.0	Precise	1	36	34	23	12.0	14.0	1.0	36	34	23	12.0	14.0	1.0	1	0.764	0.000	L	36	12.0	630.588	632.375	633.139	633.142	0
2	22071908	197	Low	10.0	Vague	2	26	32	10	11.3	12.0	10.1	32	10	26	12.0	10.1	11.3	2	0.622	0.000	L	32	12.0	633.645	635.501	636.123	636.125	0
2	22071908	198	Low	10.0	Precise	1	36	30	27	12.0	12.3	11.2	36	30	27	12.0	12.3	11.2	1	0.576	0.001	L	36	12.0	636.627	638.275	638.851	638.853	0
2	22071908	199	Low	10.0	Vague	2	30	33	6	12.3	21.8	2.5	30	6	33	12.3	2.5	21.8	1	0.577	0.000	L	30	12.3	639.356	641.426	642.003	642.006	0
2	22071908	200	Low	10.0	Vague	2	32	34	3	12.0	14.0	1.0	32	3	34	12.0	1.0	14.0	3	0.623	0.000	D	3	1.0	642.509	643.988	644.611	644.613	0
2	22071908	201	Low	10.0	Precise	1	36	34	25	12.0	14.0	10.7	25	36	34	10.7	12.0	14.0	3	1.273	0.000	L	25	10.7	645.116	645.778	647.051	647.053	0
2	22071908	202	Low	10.0	Vague	2	32	34	8	12.0	14.0	10.6	34	32	8	14.0	12.0	10.6	1	1.446	0.000	D	32	12.0	647.556	648.109	649.555	649.558	0
2	22071908	203	Low	10.0	Vague	2	36	33	3	12.0	21.8	1.0	36	3	33	12.0	1.0	21.8	2	0.961	0.000	R	33	21.8	650.060	651.386	652.347	652.349	0
2	22071908	204	Low	10.0	Vague	2	30	34	8	12.3	14.0	10.6	8	30	34	10.6	12.3	14.0	2	0.718	0.000	R	34	14.0	652.852	655.373	656.091	656.093	0
2	22071908	205	Low	10.0	Vague	2	26	34	10	11.3	14.0	10.1	10	34	26	10.1	14.0	11.3	3	1.204	0.000	L	10	10.1	656.596	658.248	659.451	659.453	0
2	22071908	206	Low	10.0	Vague	2	26	32	7	11.3	12.0	2.1	32	7	26	12.0	2.1	11.3	2	0.776	0.000	L	32	12.0	659.956	660.691	661.467	661.469	0
2	22071908	207	Low	10.0	Precise	1	30	33	23	12.3	21.8	1.0	30	23	33	12.3	1.0	21.8	1	0.555	0.000	L	30	12.3	661.972	662.880	663.435	663.437	0
2	22071908	208	Low	10.0	Vague	2	26	32	3	11.3	12.0	1.0	26	3	32	11.3	1.0	12.0	2	0.825	0.001	R	32	12.0	663.940	666.306	667.131	667.134	0
2	22071908	209	Low	10.0	Vague	2	26	33	10	11.3	21.8	10.1	10	26	33	10.1	11.3	21.8	2	0.654	0.000	R	33	21.8	667.636	668.645	669.299	669.302	0
2	22071908	210	Low	10.0	Precise	1	26	33	27	11.3	21.8	11.2	27	26	33	11.2	11.3	21.8	2	0.667	0.000	R	33	21.8	669.804	672.088	672.755	672.757	0
2	22071908	211	Low	10.0	Precise	1	26	30	27	11.3	12.3	11.2	27	26	30	11.2	11.3	12.3	2	0.703	0.000	R	30	12.3	673.260	675.844	676.547	676.549	0
2	22071908	212	Low	10.0	Precise	1	36	33	28	12.0	21.8	8.3	36	33	28	12.0	21.8	8.3	2	0.649	0.000	D	33	21.8	677.052	678.162	678.811	678.813	0
2	22071908	213	Low	10.0	Vague	2	34	33	11	14.0	21.8	6.3	11	34	33	6.3	14.0	21.8	2	0.848	0.000	R	33	21.8	679.316	681.859	682.707	682.709	0
2	22071908	214	Low	10.0	Precise	1	36	34	27	12.0	14.0	11.2	27	34	36	11.2	14.0	12.0	1	0.914	0.001	R	36	12.0	683.212	685.233	686.147	686.149	0
2	22071908	215	Low	10.0	Vague	2	34	33	6	14.0	21.8	2.5	6	34	33	2.5	14.0	21.8	2	0.544	0.000	R	33	21.8	686.652	688.451	688.995	688.997	0
2	22071908	216	Low	10.0	Vague	2	32	34	10	12.0	14.0	10.1	34	32	10	14.0	12.0	10.1	1	0.660	0.000	D	32	12.0	689.500	691.239	691.899	691.901	0
2	22071908	217	Low	10.0	Precise	1	34	33	25	14.0	21.8	10.7	34	33	25	14.0	21.8	10.7	2	0.790	0.000	D	33	21.8	692.404	693.485	694.275	694.277	0
2	22071908	218	Low	10.0	Precise	1	32	36	23	12.0	12.0	1.0	32	36	23	12.0	12.0	1.0	1	0.570	0.000	L	32	12.0	694.780	697.033	697.603	697.605	0
2	22071908	219	Low	10.0	Precise	1	36	30	28	12.0	12.3	8.3	30	28	36	12.3	8.3	12.0	2	0.501	0.000	L	30	12.3	698.108	700.846	701.347	701.349	0
2	22071908	220	Low	10.0	Vague	2	26	33	8	11.3	21.8	10.6	33	26	8	21.8	11.3	10.6	2	0.477	0.000	L	33	21.8	701.852	704.502	704.979	704.982	0
2	22071908	221	Low	10.0	Vague	2	36	30	8	12.0	12.3	10.6	36	30	8	12.0	12.3	10.6	2	0.597	0.000	D	30	12.3	705.484	706.966	707.563	707.565	0
2	22071908	222	Low	10.0	Vague	2	36	34	3	12.0	14.0	1.0	36	34	3	12.0	14.0	1.0	1	0.520	0.000	L	36	12.0	708.068	709.818	710.339	710.342	0
2	22071908	223	Low	10.0	Precise	1	32	34	27	12.0	14.0	11.2	34	27	32	14.0	11.2	12.0	1	0.614	0.000	R	32	12.0	710.844	713.677	714.291	714.293	0
2	22071908	224	Low	10.0	Precise	1	26	34	27	11.3	14.0	11.2	26	34	27	11.3	14.0	11.2	3	0.899	0.000	R	27	11.2	714.796	716.432	717.331	717.333	0
2	22071908	225	Low	10.0	Precise	1	36	33	21	12.0	21.8	0.9	36	21	33	12.0	0.9	21.8	2	0.678	0.000	R	33	21.8	717.836	719.989	720.667	720.669	0
2	22071908	226	Low	10.0	Vague	2	26	33	6	11.3	21.8	2.5	33	26	6	21.8	11.3	2.5	2	0.514	0.001	L	33	21.8	721.172	723.689	724.203	724.205	0
2	22071908	227	Low	10.0	Vague	2	32	33	11	12.0	21.8	6.3	33	32	11	21.8	12.0	6.3	2	0.637	0.000	L	33	21.8	724.708	726.446	727.083	727.085	0
2	22071908	228	Low	10.0	Vague	2	32	30	6	12.0	12.3	2.5	32	30	6	12.0	12.3	2.5	3	1.300	0.000	R	6	2.5	727.588	728.839	730.139	730.141	0
2	22071908	229	Low	10.0	Precise	1	26	30	21	11.3	12.3	0.9	26	30	21	11.3	12.3	0.9	2	0.790	0.001	D	30	12.3	730.644	731.725	732.515	732.517	0
2	22071908	230	Low	10.0	Precise	1	26	34	25	11.3	14.0	10.7	25	34	26	10.7	14.0	11.3	3	0.594	0.001	L	25	10.7	733.020	734.113	734.707	734.709	0
2	22071908	231	Low	10.0	Precise	1	26	36	23	11.3	12.0	1.0	36	23	26	12.0	1.0	11.3	2	0.703	0.000	L	36	12.0	735.212	738.196	738.899	738.901	0
2	22071908	232	Low	10.0	Precise	1	36	33	25	12.0	21.8	10.7	33	25	36	21.8	10.7	12.0	2	0.489	0.001	L	33	21.8	739.404	741.954	742.443	742.445	0
2	22071908	233	Low	10.0	Precise	1	30	34	27	12.3	14.0	11.2	27	34	30	11.2	14.0	12.3	1	0.573	0.000	R	30	12.3	742.948	743.934	744.507	744.509	0
2	22071908	234	Low	10.0	Precise	1	30	34	23	12.3	14.0	1.0	34	30	23	14.0	12.3	1.0	1	0.701	0.001	D	30	12.3	745.012	747.454	748.155	748.157	0
2	22071908	235	Low	10.0	Vague	2	36	34	8	12.0	14.0	10.6	8	34	36	10.6	14.0	12.0	1	0.603	0.001	R	36	12.0	748.660	749.560	750.163	750.165	0
2	22071908	236	Low	10.0	Vague	2	34	33	10	14.0	21.8	10.1	33	34	10	21.8	14.0	10.1	2	0.529	0.000	L	33	21.8	750.668	751.650	752.179	752.181	0
2	22071908	237	Low	10.0	Vague	2	30	34	3	12.3	14.0	1.0	34	3	30	14.0	1.0	12.3	3	0.633	0.001	D	3	1.0	752.684	755.178	755.811	755.813	0
2	22071908	238	Low	10.0	Precise	1	26	34	35	11.3	14.0	6.6	26	35	34	11.3	6.6	14.0	2	0.759	0.000	R	34	14.0	756.316	757.220	757.979	757.981	0
2	22071908	239	Low	10.0	Precise	1	32	36	25	12.0	12.0	10.7	32	36	25	12.0	12.0	10.7	1	0.604	0.000	L	32	12.0	758.484	759.151	759.755	759.757	0
2	22071908	240	Low	10.0	Vague	2	32	33	3	12.0	21.8	1.0	3	33	32	1.0	21.8	12.0	1	0.754	0.000	R	32	12.0	760.259	761.977	762.731	762.733	0
2	22071908	241	Low	10.0	Vague	2	26	32	6	11.3	12.0	2.5	6	32	26	2.5	12.0	11.3	2	0.917	0.001	D	32	12.0	771.372	773.542	774.459	774.461	0
2	22071908	242	Low	10.0	Vague	2	30	34	7	12.3	14.0	2.1	30	7	34	12.3	2.1	14.0	1	0.574	0.000	L	30	12.3	774.964	776.605	777.179	777.181	0
2	22071908	243	Low	10.0	Precise	1	32	33	25	12.0	21.8	10.7	25	33	32	10.7	21.8	12.0	2	0.835	0.000	D	33	21.8	777.683	778.824	779.659	779.661	0
2	22071908	244	Low	10.0	Precise	1	32	34	25	12.0	14.0	10.7	25	34	32	10.7	14.0	12.0	3	0.721	0.000	L	25	10.7	780.164	781.793	782.515	782.517	0
2	22071908	245	Low	10.0	Vague	2	30	34	10	12.3	14.0	10.1	34	10	30	14.0	10.1	12.3	1	0.608	0.000	R	30	12.3	783.020	785.763	786.371	786.373	0
2	22071908	246	Low	10.0	Vague	2	30	33	8	12.3	21.8	10.6	30	33	8	12.3	21.8	10.6	1	0.525	0.000	L	30	12.3	786.876	788.958	789.483	789.485	0
2	22071908	247	Low	10.0	Vague	2	30	33	7	12.3	21.8	2.1	33	30	7	21.8	12.3	2.1	2	0.751	0.000	L	33	21.8	789.988	790.860	791.611	791.614	0
2	22071908	248	Low	10.0	Precise	1	26	33	25	11.3	21.8	10.7	25	26	33	10.7	11.3	21.8	2	0.533	0.000	R	33	21.8	792.116	794.654	795.187	795.189	0
2	22071908	249	Low	10.0	Vague	2	36	30	11	12.0	12.3	6.3	36	11	30	12.0	6.3	12.3	2	0.718	0.000	R	30	12.3	795.692	798.292	799.011	799.013	0
2	22071908	250	Low	10.0	Vague	2	26	30	8	11.3	12.3	10.6	8	26	30	10.6	11.3	12.3	2	0.501	0.000	R	30	12.3	799.515	801.158	801.659	801.661	0
2	22071908	251	Low	10.0	Vague	2	32	30	10	12.0	12.3	10.1	10	32	30	10.1	12.0	12.3	2	0.498	0.000	R	30	12.3	802.163	804.073	804.571	804.573	0
2	22071908	252	Low	10.0	Precise	1	26	34	28	11.3	14.0	8.3	26	28	34	11.3	8.3	14.0	3	0.991	0.000	D	28	8.3	805.076	808.052	809.043	809.045	0
2	22071908	253	Low	10.0	Precise	1	26	36	35	11.3	12.0	6.6	36	35	26	12.0	6.6	11.3	2	0.600	0.000	L	36	12.0	809.548	811.603	812.203	812.207	0
2	22071908	254	Low	10.0	Vague	2	26	34	6	11.3	14.0	2.5	34	26	6	14.0	11.3	2.5	2	1.474	0.000	L	34	14.0	812.710	813.593	815.067	815.069	0
2	22071908	255	Low	10.0	Vague	2	32	36	3	12.0	12.0	1.0	3	36	32	1.0	12.0	12.0	1	1.007	0.000	R	32	12.0	815.572	816.491	817.499	817.501	0
2	22071908	256	Low	10.0	Precise	1	34	33	23	14.0	21.8	1.0	23	34	33	1.0	14.0	21.8	2	0.790	0.000	R	33	21.8	818.004	819.733	820.523	820.525	0
2	22071908	257	Low	10.0	Vague	2	26	34	7	11.3	14.0	2.1	34	26	7	14.0	11.3	2.1	3	0.811	0.000	R	7	2.1	821.027	822.199	823.011	823.013	0
2	22071908	258	Low	10.0	Precise	1	34	33	28	14.0	21.8	8.3	33	28	34	21.8	8.3	14.0	2	0.828	0.000	L	33	21.8	823.515	824.031	824.859	824.861	0
2	22071908	259	Low	10.0	Precise	1	26	32	25	11.3	12.0	10.7	25	26	32	10.7	11.3	12.0	3	0.610	0.000	L	25	10.7	825.364	827.225	827.835	827.837	0
2	22071908	260	Low	10.0	Precise	1	32	30	35	12.0	12.3	6.6	35	30	32	6.6	12.3	12.0	1	0.859	0.000	R	32	12.0	828.340	831.151	832.011	832.013	0
2	22071908	261	Low	10.0	Precise	1	26	36	21	11.3	12.0	0.9	36	21	26	12.0	0.9	11.3	2	0.833	0.000	L	36	12.0	832.516	834.130	834.963	834.966	0
2	22071908	262	Low	10.0	Precise	1	36	33	23	12.0	21.8	1.0	33	36	23	21.8	12.0	1.0	2	0.676	0.000	L	33	21.8	835.468	836.239	836.915	836.917	0
2	22071908	263	Low	10.0	Vague	2	32	33	7	12.0	21.8	2.1	33	7	32	21.8	2.1	12.0	2	0.592	0.000	L	33	21.8	837.419	839.002	839.595	839.597	0
2	22071908	264	Low	10.0	Vague	2	36	30	7	12.0	12.3	2.1	36	30	7	12.0	12.3	2.1	2	1.464	0.000	D	30	12.3	840.101	840.627	842.091	842.093	0
2	22071908	265	Low	10.0	Precise	1	26	34	23	11.3	14.0	1.0	23	26	34	1.0	11.3	14.0	1	1.063	0.000	D	26	11.3	842.596	845.044	846.107	846.109	0
2	22071908	266	Low	10.0	Vague	2	26	36	11	11.3	12.0	6.3	11	26	36	6.3	11.3	12.0	2	1.128	0.001	R	36	12.0	846.612	847.147	848.275	848.277	0
2	22071908	267	Low	10.0	Precise	1	32	36	27	12.0	12.0	11.2	27	32	36	11.2	12.0	12.0	1	0.878	0.000	D	32	12.0	848.781	851.557	852.435	852.437	0
2	22071908	268	Low	10.0	Vague	2	36	34	11	12.0	14.0	6.3	11	36	34	6.3	12.0	14.0	1	1.029	0.001	D	36	12.0	852.940	855.318	856.347	856.349	0
2	22071908	269	Low	10.0	Precise	1	34	33	27	14.0	21.8	11.2	27	34	33	11.2	14.0	21.8	2	0.715	0.000	R	33	21.8	856.852	858.639	859.355	859.357	0
2	22071908	270	Low	10.0	Vague	2	26	30	3	11.3	12.3	1.0	3	30	26	1.0	12.3	11.3	2	0.889	0.000	D	30	12.3	859.859	862.042	862.931	862.933	0
2	22071908	271	Low	10.0	Precise	1	32	36	28	12.0	12.0	8.3	32	36	28	12.0	12.0	8.3	1	0.894	0.000	L	32	12.0	863.435	864.069	864.963	864.965	0
2	22071908	272	Low	10.0	Precise	1	30	34	28	12.3	14.0	8.3	34	28	30	14.0	8.3	12.3	1	0.597	0.000	R	30	12.3	865.467	866.294	866.891	866.893	0
2	22071908	273	Low	10.0	Precise	1	26	36	28	11.3	12.0	8.3	26	28	36	11.3	8.3	12.0	2	0.629	0.000	R	36	12.0	867.396	868.526	869.155	869.157	0
2	22071908	274	Low	10.0	Precise	1	32	30	23	12.0	12.3	1.0	23	32	30	1.0	12.0	12.3	2	0.588	0.000	R	30	12.3	869.659	871.759	872.347	872.349	0
2	22071908	275	Low	10.0	Vague	2	32	36	10	12.0	12.0	10.1	36	32	10	12.0	12.0	10.1	2	0.977	0.000	L	36	12.0	872.852	875.385	876.363	876.365	0
2	22071908	276	Low	10.0	Precise	1	30	34	21	12.3	14.0	0.9	21	30	34	0.9	12.3	14.0	1	1.169	0.001	D	30	12.3	876.868	877.442	878.611	878.613	0
2	22071908	277	Low	10.0	Precise	1	30	34	25	12.3	14.0	10.7	30	34	25	12.3	14.0	10.7	1	0.690	0.000	L	30	12.3	879.116	880.105	880.795	880.797	0
2	22071908	278	Low	10.0	Vague	2	26	33	3	11.3	21.8	1.0	33	3	26	21.8	1.0	11.3	2	0.709	0.000	L	33	21.8	881.300	882.981	883.691	883.693	0
2	22071908	279	Low	10.0	Precise	1	30	34	35	12.3	14.0	6.6	34	30	35	14.0	12.3	6.6	1	0.685	0.000	D	30	12.3	884.195	884.774	885.459	885.461	0
2	22071908	280	Low	10.0	Precise	1	36	33	27	12.0	21.8	11.2	33	27	36	21.8	11.2	12.0	2	0.652	0.000	L	33	21.8	885.964	886.463	887.115	887.117	0
2	22071908	281	Low	10.0	Precise	1	36	34	35	12.0	14.0	6.6	34	35	36	14.0	6.6	12.0	1	0.635	0.000	R	36	12.0	887.620	890.264	890.899	890.901	0
2	22071908	282	Low	10.0	Vague	2	26	36	10	11.3	12.0	10.1	36	26	10	12.0	11.3	10.1	2	0.596	0.000	L	36	12.0	891.404	892.718	893.315	893.317	0
2	22071908	283	Low	10.0	Vague	2	26	36	7	11.3	12.0	2.1	26	36	7	11.3	12.0	2.1	3	0.701	0.000	R	7	2.1	893.820	896.502	897.203	897.205	0
2	22071908	284	Low	10.0	Precise	1	32	33	23	12.0	21.8	1.0	33	23	32	21.8	1.0	12.0	2	0.660	0.001	L	33	21.8	897.708	900.199	900.859	900.861	0
2	22071908	285	Low	10.0	Precise	1	30	33	25	12.3	21.8	10.7	30	25	33	12.3	10.7	21.8	1	0.578	0.000	L	30	12.3	901.364	902.561	903.138	903.141	0
2	22071908	286	Low	10.0	Precise	1	26	36	25	11.3	12.0	10.7	36	25	26	12.0	10.7	11.3	2	0.664	0.000	L	36	12.0	903.643	904.843	905.507	905.509	0
2	22071908	287	Low	10.0	Vague	2	32	34	6	12.0	14.0	2.5	32	34	6	12.0	14.0	2.5	1	0.679	0.000	L	32	12.0	906.011	908.588	909.267	909.269	0
2	22071908	288	Low	10.0	Vague	2	32	34	7	12.0	14.0	2.1	34	32	7	14.0	12.0	2.1	2	0.858	0.000	L	34	14.0	909.771	912.033	912.890	912.893	0
2	22071908	289	Low	10.0	Vague	2	36	30	3	12.0	12.3	1.0	30	36	3	12.3	12.0	1.0	2	0.569	0.000	L	30	12.3	913.396	914.106	914.675	914.677	0
2	22071908	290	Low	10.0	Precise	1	26	34	21	11.3	14.0	0.9	26	21	34	11.3	0.9	14.0	1	0.850	0.001	L	26	11.3	915.181	918.089	918.939	918.941	0
2	22071908	291	Low	10.0	Vague	2	36	33	7	12.0	21.8	2.1	36	7	33	12.0	2.1	21.8	2	0.798	0.000	R	33	21.8	919.444	919.981	920.779	920.781	0
2	22071908	292	Low	10.0	Vague	2	26	30	7	11.3	12.3	2.1	30	7	26	12.3	2.1	11.3	2	0.700	0.000	L	30	12.3	921.284	922.639	923.339	923.341	0
2	22071908	293	Low	10.0	Precise	1	34	33	21	14.0	21.8	0.9	33	21	34	21.8	0.9	14.0	2	0.563	0.000	L	33	21.8	923.844	926.047	926.611	926.613	0
2	22071908	294	Low	10.0	Vague	2	36	30	10	12.0	12.3	10.1	36	30	10	12.0	12.3	10.1	2	1.121	0.000	D	30	12.3	927.116	929.826	930.947	930.949	0
2	22071908	295	Low	10.0	Precise	1	32	34	21	12.0	14.0	0.9	21	32	34	0.9	12.0	14.0	1	1.379	0.001	D	32	12.0	931.452	931.992	933.371	933.373	0
2	22071908	296	Low	10.0	Vague	2	36	34	6	12.0	14.0	2.5	34	6	36	14.0	2.5	12.0	1	0.930	0.000	R	36	12.0	933.876	936.585	937.515	937.517	0
2	22071908	297	Low	10.0	Precise	1	30	33	28	12.3	21.8	8.3	30	33	28	12.3	21.8	8.3	1	0.625	0.000	L	30	12.3	938.020	940.050	940.675	940.677	0
2	22071908	298	Low	10.0	Precise	1	32	34	23	12.0	14.0	1.0	32	34	23	12.0	14.0	1.0	1	0.570	0.000	L	32	12.0	941.179	942.881	943.450	943.453	0
2	22071908	299	Low	10.0	Vague	2	26	33	7	11.3	21.8	2.1	33	7	26	21.8	2.1	11.3	2	0.758	0.000	L	33	21.8	943.955	946.324	947.082	947.085	0
2	22071908	300	Low	10.0	Vague	2	32	33	8	12.0	21.8	10.6	33	32	8	21.8	12.0	10.6	2	0.486	0.000	L	33	21.8	947.587	949.012	949.499	949.501	0
2	22071908	301	Low	10.0	Precise	1	32	36	35	12.0	12.0	6.6	32	36	35	12.0	12.0	6.6	1	0.717	0.001	L	32	12.0	955.499	956.382	957.099	957.101	0
2	22071908	302	Low	10.0	Vague	2	30	33	11	12.3	21.8	6.3	33	11	30	21.8	6.3	12.3	2	0.831	0.000	L	33	21.8	957.604	959.156	959.986	959.989	0
2	22071908	303	Low	10.0	Precise	1	26	30	25	11.3	12.3	10.7	25	26	30	10.7	11.3	12.3	2	0.611	0.000	R	30	12.3	960.491	962.304	962.915	962.917	0
2	22071908	304	Low	10.0	Precise	1	26	36	27	11.3	12.0	11.2	27	26	36	11.2	11.3	12.0	2	0.798	0.000	R	36	12.0	963.420	964.437	965.235	965.237	0
2	22071908	305	Low	10.0	Precise	1	26	32	27	11.3	12.0	11.2	32	27	26	12.0	11.2	11.3	2	0.784	0.000	L	32	12.0	965.740	967.435	968.219	968.221	0
2	22071908	306	Low	10.0	Precise	1	36	33	35	12.0	21.8	6.6	35	36	33	6.6	12.0	21.8	2	0.552	0.000	R	33	21.8	968.723	970.995	971.547	971.549	0
2	22071908	307	Low	10.0	Vague	2	36	34	7	12.0	14.0	2.1	34	36	7	14.0	12.0	2.1	3	0.594	0.000	R	7	2.1	972.052	972.616	973.211	973.213	0
2	22071908	308	Low	10.0	Vague	2	26	33	11	11.3	21.8	6.3	11	26	33	6.3	11.3	21.8	2	0.653	0.000	R	33	21.8	973.716	975.093	975.746	975.749	0
2	22071908	309	Low	10.0	Vague	2	36	33	11	12.0	21.8	6.3	33	36	11	21.8	12.0	6.3	2	0.529	0.000	L	33	21.8	976.251	977.818	978.347	978.349	0
2	22071908	310	Low	10.0	Precise	1	32	33	28	12.0	21.8	8.3	28	33	32	8.3	21.8	12.0	2	0.685	0.000	D	33	21.8	978.852	980.765	981.450	981.453	0
2	22071908	311	Low	10.0	Vague	2	36	33	8	12.0	21.8	10.6	33	8	36	21.8	10.6	12.0	2	0.578	0.000	L	33	21.8	981.955	984.033	984.611	984.613	0
2	22071908	312	Low	10.0	Precise	1	32	33	21	12.0	21.8	0.9	21	33	32	0.9	21.8	12.0	2	0.780	0.001	D	33	21.8	985.115	986.895	987.675	987.677	0
2	22071908	313	Low	10.0	Precise	1	30	33	35	12.3	21.8	6.6	35	30	33	6.6	12.3	21.8	2	0.655	0.001	R	33	21.8	988.180	991.164	991.819	991.821	0
2	22071908	314	Low	10.0	Precise	1	26	32	28	11.3	12.0	8.3	28	32	26	8.3	12.0	11.3	2	0.709	0.000	D	32	12.0	992.323	994.662	995.371	995.373	0
2	22071908	315	Low	10.0	Precise	1	32	30	25	12.0	12.3	10.7	25	30	32	10.7	12.3	12.0	1	0.888	0.000	R	32	12.0	995.876	996.875	997.762	997.765	0
2	22071908	316	Low	10.0	Vague	2	26	36	3	11.3	12.0	1.0	3	36	26	1.0	12.0	11.3	2	1.130	0.001	D	36	12.0	998.268	999.233	1000.363	1000.365	0
2	22071908	317	Low	10.0	Precise	1	36	30	23	12.0	12.3	1.0	36	23	30	12.0	1.0	12.3	1	0.780	0.000	L	36	12.0	1000.867	1003.350	1004.130	1004.133	0
2	22071908	318	Low	10.0	Vague	2	30	34	11	12.3	14.0	6.3	34	11	30	14.0	6.3	12.3	1	0.734	0.000	R	30	12.3	1004.635	1006.805	1007.539	1007.541	0
2	22071908	319	Low	10.0	Vague	2	32	36	11	12.0	12.0	6.3	32	11	36	12.0	6.3	12.0	2	0.824	0.000	R	36	12.0	1008.044	1009.882	1010.706	1010.709	0
2	22071908	320	Low	10.0	Precise	1	26	33	21	11.3	21.8	0.9	21	26	33	0.9	11.3	21.8	2	0.617	0.001	R	33	21.8	1011.212	1013.442	1014.059	1014.061	0
2	22071908	321	Low	10.0	Vague	2	32	30	7	12.0	12.3	2.1	32	7	30	12.0	2.1	12.3	2	0.762	0.001	R	30	12.3	1014.564	1017.473	1018.235	1018.237	0
2	22071908	322	Low	10.0	Precise	1	26	30	28	11.3	12.3	8.3	26	28	30	11.3	8.3	12.3	2	0.499	0.001	R	30	12.3	1018.740	1020.680	1021.179	1021.181	0
2	22071908	323	Low	10.0	Precise	1	30	33	21	12.3	21.8	0.9	33	30	21	21.8	12.3	0.9	2	0.518	0.000	L	33	21.8	1021.684	1023.613	1024.131	1024.133	0
2	22071908	324	Low	10.0	Precise	1	26	30	23	11.3	12.3	1.0	23	30	26	1.0	12.3	11.3	2	0.738	0.000	D	30	12.3	1024.635	1026.560	1027.298	1027.301	0
2	22071908	325	Low	10.0	Precise	1	26	33	28	11.3	21.8	8.3	26	33	28	11.3	21.8	8.3	2	0.572	0.000	D	33	21.8	1027.804	1030.135	1030.707	1030.709	0
2	22071908	326	Low	10.0	Precise	1	36	30	25	12.0	12.3	10.7	25	30	36	10.7	12.3	12.0	2	0.606	0.000	D	30	12.3	1031.211	1033.980	1034.587	1034.589	0
2	22071908	327	Low	10.0	Vague	2	32	36	6	12.0	12.0	2.5	32	36	6	12.0	12.0	2.5	1	0.635	0.000	L	32	12.0	1035.091	1037.599	1038.234	1038.237	0
2	22071908	328	Low	10.0	Vague	2	26	30	6	11.3	12.3	2.5	26	6	30	11.3	2.5	12.3	2	0.537	0.000	R	30	12.3	1038.739	1041.681	1042.219	1042.221	0
2	22071908	329	Low	10.0	Vague	2	30	33	10	12.3	21.8	10.1	10	30	33	10.1	12.3	21.8	2	0.756	0.000	R	33	21.8	1042.724	1043.798	1044.555	1044.557	0
2	22071908	330	Low	10.0	Precise	1	36	30	35	12.0	12.3	6.6	36	35	30	12.0	6.6	12.3	2	0.520	0.001	R	30	12.3	1045.060	1047.259	1047.779	1047.781	0
2	22071908	331	Low	10.0	Precise	1	26	32	35	11.3	12.0	6.6	26	32	35	11.3	12.0	6.6	2	0.573	0.001	D	32	12.0	1048.284	1049.725	1050.299	1050.301	0
2	22071908	332	Low	10.0	Precise	1	32	30	27	12.0	12.3	11.2	27	30	32	11.2	12.3	12.0	2	0.859	0.000	D	30	12.3	1050.804	1051.767	1052.627	1052.629	0
2	22071908	333	Low	10.0	Vague	2	32	33	10	12.0	21.8	10.1	10	33	32	10.1	21.8	12.0	2	0.508	0.000	D	33	21.8	1053.132	1054.462	1054.971	1054.973	0
2	22071908	334	Low	10.0	Vague	2	36	34	10	12.0	14.0	10.1	10	36	34	10.1	12.0	14.0	1	0.709	0.001	D	36	12.0	1055.475	1057.933	1058.643	1058.645	0
2	22071908	335	Low	10.0	Vague	2	32	30	3	12.0	12.3	1.0	32	30	3	12.0	12.3	1.0	2	0.890	0.000	D	30	12.3	1059.148	1062.057	1062.947	1062.949	0
2	22071908	336	Low	10.0	Precise	1	32	33	27	12.0	21.8	11.2	27	33	32	11.2	21.8	12.0	2	0.659	0.000	D	33	21.8	1063.452	1064.968	1065.627	1065.629	0
2	22071908	337	Low	10.0	Precise	1	36	34	28	12.0	14.0	8.3	28	36	34	8.3	12.0	14.0	1	0.703	0.000	D	36	12.0	1066.131	1067.932	1068.635	1068.637	0
2	22071908	338	Low	10.0	Vague	2	34	33	7	14.0	21.8	2.1	33	34	7	21.8	14.0	2.1	2	0.642	0.000	L	33	21.8	1069.139	1069.921	1070.563	1070.565	0
2	22071908	339	Low	10.0	Vague	2	26	30	10	11.3	12.3	10.1	30	10	26	12.3	10.1	11.3	2	1.115	0.001	L	30	12.3	1071.067	1071.999	1073.115	1073.118	0
2	22071908	340	Low	10.0	Precise	1	32	30	21	12.0	12.3	0.9	21	30	32	0.9	12.3	12.0	2	0.568	0.000	D	30	12.3	1073.620	1074.331	1074.898	1074.901	0
2	22071908	341	Low	10.0	Precise	1	34	33	35	14.0	21.8	6.6	35	33	34	6.6	21.8	14.0	2	0.519	0.000	D	33	21.8	1075.404	1077.731	1078.251	1078.253	0
2	22071908	342	Low	10.0	Vague	2	26	34	11	11.3	14.0	6.3	11	34	26	6.3	14.0	11.3	3	0.525	0.000	L	11	6.3	1078.756	1080.494	1081.018	1081.021	0
2	22071908	343	Low	10.0	Precise	1	26	32	21	11.3	12.0	0.9	32	26	21	12.0	11.3	0.9	2	1.006	0.000	L	32	12.0	1081.524	1082.413	1083.419	1083.421	0
2	22071908	344	Low	10.0	Vague	2	26	36	6	11.3	12.0	2.5	26	36	6	11.3	12.0	2.5	1	0.798	0.000	L	26	11.3	1083.924	1086.565	1087.363	1087.365	0
2	22071908	345	Low	10.0	Precise	1	36	34	21	12.0	14.0	0.9	36	21	34	12.0	0.9	14.0	1	0.963	0.000	L	36	12.0	1087.868	1089.927	1090.890	1090.893	0
2	22071908	346	Low	10.0	Vague	2	32	34	11	12.0	14.0	6.3	32	11	34	12.0	6.3	14.0	1	0.710	0.001	L	32	12.0	1091.395	1093.604	1094.315	1094.317	0
2	22071908	347	Low	10.0	Vague	2	26	34	3	11.3	14.0	1.0	3	34	26	1.0	14.0	11.3	1	0.917	0.000	R	26	11.3	1094.820	1097.429	1098.347	1098.349	0
2	22071908	348	Low	10.0	Precise	1	32	30	28	12.0	12.3	8.3	28	30	32	8.3	12.3	12.0	2	0.685	0.001	D	30	12.3	1098.852	1101.333	1102.019	1102.021	0
2	22071908	349	Low	10.0	Vague	2	32	30	11	12.0	12.3	6.3	32	30	11	12.0	12.3	6.3	2	0.934	0.000	D	30	12.3	1102.524	1103.781	1104.715	1104.717	0
2	22071908	350	Low	10.0	Precise	1	26	33	35	11.3	21.8	6.6	33	26	35	21.8	11.3	6.6	2	0.575	0.000	L	33	21.8	1105.219	1106.739	1107.315	1107.317	0
2	22071908	351	Low	10.0	Vague	2	26	32	8	11.3	12.0	10.6	32	8	26	12.0	10.6	11.3	2	0.564	0.000	L	32	12.0	1107.819	1108.718	1109.282	1109.285	0
2	22071908	352	Low	10.0	Precise	1	32	33	35	12.0	21.8	6.6	33	32	35	21.8	12.0	6.6	2	0.622	0.000	L	33	21.8	1109.787	1111.533	1112.155	1112.157	0
2	22071908	353	Low	10.0	Vague	2	26	36	8	11.3	12.0	10.6	36	26	8	12.0	11.3	10.6	2	0.674	0.000	L	36	12.0	1112.659	1114.992	1115.666	1115.669	0
2	22071908	354	Low	10.0	Vague	2	32	33	6	12.0	21.8	2.5	33	6	32	21.8	2.5	12.0	2	0.515	0.000	L	33	21.8	1116.172	1117.719	1118.235	1118.237	0
2	22071908	355	Low	10.0	Vague	2	30	34	6	12.3	14.0	2.5	30	34	6	12.3	14.0	2.5	1	0.656	0.000	L	30	12.3	1118.739	1120.131	1120.787	1120.789	0
2	22071908	356	Low	10.0	Vague	2	32	36	7	12.0	12.0	2.1	32	7	36	12.0	2.1	12.0	3	0.732	0.001	D	7	2.1	1121.292	1122.631	1123.363	1123.365	0
2	22071908	357	Low	10.0	Vague	2	36	30	6	12.0	12.3	2.5	36	6	30	12.0	2.5	12.3	2	0.948	0.000	R	30	12.3	1123.868	1124.926	1125.875	1125.877	0
2	22071908	358	Low	10.0	Precise	1	32	36	21	12.0	12.0	0.9	32	21	36	12.0	0.9	12.0	2	0.617	0.000	R	36	12.0	1126.379	1129.066	1129.683	1129.685	0
2	22071908	359	Low	10.0	Vague	2	26	34	8	11.3	14.0	10.6	8	34	26	10.6	14.0	11.3	3	1.176	0.000	L	8	10.6	1130.187	1132.315	1133.490	1133.493	0
2	22071908	360	Low	10.0	Precise	1	26	33	23	11.3	21.8	1.0	33	26	23	21.8	11.3	1.0	2	0.585	0.000	L	33	21.8	1133.996	1135.049	1135.635	1135.637	0
