Group	subID	trial	TimePressure	TimeConstraint	Vagueness	Vaguenesscode	ID1	ID2	ID3	V1	V2	V3	ID_left	ID_middle	ID_right	Bid_left	Bid_middle	Bid_right	chosenItem	RT	RTvariance	chosenPosition	chosenID	chosenValue	fixation_time	option_time	choice_time	feedback_time	timeout
2	22110308	1	High	1.5	Vague	2	31	33	5	5.0	20.0	0.0	5	33	31	0.0	20.0	5.0	1	1.104	0.000	R	31	5.0	4.067	5.976	7.080	7.084	0
2	22110308	2	High	1.5	Precise	1	29	35	25	5.0	5.0	5.0	29	25	35	5.0	5.0	5.0	2	1.292	0.001	R	35	5.0	7.588	9.596	10.888	10.891	0
2	22110308	3	High	1.5	Precise	1	29	31	25	5.0	5.0	5.0	25	31	29	5.0	5.0	5.0	1	0.930	0.001	R	29	5.0	11.395	12.750	13.680	13.683	0
2	22110308	4	High	1.5	Precise	1	32	33	22	5.0	20.0	0.0	22	32	33	0.0	5.0	20.0	2	0.732	0.001	R	33	20.0	14.187	16.300	17.032	17.035	0
2	22110308	5	High	1.5	Vague	2	29	32	5	5.0	5.0	0.0	32	5	29	5.0	0.0	5.0	1	1.196	0.000	R	29	5.0	17.538	19.452	20.648	20.653	0
2	22110308	6	High	1.5	Vague	2	36	33	1	5.0	20.0	0.0	33	1	36	20.0	0.0	5.0	2	0.813	0.000	L	33	20.0	21.158	22.162	22.976	22.979	0
2	22110308	7	High	1.5	Precise	1	29	31	22	5.0	5.0	0.0	31	29	22	5.0	5.0	0.0	2	0.811	0.001	L	31	5.0	23.482	26.005	26.816	26.818	0
2	22110308	8	High	1.5	Vague	2	29	33	16	5.0	20.0	1.7	33	29	16	20.0	5.0	1.7	2	0.673	0.001	L	33	20.0	27.321	27.831	28.504	28.506	0
2	22110308	9	High	1.5	Precise	1	32	36	25	5.0	5.0	5.0	25	32	36	5.0	5.0	5.0	2	1.266	0.000	R	36	5.0	29.009	29.870	31.136	31.138	0
2	22110308	10	High	1.5	Vague	2	32	33	4	5.0	20.0	1.0	33	32	4	20.0	5.0	1.0	2	0.740	0.000	L	33	20.0	31.641	34.100	34.840	34.843	0
2	22110308	11	High	1.5	Precise	1	35	33	25	5.0	20.0	5.0	25	35	33	5.0	5.0	20.0	2	0.646	0.001	R	33	20.0	35.346	36.850	37.496	37.498	0
2	22110308	12	High	1.5	Vague	2	29	36	5	5.0	5.0	0.0	29	36	5	5.0	5.0	0.0	2	1.018	0.001	D	36	5.0	38.001	40.782	41.800	41.803	0
2	22110308	13	High	1.5	Precise	1	31	36	27	5.0	5.0	0.0	36	31	27	5.0	5.0	0.0	1	0.972	0.000	D	31	5.0	42.305	44.011	44.984	44.986	0
2	22110308	14	High	1.5	Vague	2	29	33	8	5.0	20.0	0.0	8	29	33	0.0	5.0	20.0	2	0.809	0.000	R	33	20.0	45.489	45.990	46.800	46.802	0
2	22110308	15	High	1.5	Vague	2	29	35	4	5.0	5.0	1.0	35	29	4	5.0	5.0	1.0	1	0.763	0.001	D	29	5.0	47.305	48.717	49.480	49.482	0
2	22110308	16	High	1.5	Precise	1	32	36	27	5.0	5.0	0.0	32	36	27	5.0	5.0	0.0	2	0.957	0.001	D	36	5.0	49.985	51.059	52.016	52.018	0
2	22110308	17	High	1.5	Precise	1	31	36	24	5.0	5.0	0.5	24	31	36	0.5	5.0	5.0	1	1.014	0.001	D	31	5.0	52.522	53.058	54.072	54.075	0
2	22110308	18	High	1.5	Precise	1	29	33	22	5.0	20.0	0.0	33	29	22	20.0	5.0	0.0	2	0.616	0.000	L	33	20.0	54.577	56.439	57.056	57.059	0
2	22110308	19	High	1.5	Vague	2	32	35	5	5.0	5.0	0.0	35	5	32	5.0	0.0	5.0	2	1.160	0.000	L	35	5.0	57.561	59.824	60.984	60.986	0
2	22110308	20	High	1.5	Vague	2	29	36	4	5.0	5.0	1.0	29	4	36	5.0	1.0	5.0	2	0.890	0.001	R	36	5.0	61.489	62.814	63.704	63.706	0
2	22110308	21	High	1.5	Precise	1	29	33	27	5.0	20.0	0.0	27	33	29	0.0	20.0	5.0	1	0.567	0.000	R	29	5.0	64.209	65.897	66.464	66.466	0
2	22110308	22	High	1.5	Precise	1	35	33	28	5.0	20.0	2.0	33	35	28	20.0	5.0	2.0	2	0.503	0.001	L	33	20.0	66.969	67.969	68.472	68.474	0
2	22110308	23	High	1.5	Precise	1	31	36	25	5.0	5.0	5.0	31	36	25	5.0	5.0	5.0	1	0.813	0.001	L	31	5.0	68.977	69.755	70.568	70.570	0
2	22110308	24	High	1.5	Vague	2	31	35	11	5.0	5.0	0.0	11	35	31	0.0	5.0	5.0	1	0.757	0.000	R	31	5.0	71.073	73.346	74.103	74.106	0
2	22110308	25	High	1.5	Vague	2	31	33	1	5.0	20.0	0.0	33	1	31	20.0	0.0	5.0	2	0.691	0.001	L	33	20.0	74.608	76.077	76.768	76.770	0
2	22110308	26	High	1.5	Vague	2	31	32	11	5.0	5.0	0.0	31	11	32	5.0	0.0	5.0	1	1.086	0.000	L	31	5.0	77.273	78.906	79.992	79.994	0
2	22110308	27	High	1.5	Precise	1	36	33	22	5.0	20.0	0.0	33	36	22	20.0	5.0	0.0	2	0.540	0.001	L	33	20.0	80.497	82.628	83.168	83.170	0
2	22110308	28	High	1.5	Vague	2	36	33	4	5.0	20.0	1.0	33	4	36	20.0	1.0	5.0	2	0.437	0.001	L	33	20.0	83.673	85.395	85.832	85.834	0
2	22110308	29	High	1.5	Vague	2	31	33	16	5.0	20.0	1.7	31	16	33	5.0	1.7	20.0	2	0.528	0.000	R	33	20.0	86.337	87.984	88.512	88.515	0
2	22110308	30	High	1.5	Precise	1	32	36	20	5.0	5.0	0.0	20	36	32	0.0	5.0	5.0	2	1.057	0.001	D	36	5.0	89.018	90.358	91.416	91.418	0
2	22110308	31	High	1.5	Vague	2	35	33	4	5.0	20.0	1.0	4	35	33	1.0	5.0	20.0	2	0.600	0.001	R	33	20.0	91.921	94.432	95.032	95.034	0
2	22110308	32	High	1.5	Vague	2	32	33	5	5.0	20.0	0.0	5	33	32	0.0	20.0	5.0	2	0.632	0.001	D	33	20.0	95.537	97.680	98.312	98.314	0
2	22110308	33	High	1.5	Precise	1	31	35	20	5.0	5.0	0.0	35	31	20	5.0	5.0	0.0	1	0.798	0.001	D	31	5.0	98.817	99.810	100.608	100.610	0
2	22110308	34	High	1.5	Vague	2	31	32	5	5.0	5.0	0.0	5	31	32	0.0	5.0	5.0	1	0.891	0.001	D	31	5.0	101.113	102.197	103.088	103.090	0
2	22110308	35	High	1.5	Vague	2	29	33	5	5.0	20.0	0.0	29	33	5	5.0	20.0	0.0	2	0.538	0.001	D	33	20.0	103.593	104.366	104.904	104.906	0
2	22110308	36	High	1.5	Precise	1	29	33	20	5.0	20.0	0.0	29	33	20	5.0	20.0	0.0	2	0.564	0.001	D	33	20.0	105.409	106.732	107.296	107.298	0
2	22110308	37	High	1.5	Precise	1	29	36	28	5.0	5.0	2.0	29	36	28	5.0	5.0	2.0	2	0.961	0.001	D	36	5.0	107.801	110.183	111.144	111.146	0
2	22110308	38	High	1.5	Vague	2	36	33	8	5.0	20.0	0.0	8	36	33	0.0	5.0	20.0	2	0.890	0.001	R	33	20.0	111.649	112.166	113.056	113.058	0
2	22110308	39	High	1.5	Precise	1	31	36	20	5.0	5.0	0.0	36	31	20	5.0	5.0	0.0	1	0.737	0.000	D	31	5.0	113.561	114.663	115.400	115.402	0
2	22110308	40	High	1.5	Precise	1	31	35	25	5.0	5.0	5.0	25	35	31	5.0	5.0	5.0	1	0.641	0.000	R	31	5.0	115.905	116.694	117.335	117.338	0
2	22110308	41	High	1.5	Vague	2	29	32	11	5.0	5.0	0.0	11	32	29	0.0	5.0	5.0	2	1.079	0.000	D	32	5.0	117.841	119.353	120.432	120.434	0
2	22110308	42	High	1.5	Vague	2	32	33	1	5.0	20.0	0.0	32	33	1	5.0	20.0	0.0	2	0.647	0.001	D	33	20.0	120.937	122.729	123.376	123.378	0
2	22110308	43	High	1.5	Precise	1	32	33	20	5.0	20.0	0.0	32	20	33	5.0	0.0	20.0	2	0.514	0.001	R	33	20.0	123.881	125.022	125.536	125.538	0
2	22110308	44	High	1.5	Vague	2	36	33	5	5.0	20.0	0.0	36	33	5	5.0	20.0	0.0	2	0.535	0.001	D	33	20.0	126.041	128.657	129.192	129.194	0
2	22110308	45	High	1.5	Precise	1	36	33	27	5.0	20.0	0.0	27	36	33	0.0	5.0	20.0	2	0.552	0.001	R	33	20.0	129.697	131.064	131.616	131.618	0
2	22110308	46	High	1.5	Precise	1	32	33	27	5.0	20.0	0.0	33	32	27	20.0	5.0	0.0	2	0.530	0.000	L	33	20.0	132.121	134.685	135.216	135.218	0
2	22110308	47	High	1.5	Vague	2	29	36	8	5.0	5.0	0.0	29	36	8	5.0	5.0	0.0	2	0.876	0.001	D	36	5.0	135.720	138.228	139.104	139.106	0
2	22110308	48	High	1.5	Vague	2	29	32	16	5.0	5.0	1.7	16	32	29	1.7	5.0	5.0	2	1.052	0.001	D	32	5.0	139.609	140.140	141.192	141.194	0
2	22110308	49	High	1.5	Precise	1	32	36	28	5.0	5.0	2.0	32	28	36	5.0	2.0	5.0	1	1.155	0.001	L	32	5.0	141.697	143.093	144.248	144.250	0
2	22110308	50	High	1.5	Vague	2	31	33	4	5.0	20.0	1.0	33	31	4	20.0	5.0	1.0	2	0.539	0.000	L	33	20.0	144.753	147.309	147.847	147.850	0
2	22110308	51	High	1.5	Vague	2	29	33	4	5.0	20.0	1.0	29	33	4	5.0	20.0	1.0	2	0.558	0.001	D	33	20.0	148.353	150.674	151.232	151.235	0
2	22110308	52	High	1.5	Precise	1	35	36	27	5.0	5.0	0.0	27	36	35	0.0	5.0	5.0	2	0.781	0.001	D	36	5.0	151.738	154.715	155.496	155.498	0
2	22110308	53	High	1.5	Precise	1	32	35	22	5.0	5.0	0.0	35	22	32	5.0	0.0	5.0	1	1.207	0.001	R	32	5.0	156.002	156.729	157.936	157.938	0
2	22110308	54	High	1.5	Precise	1	32	35	28	5.0	5.0	2.0	28	35	32	2.0	5.0	5.0	1	0.644	0.000	R	32	5.0	158.441	159.156	159.799	159.802	0
2	22110308	55	High	1.5	Vague	2	32	36	4	5.0	5.0	1.0	4	32	36	1.0	5.0	5.0	2	1.051	0.000	R	36	5.0	160.305	162.781	163.832	163.834	0
2	22110308	56	High	1.5	Precise	1	29	35	22	5.0	5.0	0.0	29	35	22	5.0	5.0	0.0	2	0.885	0.001	D	35	5.0	164.337	165.171	166.056	166.058	0
2	22110308	57	High	1.5	Vague	2	32	35	4	5.0	5.0	1.0	32	4	35	5.0	1.0	5.0	2	0.613	0.000	R	35	5.0	166.561	167.298	167.911	167.914	0
2	22110308	58	High	1.5	Vague	2	32	33	16	5.0	20.0	1.7	32	16	33	5.0	1.7	20.0	2	0.602	0.000	R	33	20.0	168.417	169.054	169.656	169.658	0
2	22110308	59	High	1.5	Precise	1	29	32	22	5.0	5.0	0.0	22	32	29	0.0	5.0	5.0	2	0.660	0.001	D	32	5.0	170.160	172.820	173.480	173.482	0
2	22110308	60	High	1.5	Precise	1	35	36	28	5.0	5.0	2.0	35	28	36	5.0	2.0	5.0	2	0.764	0.001	R	36	5.0	173.985	175.996	176.760	176.762	0
2	22110308	61	High	1.5	Vague	2	32	35	8	5.0	5.0	0.0	35	8	32	5.0	0.0	5.0	1	0.889	0.000	R	32	5.0	181.391	182.207	183.096	183.098	0
2	22110308	62	High	1.5	Vague	2	32	36	5	5.0	5.0	0.0	32	36	5	5.0	5.0	0.0	1	0.802	0.000	L	32	5.0	183.601	185.966	186.767	186.770	0
2	22110308	63	High	1.5	Precise	1	35	33	24	5.0	20.0	0.5	24	35	33	0.5	5.0	20.0	2	0.627	0.000	R	33	20.0	187.273	188.580	189.207	189.210	0
2	22110308	64	High	1.5	Precise	1	29	33	24	5.0	20.0	0.5	29	33	24	5.0	20.0	0.5	2	0.624	0.000	D	33	20.0	189.713	190.231	190.856	190.858	0
2	22110308	65	High	1.5	Precise	1	32	35	24	5.0	5.0	0.5	24	32	35	0.5	5.0	5.0	1	0.499	0.001	D	32	5.0	191.361	192.053	192.552	192.554	0
2	22110308	66	High	1.5	Precise	1	29	36	20	5.0	5.0	0.0	36	20	29	5.0	0.0	5.0	2	0.812	0.001	L	36	5.0	193.057	195.204	196.016	196.018	0
2	22110308	67	High	1.5	Vague	2	29	31	11	5.0	5.0	0.0	29	31	11	5.0	5.0	0.0	2	1.105	0.000	D	31	5.0	196.521	199.247	200.351	200.354	0
2	22110308	68	High	1.5	Precise	1	29	36	22	5.0	5.0	0.0	22	29	36	0.0	5.0	5.0	2	0.829	0.001	R	36	5.0	200.857	203.067	203.896	203.898	0
2	22110308	69	High	1.5	Precise	1	31	32	28	5.0	5.0	2.0	31	28	32	5.0	2.0	5.0	1	0.891	0.000	L	31	5.0	204.400	205.453	206.343	206.346	0
2	22110308	70	High	1.5	Vague	2	31	32	4	5.0	5.0	1.0	31	32	4	5.0	5.0	1.0	1	0.776	0.001	L	31	5.0	206.848	209.192	209.968	209.970	0
2	22110308	71	High	1.5	Precise	1	31	33	20	5.0	20.0	0.0	33	31	20	20.0	5.0	0.0	2	0.650	0.001	L	33	20.0	210.473	211.502	212.152	212.154	0
2	22110308	72	High	1.5	Vague	2	31	33	8	5.0	20.0	0.0	31	8	33	5.0	0.0	20.0	2	0.515	0.000	R	33	20.0	212.656	214.093	214.608	214.610	0
2	22110308	73	High	1.5	Precise	1	35	36	24	5.0	5.0	0.5	35	36	24	5.0	5.0	0.5	2	0.857	0.001	D	36	5.0	215.113	217.367	218.224	218.226	0
2	22110308	74	High	1.5	Vague	2	29	36	16	5.0	5.0	1.7	36	16	29	5.0	1.7	5.0	2	0.745	0.001	L	36	5.0	218.729	219.759	220.504	220.506	0
2	22110308	75	High	1.5	Vague	2	29	31	8	5.0	5.0	0.0	31	8	29	5.0	0.0	5.0	2	0.623	0.000	L	31	5.0	221.009	222.416	223.039	223.042	0
2	22110308	76	High	1.5	Vague	2	31	36	11	5.0	5.0	0.0	31	11	36	5.0	0.0	5.0	1	0.577	0.000	L	31	5.0	223.544	225.335	225.911	225.914	0
2	22110308	77	High	1.5	Precise	1	35	36	22	5.0	5.0	0.0	22	35	36	0.0	5.0	5.0	2	0.810	0.001	R	36	5.0	226.416	227.510	228.320	228.322	0
2	22110308	78	High	1.5	Precise	1	31	32	22	5.0	5.0	0.0	32	31	22	5.0	5.0	0.0	2	0.815	0.001	L	32	5.0	228.825	229.889	230.704	230.706	0
2	22110308	79	High	1.5	Precise	1	35	33	22	5.0	20.0	0.0	33	22	35	20.0	0.0	5.0	2	0.660	0.000	L	33	20.0	231.209	232.915	233.575	233.578	0
2	22110308	80	High	1.5	Precise	1	29	32	24	5.0	5.0	0.5	32	29	24	5.0	5.0	0.5	2	0.729	0.001	L	32	5.0	234.081	237.007	237.736	237.738	0
2	22110308	81	High	1.5	Vague	2	32	36	1	5.0	5.0	0.0	36	32	1	5.0	5.0	0.0	1	0.675	0.001	D	32	5.0	238.241	239.101	239.776	239.779	0
2	22110308	82	High	1.5	Vague	2	29	32	8	5.0	5.0	0.0	8	29	32	0.0	5.0	5.0	2	0.651	0.001	R	32	5.0	240.281	242.429	243.080	243.082	0
2	22110308	83	High	1.5	Precise	1	35	33	27	5.0	20.0	0.0	33	35	27	20.0	5.0	0.0	2	0.584	0.001	L	33	20.0	243.585	246.432	247.016	247.018	0
2	22110308	84	High	1.5	Precise	1	29	35	27	5.0	5.0	0.0	27	35	29	0.0	5.0	5.0	1	0.884	0.001	R	29	5.0	247.521	248.844	249.728	249.730	0
2	22110308	85	High	1.5	Precise	1	32	33	28	5.0	20.0	2.0	32	28	33	5.0	2.0	20.0	2	0.609	0.000	R	33	20.0	250.233	251.703	252.311	252.314	0
2	22110308	86	High	1.5	Vague	2	29	35	1	5.0	5.0	0.0	35	1	29	5.0	0.0	5.0	1	0.643	0.000	R	29	5.0	252.817	254.268	254.911	254.914	0
2	22110308	87	High	1.5	Precise	1	29	33	25	5.0	20.0	5.0	25	29	33	5.0	5.0	20.0	2	0.581	0.000	R	33	20.0	255.417	256.891	257.472	257.474	0
2	22110308	88	High	1.5	Vague	2	36	33	16	5.0	20.0	1.7	36	33	16	5.0	20.0	1.7	2	0.611	0.000	D	33	20.0	257.977	259.317	259.928	259.930	0
2	22110308	89	High	1.5	Vague	2	35	33	16	5.0	20.0	1.7	35	33	16	5.0	20.0	1.7	2	0.530	0.001	D	33	20.0	260.433	261.598	262.128	262.130	0
2	22110308	90	High	1.5	Precise	1	32	33	24	5.0	20.0	0.5	32	24	33	5.0	0.5	20.0	2	0.523	0.000	R	33	20.0	262.633	265.189	265.712	265.714	0
2	22110308	91	High	1.5	Precise	1	31	33	28	5.0	20.0	2.0	31	28	33	5.0	2.0	20.0	2	0.463	0.000	R	33	20.0	266.217	267.664	268.127	268.130	0
2	22110308	92	High	1.5	Precise	1	32	36	22	5.0	5.0	0.0	32	22	36	5.0	0.0	5.0	1	0.665	0.001	L	32	5.0	268.632	271.214	271.880	271.882	0
2	22110308	93	High	1.5	Precise	1	29	32	27	5.0	5.0	0.0	29	32	27	5.0	5.0	0.0	2	0.587	0.001	D	32	5.0	272.385	274.044	274.632	274.634	0
2	22110308	94	High	1.5	Vague	2	32	36	8	5.0	5.0	0.0	8	36	32	0.0	5.0	5.0	1	0.612	0.001	R	32	5.0	275.138	277.227	277.840	277.842	0
2	22110308	95	High	1.5	Precise	1	36	33	20	5.0	20.0	0.0	33	36	20	20.0	5.0	0.0	2	0.610	0.001	L	33	20.0	278.345	279.318	279.928	279.930	0
2	22110308	96	High	1.5	Vague	2	31	35	5	5.0	5.0	0.0	35	31	5	5.0	5.0	0.0	1	0.688	0.000	D	31	5.0	280.433	281.232	281.920	281.922	0
2	22110308	97	High	1.5	Vague	2	29	31	4	5.0	5.0	1.0	29	31	4	5.0	5.0	1.0	2	0.606	0.001	D	31	5.0	282.424	284.698	285.304	285.306	0
2	22110308	98	High	1.5	Vague	2	29	35	8	5.0	5.0	0.0	8	29	35	0.0	5.0	5.0	1	0.920	0.001	D	29	5.0	285.809	286.808	287.728	287.731	0
2	22110308	99	High	1.5	Vague	2	32	36	16	5.0	5.0	1.7	16	32	36	1.7	5.0	5.0	1	0.575	0.001	D	32	5.0	288.233	290.729	291.304	291.306	0
2	22110308	100	High	1.5	Precise	1	31	33	22	5.0	20.0	0.0	33	22	31	20.0	0.0	5.0	2	0.714	0.000	L	33	20.0	291.809	293.742	294.455	294.458	0
2	22110308	101	High	1.5	Precise	1	31	33	25	5.0	20.0	5.0	31	33	25	5.0	20.0	5.0	2	0.623	0.001	D	33	20.0	294.961	295.585	296.208	296.210	0
2	22110308	102	High	1.5	Precise	1	29	36	25	5.0	5.0	5.0	25	29	36	5.0	5.0	5.0	1	0.736	0.001	D	29	5.0	296.713	299.264	300.000	300.002	0
2	22110308	103	High	1.5	Vague	2	29	33	11	5.0	20.0	0.0	29	11	33	5.0	0.0	20.0	2	0.776	0.001	R	33	20.0	300.504	302.432	303.208	303.210	0
2	22110308	104	High	1.5	Precise	1	35	33	20	5.0	20.0	0.0	35	20	33	5.0	0.0	20.0	2	0.566	0.000	R	33	20.0	303.712	305.345	305.911	305.914	0
2	22110308	105	High	1.5	Precise	1	29	31	20	5.0	5.0	0.0	29	20	31	5.0	0.0	5.0	2	0.871	0.001	R	31	5.0	306.417	307.041	307.912	307.914	0
2	22110308	106	High	1.5	Precise	1	29	36	24	5.0	5.0	0.5	36	29	24	5.0	5.0	0.5	1	0.614	0.001	D	29	5.0	308.417	310.001	310.616	310.618	0
2	22110308	107	High	1.5	Precise	1	35	36	25	5.0	5.0	5.0	35	25	36	5.0	5.0	5.0	2	0.655	0.000	R	36	5.0	311.120	313.033	313.687	313.690	0
2	22110308	108	High	1.5	Precise	1	31	32	27	5.0	5.0	0.0	27	31	32	0.0	5.0	5.0	1	0.600	0.001	D	31	5.0	314.193	316.431	317.032	317.034	0
2	22110308	109	High	1.5	Precise	1	29	35	28	5.0	5.0	2.0	28	29	35	2.0	5.0	5.0	1	0.711	0.000	D	29	5.0	317.536	318.840	319.551	319.554	0
2	22110308	110	High	1.5	Precise	1	32	35	25	5.0	5.0	5.0	32	25	35	5.0	5.0	5.0	1	0.601	0.001	L	32	5.0	320.057	320.895	321.496	321.499	0
2	22110308	111	High	1.5	Vague	2	35	36	4	5.0	5.0	1.0	35	36	4	5.0	5.0	1.0	2	0.899	0.000	D	36	5.0	322.001	324.180	325.079	325.082	0
2	22110308	112	High	1.5	Vague	2	31	36	8	5.0	5.0	0.0	8	31	36	0.0	5.0	5.0	1	0.718	0.001	D	31	5.0	325.585	326.826	327.544	327.546	0
2	22110308	113	High	1.5	Vague	2	35	36	5	5.0	5.0	0.0	5	35	36	0.0	5.0	5.0	2	1.067	0.001	R	36	5.0	328.048	330.461	331.527	331.530	0
2	22110308	114	High	1.5	Vague	2	35	36	16	5.0	5.0	1.7	16	36	35	1.7	5.0	5.0	2	0.901	0.001	D	36	5.0	332.032	333.659	334.560	334.562	0
2	22110308	115	High	1.5	Vague	2	29	35	11	5.0	5.0	0.0	29	35	11	5.0	5.0	0.0	1	1.145	0.001	L	29	5.0	335.065	336.511	337.656	337.658	0
2	22110308	116	High	1.5	Vague	2	35	33	5	5.0	20.0	0.0	33	5	35	20.0	0.0	5.0	2	0.645	0.000	L	33	20.0	338.160	338.922	339.567	339.570	0
2	22110308	117	High	1.5	Vague	2	31	36	5	5.0	5.0	0.0	5	36	31	0.0	5.0	5.0	1	0.762	0.001	R	31	5.0	340.072	340.870	341.632	341.634	0
2	22110308	118	High	1.5	Precise	1	31	33	27	5.0	20.0	0.0	27	33	31	0.0	20.0	5.0	2	0.588	0.001	D	33	20.0	342.137	342.660	343.248	343.250	0
2	22110308	119	High	1.5	Vague	2	32	36	11	5.0	5.0	0.0	32	11	36	5.0	0.0	5.0	1	0.925	0.001	L	32	5.0	343.753	344.362	345.288	345.290	0
2	22110308	120	High	1.5	Vague	2	31	35	16	5.0	5.0	1.7	16	31	35	1.7	5.0	5.0	1	0.550	0.001	D	31	5.0	345.793	347.817	348.368	348.370	0
2	22110308	121	High	1.5	Vague	2	32	35	16	5.0	5.0	1.7	16	35	32	1.7	5.0	5.0	1	0.657	0.000	R	32	5.0	354.192	356.662	357.319	357.322	0
2	22110308	122	High	1.5	Vague	2	31	32	16	5.0	5.0	1.7	31	32	16	5.0	5.0	1.7	1	0.671	0.001	L	31	5.0	357.824	360.657	361.328	361.330	0
2	22110308	123	High	1.5	Vague	2	31	36	1	5.0	5.0	0.0	1	31	36	0.0	5.0	5.0	1	0.674	0.001	D	31	5.0	361.833	363.205	363.880	363.882	0
2	22110308	124	High	1.5	Vague	2	35	33	1	5.0	20.0	0.0	35	33	1	5.0	20.0	0.0	2	0.542	0.000	D	33	20.0	364.385	365.617	366.159	366.162	0
2	22110308	125	High	1.5	Vague	2	29	32	1	5.0	5.0	0.0	1	29	32	0.0	5.0	5.0	2	0.773	0.000	R	32	5.0	366.664	368.882	369.655	369.658	0
2	22110308	126	High	1.5	Vague	2	29	35	16	5.0	5.0	1.7	35	29	16	5.0	5.0	1.7	1	0.772	0.000	D	29	5.0	370.160	371.500	372.271	372.274	0
2	22110308	127	High	1.5	Precise	1	32	35	27	5.0	5.0	0.0	32	35	27	5.0	5.0	0.0	1	0.582	0.000	L	32	5.0	372.776	374.225	374.807	374.810	0
2	22110308	128	High	1.5	Precise	1	31	36	22	5.0	5.0	0.0	36	22	31	5.0	0.0	5.0	1	1.106	0.001	R	31	5.0	375.312	375.886	376.992	376.994	0
2	22110308	129	High	1.5	Precise	1	32	35	20	5.0	5.0	0.0	20	32	35	0.0	5.0	5.0	1	0.559	0.001	D	32	5.0	377.497	378.769	379.328	379.330	0
2	22110308	130	High	1.5	Precise	1	31	35	22	5.0	5.0	0.0	31	35	22	5.0	5.0	0.0	1	0.568	0.000	L	31	5.0	379.832	381.359	381.927	381.930	0
2	22110308	131	High	1.5	Vague	2	29	36	1	5.0	5.0	0.0	36	29	1	5.0	5.0	0.0	2	0.881	0.000	L	36	5.0	382.433	385.375	386.255	386.258	0
2	22110308	132	High	1.5	Precise	1	29	31	28	5.0	5.0	2.0	29	28	31	5.0	2.0	5.0	2	0.612	0.001	R	31	5.0	386.760	388.716	389.327	389.330	0
2	22110308	133	High	1.5	Precise	1	36	33	24	5.0	20.0	0.5	24	33	36	0.5	20.0	5.0	2	0.539	0.001	D	33	20.0	389.832	391.053	391.592	391.595	0
2	22110308	134	High	1.5	Vague	2	29	35	5	5.0	5.0	0.0	5	35	29	0.0	5.0	5.0	1	0.962	0.000	R	29	5.0	392.098	393.222	394.183	394.186	0
2	22110308	135	High	1.5	Vague	2	29	31	5	5.0	5.0	0.0	5	29	31	0.0	5.0	5.0	2	0.707	0.001	R	31	5.0	394.689	396.597	397.304	397.306	0
2	22110308	136	High	1.5	Precise	1	36	33	25	5.0	20.0	5.0	36	33	25	5.0	20.0	5.0	2	0.589	0.000	D	33	20.0	397.809	398.859	399.447	399.450	0
2	22110308	137	High	1.5	Vague	2	29	32	4	5.0	5.0	1.0	4	29	32	1.0	5.0	5.0	2	0.852	0.000	R	32	5.0	399.953	401.380	402.231	402.234	0
2	22110308	138	High	1.5	Precise	1	31	35	28	5.0	5.0	2.0	31	28	35	5.0	2.0	5.0	1	0.608	0.000	L	31	5.0	402.737	404.839	405.447	405.450	0
2	22110308	139	High	1.5	Precise	1	29	31	27	5.0	5.0	0.0	31	29	27	5.0	5.0	0.0	2	0.705	0.001	L	31	5.0	405.953	406.487	407.191	407.194	0
2	22110308	140	High	1.5	Vague	2	35	36	8	5.0	5.0	0.0	35	8	36	5.0	0.0	5.0	2	0.705	0.001	R	36	5.0	407.697	409.167	409.871	409.874	0
2	22110308	141	High	1.5	Precise	1	29	32	20	5.0	5.0	0.0	32	29	20	5.0	5.0	0.0	2	0.775	0.000	L	32	5.0	410.378	411.320	412.095	412.098	0
2	22110308	142	High	1.5	Vague	2	31	33	11	5.0	20.0	0.0	11	31	33	0.0	5.0	20.0	2	0.585	0.000	R	33	20.0	412.600	413.102	413.687	413.690	0
2	22110308	143	High	1.5	Vague	2	32	35	1	5.0	5.0	0.0	32	1	35	5.0	0.0	5.0	1	0.589	0.000	L	32	5.0	414.193	416.410	416.999	417.002	0
2	22110308	144	High	1.5	Precise	1	29	33	28	5.0	20.0	2.0	33	29	28	20.0	5.0	2.0	2	0.608	0.000	L	33	20.0	417.504	419.624	420.232	420.234	0
2	22110308	145	High	1.5	Precise	1	31	35	27	5.0	5.0	0.0	27	35	31	0.0	5.0	5.0	1	0.518	0.000	R	31	5.0	420.737	421.873	422.391	422.394	0
2	22110308	146	High	1.5	Precise	1	29	36	27	5.0	5.0	0.0	36	27	29	5.0	0.0	5.0	2	0.987	0.001	L	36	5.0	422.897	424.276	425.263	425.266	0
2	22110308	147	High	1.5	Vague	2	36	33	11	5.0	20.0	0.0	33	11	36	20.0	0.0	5.0	2	0.521	0.000	L	33	20.0	425.769	427.646	428.167	428.170	0
2	22110308	148	High	1.5	Vague	2	31	35	1	5.0	5.0	0.0	31	35	1	5.0	5.0	0.0	1	0.539	0.001	L	31	5.0	428.672	431.156	431.695	431.698	0
2	22110308	149	High	1.5	Precise	1	32	33	25	5.0	20.0	5.0	32	33	25	5.0	20.0	5.0	2	0.564	0.001	D	33	20.0	432.200	433.939	434.504	434.506	0
2	22110308	150	High	1.5	Vague	2	35	36	11	5.0	5.0	0.0	35	11	36	5.0	0.0	5.0	2	0.768	0.000	R	36	5.0	435.009	435.983	436.751	436.754	0
2	22110308	151	High	1.5	Precise	1	32	36	24	5.0	5.0	0.5	32	24	36	5.0	0.5	5.0	1	0.558	0.001	L	32	5.0	437.257	439.249	439.808	439.810	0
2	22110308	152	High	1.5	Vague	2	32	33	8	5.0	20.0	0.0	8	33	32	0.0	20.0	5.0	2	0.623	0.001	D	33	20.0	440.312	443.176	443.800	443.802	0
2	22110308	153	High	1.5	Precise	1	36	33	28	5.0	20.0	2.0	28	36	33	2.0	5.0	20.0	2	0.652	0.001	R	33	20.0	444.304	446.612	447.264	447.266	0
2	22110308	154	High	1.5	Vague	2	31	35	4	5.0	5.0	1.0	31	4	35	5.0	1.0	5.0	1	0.647	0.001	L	31	5.0	447.768	450.369	451.016	451.018	0
2	22110308	155	High	1.5	Precise	1	29	31	24	5.0	5.0	0.5	24	29	31	0.5	5.0	5.0	2	0.714	0.001	R	31	5.0	451.520	454.110	454.824	454.826	0
2	22110308	156	High	1.5	Vague	2	35	33	11	5.0	20.0	0.0	35	11	33	5.0	0.0	20.0	2	0.551	0.001	R	33	20.0	455.329	456.249	456.799	456.802	0
2	22110308	157	High	1.5	Vague	2	32	35	11	5.0	5.0	0.0	35	11	32	5.0	0.0	5.0	1	0.741	0.001	R	32	5.0	457.304	460.067	460.808	460.810	0
2	22110308	158	High	1.5	Vague	2	31	36	4	5.0	5.0	1.0	4	31	36	1.0	5.0	5.0	1	0.622	0.001	D	31	5.0	461.312	463.113	463.735	463.738	0
2	22110308	159	High	1.5	Vague	2	31	35	8	5.0	5.0	0.0	35	31	8	5.0	5.0	0.0	1	0.515	0.001	D	31	5.0	464.240	465.100	465.616	465.618	0
2	22110308	160	High	1.5	Precise	1	29	35	24	5.0	5.0	0.5	24	29	35	0.5	5.0	5.0	1	0.621	0.000	D	29	5.0	466.121	467.290	467.911	467.914	0
2	22110308	161	High	1.5	Vague	2	35	36	1	5.0	5.0	0.0	1	35	36	0.0	5.0	5.0	2	0.568	0.001	R	36	5.0	468.417	469.495	470.063	470.066	0
2	22110308	162	High	1.5	Vague	2	31	36	16	5.0	5.0	1.7	16	36	31	1.7	5.0	5.0	1	0.538	0.000	R	31	5.0	470.569	472.789	473.327	473.330	0
2	22110308	163	High	1.5	Vague	2	29	36	11	5.0	5.0	0.0	29	36	11	5.0	5.0	0.0	1	0.809	0.001	L	29	5.0	473.833	475.223	476.031	476.034	0
2	22110308	164	High	1.5	Precise	1	31	32	20	5.0	5.0	0.0	20	31	32	0.0	5.0	5.0	1	0.682	0.000	D	31	5.0	476.537	478.125	478.807	478.810	0
2	22110308	165	High	1.5	Vague	2	35	33	8	5.0	20.0	0.0	8	33	35	0.0	20.0	5.0	2	0.577	0.000	D	33	20.0	479.312	480.078	480.655	480.658	0
2	22110308	166	High	1.5	Precise	1	31	35	24	5.0	5.0	0.5	24	35	31	0.5	5.0	5.0	1	0.581	0.000	R	31	5.0	481.160	484.106	484.687	484.690	0
2	22110308	167	High	1.5	Vague	2	29	33	1	5.0	20.0	0.0	33	1	29	20.0	0.0	5.0	2	0.538	0.001	L	33	20.0	485.193	486.301	486.839	486.842	0
2	22110308	168	High	1.5	Precise	1	31	33	24	5.0	20.0	0.5	33	24	31	20.0	0.5	5.0	2	0.551	0.000	L	33	20.0	487.345	487.912	488.463	488.466	0
2	22110308	169	High	1.5	Vague	2	29	31	1	5.0	5.0	0.0	1	31	29	0.0	5.0	5.0	2	0.641	0.001	D	31	5.0	488.969	491.175	491.816	491.818	0
2	22110308	170	High	1.5	Precise	1	29	32	28	5.0	5.0	2.0	29	28	32	5.0	2.0	5.0	2	0.750	0.001	R	32	5.0	492.320	492.834	493.583	493.586	0
2	22110308	171	High	1.5	Vague	2	31	32	1	5.0	5.0	0.0	1	32	31	0.0	5.0	5.0	1	0.791	0.001	R	31	5.0	494.089	496.865	497.655	497.658	0
2	22110308	172	High	1.5	Precise	1	29	35	20	5.0	5.0	0.0	20	29	35	0.0	5.0	5.0	1	0.715	0.001	D	29	5.0	498.160	498.900	499.616	499.618	0
2	22110308	173	High	1.5	Vague	2	31	32	8	5.0	5.0	0.0	31	32	8	5.0	5.0	0.0	1	0.588	0.000	L	31	5.0	500.121	502.699	503.287	503.290	0
2	22110308	174	High	1.5	Vague	2	32	33	11	5.0	20.0	0.0	32	11	33	5.0	0.0	20.0	2	0.584	0.001	R	33	20.0	503.793	506.175	506.759	506.762	0
2	22110308	175	High	1.5	Precise	1	35	36	20	5.0	5.0	0.0	35	36	20	5.0	5.0	0.0	2	0.726	0.001	D	36	5.0	507.264	509.666	510.391	510.394	0
2	22110308	176	High	1.5	Precise	1	31	32	25	5.0	5.0	5.0	32	25	31	5.0	5.0	5.0	1	0.893	0.001	R	31	5.0	510.897	513.178	514.071	514.075	0
2	22110308	177	High	1.5	Vague	2	29	31	16	5.0	5.0	1.7	16	29	31	1.7	5.0	5.0	2	0.518	0.001	R	31	5.0	514.577	516.553	517.071	517.074	0
2	22110308	178	High	1.5	Precise	1	31	36	28	5.0	5.0	2.0	28	31	36	2.0	5.0	5.0	1	0.843	0.000	D	31	5.0	517.576	518.149	518.991	518.994	0
2	22110308	179	High	1.5	Precise	1	29	32	25	5.0	5.0	5.0	25	32	29	5.0	5.0	5.0	2	0.904	0.001	D	32	5.0	519.497	520.648	521.551	521.554	0
2	22110308	180	High	1.5	Precise	1	31	32	24	5.0	5.0	0.5	31	24	32	5.0	0.5	5.0	1	0.684	0.001	L	31	5.0	522.056	522.932	523.615	523.618	0
2	22110308	181	Low	10.0	Precise	1	31	35	26	5.0	5.0	1.3	35	26	31	5.0	1.3	5.0	1	0.683	0.001	R	31	5.0	529.842	531.100	531.783	531.786	0
2	22110308	182	Low	10.0	Vague	2	32	33	3	5.0	20.0	0.8	33	3	32	20.0	0.8	5.0	2	0.688	0.001	L	33	20.0	532.289	533.887	534.575	534.578	0
2	22110308	183	Low	10.0	Vague	2	35	33	7	5.0	20.0	1.0	35	7	33	5.0	1.0	20.0	2	0.722	0.000	R	33	20.0	535.080	536.637	537.359	537.362	0
2	22110308	184	Low	10.0	Vague	2	32	36	6	5.0	5.0	0.0	32	6	36	5.0	0.0	5.0	1	2.122	0.001	L	32	5.0	537.865	538.621	540.743	540.746	0
2	22110308	185	Low	10.0	Precise	1	29	36	34	5.0	5.0	0.0	29	36	34	5.0	5.0	0.0	1	1.393	0.001	L	29	5.0	541.248	542.711	544.103	544.106	0
2	22110308	186	Low	10.0	Precise	1	32	33	34	5.0	20.0	0.0	33	32	34	20.0	5.0	0.0	2	0.696	0.000	L	33	20.0	544.608	547.351	548.047	548.050	0
2	22110308	187	Low	10.0	Precise	1	35	33	34	5.0	20.0	0.0	34	33	35	0.0	20.0	5.0	2	0.685	0.001	D	33	20.0	548.552	550.194	550.879	550.882	0
2	22110308	188	Low	10.0	Vague	2	29	32	13	5.0	5.0	2.0	32	13	29	5.0	2.0	5.0	2	1.092	0.000	L	32	5.0	551.384	554.043	555.135	555.138	0
2	22110308	189	Low	10.0	Vague	2	31	36	2	5.0	5.0	0.0	36	31	2	5.0	5.0	0.0	1	1.222	0.000	D	31	5.0	555.640	556.682	557.903	557.906	0
2	22110308	190	Low	10.0	Vague	2	31	36	6	5.0	5.0	0.0	31	36	6	5.0	5.0	0.0	1	0.721	0.001	L	31	5.0	558.408	560.710	561.431	561.434	0
2	22110308	191	Low	10.0	Precise	1	29	32	34	5.0	5.0	0.0	32	29	34	5.0	5.0	0.0	2	1.157	0.001	L	32	5.0	561.937	563.763	564.919	564.922	0
2	22110308	192	Low	10.0	Vague	2	31	32	6	5.0	5.0	0.0	32	31	6	5.0	5.0	0.0	1	0.813	0.001	D	31	5.0	565.425	566.227	567.039	567.042	0
2	22110308	193	Low	10.0	Precise	1	32	36	19	5.0	5.0	0.0	32	36	19	5.0	5.0	0.0	1	1.032	0.000	L	32	5.0	567.546	570.519	571.551	571.554	0
2	22110308	194	Low	10.0	Precise	1	35	36	23	5.0	5.0	0.0	23	35	36	0.0	5.0	5.0	2	0.771	0.000	R	36	5.0	572.056	573.628	574.399	574.401	0
2	22110308	195	Low	10.0	Precise	1	35	33	19	5.0	20.0	0.0	35	33	19	5.0	20.0	0.0	2	0.567	0.001	D	33	20.0	574.905	576.361	576.927	576.930	0
2	22110308	196	Low	10.0	Vague	2	32	33	6	5.0	20.0	0.0	6	33	32	0.0	20.0	5.0	2	1.107	0.001	D	33	20.0	577.432	578.276	579.383	579.386	0
2	22110308	197	Low	10.0	Vague	2	35	33	13	5.0	20.0	2.0	35	33	13	5.0	20.0	2.0	2	0.759	0.001	D	33	20.0	579.889	581.552	582.311	582.314	0
2	22110308	198	Low	10.0	Precise	1	29	33	23	5.0	20.0	0.0	33	23	29	20.0	0.0	5.0	2	0.725	0.000	L	33	20.0	582.817	585.370	586.095	586.097	0
2	22110308	199	Low	10.0	Precise	1	31	33	19	5.0	20.0	0.0	33	31	19	20.0	5.0	0.0	2	0.609	0.000	L	33	20.0	586.601	587.758	588.367	588.369	0
2	22110308	200	Low	10.0	Vague	2	29	33	2	5.0	20.0	0.0	29	2	33	5.0	0.0	20.0	2	0.769	0.000	R	33	20.0	588.872	591.102	591.871	591.874	0
2	22110308	201	Low	10.0	Precise	1	36	33	26	5.0	20.0	1.3	33	36	26	20.0	5.0	1.3	2	0.623	0.001	L	33	20.0	592.377	593.593	594.215	594.218	0
2	22110308	202	Low	10.0	Vague	2	31	32	9	5.0	5.0	0.0	31	9	32	5.0	0.0	5.0	1	2.212	0.000	L	31	5.0	594.720	595.227	597.439	597.441	0
2	22110308	203	Low	10.0	Vague	2	31	33	7	5.0	20.0	1.0	31	7	33	5.0	1.0	20.0	2	0.677	0.001	R	33	20.0	597.944	598.555	599.231	599.234	0
2	22110308	204	Low	10.0	Precise	1	29	33	30	5.0	20.0	2.0	29	30	33	5.0	2.0	20.0	2	0.586	0.001	R	33	20.0	599.736	600.693	601.279	601.282	0
2	22110308	205	Low	10.0	Precise	1	29	35	34	5.0	5.0	0.0	34	35	29	0.0	5.0	5.0	1	1.038	0.000	R	29	5.0	601.784	603.753	604.791	604.794	0
2	22110308	206	Low	10.0	Vague	2	29	33	9	5.0	20.0	0.0	9	29	33	0.0	5.0	20.0	2	0.689	0.000	R	33	20.0	605.296	607.597	608.287	608.289	0
2	22110308	207	Low	10.0	Vague	2	36	33	7	5.0	20.0	1.0	33	7	36	20.0	1.0	5.0	2	0.725	0.000	L	33	20.0	608.792	609.794	610.519	610.521	0
2	22110308	208	Low	10.0	Precise	1	31	32	34	5.0	5.0	0.0	31	34	32	5.0	0.0	5.0	1	1.471	0.001	L	31	5.0	611.024	612.912	614.383	614.385	0
2	22110308	209	Low	10.0	Vague	2	32	35	6	5.0	5.0	0.0	32	35	6	5.0	5.0	0.0	1	1.103	0.000	L	32	5.0	614.888	616.872	617.975	617.977	0
2	22110308	210	Low	10.0	Precise	1	29	36	23	5.0	5.0	0.0	23	36	29	0.0	5.0	5.0	1	1.699	0.001	R	29	5.0	618.480	619.700	621.399	621.401	0
2	22110308	211	Low	10.0	Precise	1	29	31	21	5.0	5.0	0.0	21	31	29	0.0	5.0	5.0	2	1.305	0.001	D	31	5.0	621.904	622.862	624.167	624.170	0
2	22110308	212	Low	10.0	Precise	1	29	32	19	5.0	5.0	0.0	32	29	19	5.0	5.0	0.0	2	1.702	0.000	L	32	5.0	624.673	626.441	628.143	628.145	0
2	22110308	213	Low	10.0	Vague	2	31	36	7	5.0	5.0	1.0	31	36	7	5.0	5.0	1.0	1	1.355	0.001	L	31	5.0	628.648	631.509	632.863	632.866	0
2	22110308	214	Low	10.0	Vague	2	29	35	13	5.0	5.0	2.0	13	29	35	2.0	5.0	5.0	1	0.922	0.001	D	29	5.0	633.368	635.405	636.327	636.329	0
2	22110308	215	Low	10.0	Vague	2	29	32	3	5.0	5.0	0.8	29	32	3	5.0	5.0	0.8	2	1.291	0.000	D	32	5.0	636.832	638.004	639.295	639.298	0
2	22110308	216	Low	10.0	Precise	1	29	31	19	5.0	5.0	0.0	19	29	31	0.0	5.0	5.0	2	0.865	0.000	R	31	5.0	639.800	640.366	641.231	641.233	0
2	22110308	217	Low	10.0	Vague	2	29	33	6	5.0	20.0	0.0	33	29	6	20.0	5.0	0.0	2	0.679	0.001	L	33	20.0	641.736	642.312	642.991	642.994	0
2	22110308	218	Low	10.0	Vague	2	35	33	9	5.0	20.0	0.0	35	9	33	5.0	0.0	20.0	2	0.580	0.001	R	33	20.0	643.496	646.148	646.727	646.730	0
2	22110308	219	Low	10.0	Vague	2	32	33	13	5.0	20.0	2.0	32	33	13	5.0	20.0	2.0	2	0.706	0.001	D	33	20.0	647.233	647.934	648.639	648.642	0
2	22110308	220	Low	10.0	Vague	2	29	31	3	5.0	5.0	0.8	29	31	3	5.0	5.0	0.8	2	1.553	0.001	D	31	5.0	649.145	651.990	653.543	653.546	0
2	22110308	221	Low	10.0	Precise	1	32	36	26	5.0	5.0	1.3	36	26	32	5.0	1.3	5.0	1	1.656	0.000	R	32	5.0	654.048	657.015	658.671	658.673	0
2	22110308	222	Low	10.0	Precise	1	36	33	21	5.0	20.0	0.0	36	21	33	5.0	0.0	20.0	2	0.720	0.000	R	33	20.0	659.176	659.695	660.415	660.417	0
2	22110308	223	Low	10.0	Precise	1	29	35	30	5.0	5.0	2.0	30	35	29	2.0	5.0	5.0	1	1.023	0.000	R	29	5.0	660.920	661.472	662.495	662.497	0
2	22110308	224	Low	10.0	Precise	1	32	35	19	5.0	5.0	0.0	32	19	35	5.0	0.0	5.0	1	0.818	0.000	L	32	5.0	663.000	664.645	665.463	665.465	0
2	22110308	225	Low	10.0	Vague	2	35	36	7	5.0	5.0	1.0	7	35	36	1.0	5.0	5.0	2	1.427	0.001	R	36	5.0	665.968	667.764	669.191	669.194	0
2	22110308	226	Low	10.0	Vague	2	29	33	13	5.0	20.0	2.0	13	29	33	2.0	5.0	20.0	2	0.585	0.000	R	33	20.0	669.696	671.270	671.855	671.858	0
2	22110308	227	Low	10.0	Precise	1	31	35	30	5.0	5.0	2.0	35	31	30	5.0	5.0	2.0	1	0.958	0.000	D	31	5.0	672.361	673.929	674.887	674.889	0
2	22110308	228	Low	10.0	Precise	1	32	35	34	5.0	5.0	0.0	34	35	32	0.0	5.0	5.0	1	0.948	0.000	R	32	5.0	675.392	677.843	678.791	678.793	0
2	22110308	229	Low	10.0	Vague	2	29	36	6	5.0	5.0	0.0	36	6	29	5.0	0.0	5.0	1	1.218	0.001	R	29	5.0	679.296	679.894	681.111	681.113	0
2	22110308	230	Low	10.0	Precise	1	32	33	19	5.0	20.0	0.0	32	19	33	5.0	0.0	20.0	2	0.673	0.000	R	33	20.0	681.616	684.222	684.895	684.897	0
2	22110308	231	Low	10.0	Vague	2	31	33	3	5.0	20.0	0.8	3	31	33	0.8	5.0	20.0	2	0.998	0.001	R	33	20.0	685.400	687.673	688.671	688.674	0
2	22110308	232	Low	10.0	Precise	1	35	36	19	5.0	5.0	0.0	35	36	19	5.0	5.0	0.0	2	0.888	0.001	D	36	5.0	689.176	690.287	691.175	691.178	0
2	22110308	233	Low	10.0	Precise	1	32	36	34	5.0	5.0	0.0	36	32	34	5.0	5.0	0.0	1	1.371	0.001	D	32	5.0	691.680	694.365	695.735	695.738	0
2	22110308	234	Low	10.0	Precise	1	36	33	34	5.0	20.0	0.0	36	33	34	5.0	20.0	0.0	2	0.743	0.001	D	33	20.0	696.241	698.305	699.047	699.049	0
2	22110308	235	Low	10.0	Precise	1	31	33	23	5.0	20.0	0.0	23	31	33	0.0	5.0	20.0	2	0.748	0.001	R	33	20.0	699.552	700.427	701.175	701.177	0
2	22110308	236	Low	10.0	Vague	2	31	32	3	5.0	5.0	0.8	32	31	3	5.0	5.0	0.8	1	1.109	0.000	D	31	5.0	701.680	702.922	704.031	704.034	0
2	22110308	237	Low	10.0	Vague	2	32	35	13	5.0	5.0	2.0	35	32	13	5.0	5.0	2.0	1	1.004	0.001	D	32	5.0	704.536	705.795	706.799	706.802	0
2	22110308	238	Low	10.0	Precise	1	31	36	34	5.0	5.0	0.0	34	31	36	0.0	5.0	5.0	1	0.739	0.001	D	31	5.0	707.305	708.333	709.071	709.074	0
2	22110308	239	Low	10.0	Vague	2	32	36	9	5.0	5.0	0.0	9	36	32	0.0	5.0	5.0	1	1.296	0.001	R	32	5.0	709.576	711.687	712.983	712.986	0
2	22110308	240	Low	10.0	Vague	2	31	33	13	5.0	20.0	2.0	31	33	13	5.0	20.0	2.0	2	0.737	0.000	D	33	20.0	713.488	716.085	716.823	716.825	0
2	22110308	241	Low	10.0	Vague	2	31	36	13	5.0	5.0	2.0	31	36	13	5.0	5.0	2.0	1	0.726	0.001	L	31	5.0	721.728	722.977	723.703	723.706	0
2	22110308	242	Low	10.0	Vague	2	29	35	9	5.0	5.0	0.0	29	9	35	5.0	0.0	5.0	2	2.679	0.001	R	35	5.0	724.209	726.744	729.423	729.426	0
2	22110308	243	Low	10.0	Precise	1	35	33	21	5.0	20.0	0.0	21	33	35	0.0	20.0	5.0	2	1.001	0.000	D	33	20.0	729.928	731.990	732.991	732.993	0
2	22110308	244	Low	10.0	Precise	1	31	36	19	5.0	5.0	0.0	31	19	36	5.0	0.0	5.0	1	0.821	0.001	L	31	5.0	733.496	734.322	735.143	735.145	0
2	22110308	245	Low	10.0	Precise	1	29	31	30	5.0	5.0	2.0	30	31	29	2.0	5.0	5.0	2	0.956	0.000	D	31	5.0	735.648	737.772	738.727	738.730	0
2	22110308	246	Low	10.0	Vague	2	35	36	9	5.0	5.0	0.0	35	9	36	5.0	0.0	5.0	2	1.268	0.001	R	36	5.0	739.232	741.987	743.255	743.257	0
2	22110308	247	Low	10.0	Vague	2	29	32	9	5.0	5.0	0.0	32	9	29	5.0	0.0	5.0	2	1.162	0.001	L	32	5.0	743.760	745.421	746.583	746.585	0
2	22110308	248	Low	10.0	Vague	2	31	32	2	5.0	5.0	0.0	32	2	31	5.0	0.0	5.0	1	1.006	0.000	R	31	5.0	747.088	750.041	751.047	751.049	0
2	22110308	249	Low	10.0	Precise	1	31	32	23	5.0	5.0	0.0	31	23	32	5.0	0.0	5.0	1	0.896	0.001	L	31	5.0	751.552	752.887	753.783	753.785	0
2	22110308	250	Low	10.0	Precise	1	31	33	34	5.0	20.0	0.0	34	31	33	0.0	5.0	20.0	2	0.723	0.001	R	33	20.0	754.288	755.020	755.743	755.746	0
2	22110308	251	Low	10.0	Vague	2	29	31	9	5.0	5.0	0.0	31	9	29	5.0	0.0	5.0	2	0.894	0.001	L	31	5.0	756.248	758.849	759.743	759.746	0
2	22110308	252	Low	10.0	Vague	2	29	36	13	5.0	5.0	2.0	13	29	36	2.0	5.0	5.0	2	1.332	0.001	R	36	5.0	760.248	762.875	764.207	764.209	0
2	22110308	253	Low	10.0	Precise	1	35	33	23	5.0	20.0	0.0	33	23	35	20.0	0.0	5.0	2	0.626	0.001	L	33	20.0	764.712	765.461	766.087	766.090	0
2	22110308	254	Low	10.0	Vague	2	31	36	9	5.0	5.0	0.0	9	31	36	0.0	5.0	5.0	1	0.910	0.001	D	31	5.0	766.592	767.922	768.831	768.834	0
2	22110308	255	Low	10.0	Vague	2	29	35	2	5.0	5.0	0.0	29	2	35	5.0	0.0	5.0	2	1.248	0.000	R	35	5.0	769.336	770.142	771.391	771.393	0
2	22110308	256	Low	10.0	Precise	1	31	32	30	5.0	5.0	2.0	30	32	31	2.0	5.0	5.0	1	1.256	0.000	R	31	5.0	771.896	772.622	773.879	773.881	0
2	22110308	257	Low	10.0	Precise	1	32	35	21	5.0	5.0	0.0	21	32	35	0.0	5.0	5.0	1	0.761	0.001	D	32	5.0	774.384	776.630	777.391	777.394	0
2	22110308	258	Low	10.0	Vague	2	35	36	3	5.0	5.0	0.8	3	35	36	0.8	5.0	5.0	2	0.930	0.000	R	36	5.0	777.897	780.773	781.703	781.705	0
2	22110308	259	Low	10.0	Vague	2	29	32	6	5.0	5.0	0.0	6	29	32	0.0	5.0	5.0	2	0.817	0.000	R	32	5.0	782.208	782.813	783.631	783.633	0
2	22110308	260	Low	10.0	Precise	1	29	35	26	5.0	5.0	1.3	26	35	29	1.3	5.0	5.0	1	1.220	0.000	R	29	5.0	784.136	785.323	786.543	786.545	0
2	22110308	261	Low	10.0	Precise	1	29	36	30	5.0	5.0	2.0	36	30	29	5.0	2.0	5.0	2	1.361	0.001	L	36	5.0	787.048	789.798	791.159	791.161	0
2	22110308	262	Low	10.0	Vague	2	29	36	2	5.0	5.0	0.0	29	2	36	5.0	0.0	5.0	2	1.086	0.001	R	36	5.0	791.664	793.873	794.959	794.961	0
2	22110308	263	Low	10.0	Vague	2	31	33	6	5.0	20.0	0.0	6	31	33	0.0	5.0	20.0	2	0.913	0.001	R	33	20.0	795.464	796.246	797.159	797.161	0
2	22110308	264	Low	10.0	Vague	2	31	35	3	5.0	5.0	0.8	3	31	35	0.8	5.0	5.0	1	0.748	0.001	D	31	5.0	797.664	799.667	800.415	800.417	0
2	22110308	265	Low	10.0	Vague	2	32	33	9	5.0	20.0	0.0	9	32	33	0.0	5.0	20.0	2	0.606	0.001	R	33	20.0	800.920	802.665	803.271	803.273	0
2	22110308	266	Low	10.0	Precise	1	31	32	19	5.0	5.0	0.0	31	32	19	5.0	5.0	0.0	1	0.706	0.001	L	31	5.0	803.776	805.053	805.759	805.761	0
2	22110308	267	Low	10.0	Vague	2	35	36	6	5.0	5.0	0.0	6	36	35	0.0	5.0	5.0	2	1.261	0.000	D	36	5.0	806.264	807.585	808.847	808.849	0
2	22110308	268	Low	10.0	Vague	2	29	36	9	5.0	5.0	0.0	36	29	9	5.0	5.0	0.0	2	0.815	0.001	L	36	5.0	809.352	811.184	811.999	812.001	0
2	22110308	269	Low	10.0	Vague	2	32	35	7	5.0	5.0	1.0	35	7	32	5.0	1.0	5.0	1	0.981	0.001	R	32	5.0	812.505	813.450	814.431	814.433	0
2	22110308	270	Low	10.0	Precise	1	31	36	26	5.0	5.0	1.3	26	31	36	1.3	5.0	5.0	1	1.095	0.001	D	31	5.0	814.936	817.680	818.775	818.777	0
2	22110308	271	Low	10.0	Precise	1	29	31	26	5.0	5.0	1.3	26	29	31	1.3	5.0	5.0	2	0.647	0.000	R	31	5.0	819.280	821.751	822.398	822.401	0
2	22110308	272	Low	10.0	Vague	2	31	35	9	5.0	5.0	0.0	35	31	9	5.0	5.0	0.0	1	0.974	0.001	D	31	5.0	822.904	824.937	825.911	825.913	0
2	22110308	273	Low	10.0	Precise	1	29	32	30	5.0	5.0	2.0	30	29	32	2.0	5.0	5.0	2	1.044	0.001	R	32	5.0	826.416	828.491	829.535	829.538	0
2	22110308	274	Low	10.0	Precise	1	35	36	21	5.0	5.0	0.0	21	35	36	0.0	5.0	5.0	2	0.626	0.000	R	36	5.0	830.040	831.820	832.446	832.449	0
2	22110308	275	Low	10.0	Vague	2	29	33	7	5.0	20.0	1.0	29	33	7	5.0	20.0	1.0	2	0.746	0.001	D	33	20.0	832.952	833.821	834.567	834.569	0
2	22110308	276	Low	10.0	Precise	1	29	31	34	5.0	5.0	0.0	29	34	31	5.0	0.0	5.0	2	0.728	0.000	R	31	5.0	835.072	835.950	836.678	836.681	0
2	22110308	277	Low	10.0	Precise	1	29	35	19	5.0	5.0	0.0	19	35	29	0.0	5.0	5.0	2	1.031	0.001	D	35	5.0	837.184	839.880	840.911	840.913	0
2	22110308	278	Low	10.0	Precise	1	29	36	21	5.0	5.0	0.0	36	29	21	5.0	5.0	0.0	2	0.947	0.001	L	36	5.0	841.417	843.764	844.711	844.713	0
2	22110308	279	Low	10.0	Precise	1	35	36	26	5.0	5.0	1.3	36	35	26	5.0	5.0	1.3	2	0.919	0.001	L	36	5.0	845.216	846.592	847.511	847.513	0
2	22110308	280	Low	10.0	Precise	1	32	33	23	5.0	20.0	0.0	33	32	23	20.0	5.0	0.0	2	0.625	0.001	L	33	20.0	848.016	850.518	851.143	851.145	0
2	22110308	281	Low	10.0	Vague	2	36	33	3	5.0	20.0	0.8	33	3	36	20.0	0.8	5.0	2	0.618	0.000	L	33	20.0	851.648	854.173	854.790	854.793	0
2	22110308	282	Low	10.0	Precise	1	31	36	23	5.0	5.0	0.0	36	31	23	5.0	5.0	0.0	1	0.962	0.001	D	31	5.0	855.296	857.693	858.655	858.657	0
2	22110308	283	Low	10.0	Vague	2	36	33	6	5.0	20.0	0.0	36	6	33	5.0	0.0	20.0	2	0.829	0.000	R	33	20.0	859.160	861.345	862.175	862.177	0
2	22110308	284	Low	10.0	Vague	2	35	33	2	5.0	20.0	0.0	33	35	2	20.0	5.0	0.0	2	1.048	0.000	L	33	20.0	862.680	864.887	865.935	865.937	0
2	22110308	285	Low	10.0	Vague	2	36	33	9	5.0	20.0	0.0	33	36	9	20.0	5.0	0.0	2	0.909	0.000	L	33	20.0	866.440	867.313	868.223	868.225	0
2	22110308	286	Low	10.0	Precise	1	32	35	23	5.0	5.0	0.0	23	32	35	0.0	5.0	5.0	1	1.323	0.001	D	32	5.0	868.728	871.581	872.903	872.906	0
2	22110308	287	Low	10.0	Precise	1	31	35	19	5.0	5.0	0.0	19	31	35	0.0	5.0	5.0	1	1.247	0.001	D	31	5.0	873.408	875.480	876.727	876.730	0
2	22110308	288	Low	10.0	Precise	1	29	36	19	5.0	5.0	0.0	36	29	19	5.0	5.0	0.0	2	1.061	0.001	L	36	5.0	877.232	879.770	880.831	880.833	0
2	22110308	289	Low	10.0	Vague	2	29	35	7	5.0	5.0	1.0	7	35	29	1.0	5.0	5.0	2	1.393	0.000	D	35	5.0	881.336	881.846	883.239	883.241	0
2	22110308	290	Low	10.0	Precise	1	32	33	21	5.0	20.0	0.0	32	21	33	5.0	0.0	20.0	2	0.630	0.000	R	33	20.0	883.744	885.849	886.478	886.482	0
2	22110308	291	Low	10.0	Precise	1	31	35	34	5.0	5.0	0.0	35	31	34	5.0	5.0	0.0	1	0.763	0.000	D	31	5.0	886.984	888.804	889.567	889.569	0
2	22110308	292	Low	10.0	Precise	1	35	36	30	5.0	5.0	2.0	36	35	30	5.0	5.0	2.0	2	1.079	0.000	L	36	5.0	890.072	892.703	893.783	893.785	0
2	22110308	293	Low	10.0	Vague	2	32	33	2	5.0	20.0	0.0	2	32	33	0.0	5.0	20.0	2	0.859	0.000	R	33	20.0	894.288	895.691	896.550	896.553	0
2	22110308	294	Low	10.0	Vague	2	32	33	7	5.0	20.0	1.0	33	7	32	20.0	1.0	5.0	2	1.196	0.001	L	33	20.0	897.056	898.051	899.247	899.249	0
2	22110308	295	Low	10.0	Vague	2	32	36	2	5.0	5.0	0.0	32	2	36	5.0	0.0	5.0	2	1.256	0.000	R	36	5.0	899.752	900.415	901.671	901.673	0
2	22110308	296	Low	10.0	Precise	1	35	36	34	5.0	5.0	0.0	36	35	34	5.0	5.0	0.0	2	0.919	0.001	L	36	5.0	902.176	904.296	905.215	905.217	0
2	22110308	297	Low	10.0	Precise	1	29	31	23	5.0	5.0	0.0	31	23	29	5.0	0.0	5.0	2	0.813	0.000	L	31	5.0	905.720	906.554	907.367	907.369	0
2	22110308	298	Low	10.0	Precise	1	31	33	26	5.0	20.0	1.3	31	33	26	5.0	20.0	1.3	2	1.006	0.001	D	33	20.0	907.872	910.104	911.111	911.113	0
2	22110308	299	Low	10.0	Vague	2	29	31	13	5.0	5.0	2.0	13	29	31	2.0	5.0	5.0	2	1.072	0.001	R	31	5.0	911.616	912.895	913.967	913.969	0
2	22110308	300	Low	10.0	Precise	1	29	32	26	5.0	5.0	1.3	29	26	32	5.0	1.3	5.0	2	1.205	0.001	R	32	5.0	914.472	916.746	917.951	917.953	0
2	22110308	301	Low	10.0	Vague	2	36	33	2	5.0	20.0	0.0	36	33	2	5.0	20.0	0.0	2	0.798	0.000	D	33	20.0	922.796	924.048	924.846	924.850	0
2	22110308	302	Low	10.0	Vague	2	32	35	9	5.0	5.0	0.0	32	35	9	5.0	5.0	0.0	1	1.700	0.000	L	32	5.0	925.352	927.411	929.111	929.113	0
2	22110308	303	Low	10.0	Vague	2	31	35	13	5.0	5.0	2.0	35	31	13	5.0	5.0	2.0	1	0.631	0.001	D	31	5.0	929.616	932.520	933.151	933.153	0
2	22110308	304	Low	10.0	Vague	2	29	35	3	5.0	5.0	0.8	35	29	3	5.0	5.0	0.8	2	1.557	0.001	L	35	5.0	933.656	936.146	937.703	937.705	0
2	22110308	305	Low	10.0	Vague	2	29	31	6	5.0	5.0	0.0	6	29	31	0.0	5.0	5.0	2	1.093	0.001	R	31	5.0	938.208	940.850	941.943	941.945	0
2	22110308	306	Low	10.0	Vague	2	29	32	7	5.0	5.0	1.0	7	29	32	1.0	5.0	5.0	2	1.246	0.001	R	32	5.0	942.448	944.440	945.687	945.690	0
2	22110308	307	Low	10.0	Vague	2	31	33	9	5.0	20.0	0.0	31	9	33	5.0	0.0	20.0	2	0.631	0.000	R	33	20.0	946.192	948.063	948.694	948.697	0
2	22110308	308	Low	10.0	Precise	1	29	33	21	5.0	20.0	0.0	21	29	33	0.0	5.0	20.0	2	0.567	0.001	R	33	20.0	949.200	951.592	952.159	952.161	0
2	22110308	309	Low	10.0	Vague	2	32	35	3	5.0	5.0	0.8	3	35	32	0.8	5.0	5.0	1	0.662	0.001	R	32	5.0	952.664	955.001	955.663	955.665	0
2	22110308	310	Low	10.0	Precise	1	32	36	23	5.0	5.0	0.0	32	36	23	5.0	5.0	0.0	1	0.932	0.001	L	32	5.0	956.168	957.938	958.871	958.873	0
2	22110308	311	Low	10.0	Precise	1	35	33	30	5.0	20.0	2.0	35	30	33	5.0	2.0	20.0	2	0.520	0.001	R	33	20.0	959.376	960.870	961.391	961.393	0
2	22110308	312	Low	10.0	Vague	2	32	36	3	5.0	5.0	0.8	3	32	36	0.8	5.0	5.0	1	0.815	0.001	D	32	5.0	961.896	963.600	964.415	964.417	0
2	22110308	313	Low	10.0	Vague	2	31	35	2	5.0	5.0	0.0	2	35	31	0.0	5.0	5.0	1	0.698	0.001	R	31	5.0	964.920	967.541	968.239	968.241	0
2	22110308	314	Low	10.0	Precise	1	31	35	21	5.0	5.0	0.0	31	21	35	5.0	0.0	5.0	1	0.724	0.001	L	31	5.0	968.743	971.499	972.223	972.225	0
2	22110308	315	Low	10.0	Vague	2	29	36	3	5.0	5.0	0.8	36	3	29	5.0	0.8	5.0	2	1.375	0.000	L	36	5.0	972.728	973.607	974.982	974.985	0
2	22110308	316	Low	10.0	Vague	2	35	36	13	5.0	5.0	2.0	35	13	36	5.0	2.0	5.0	2	0.791	0.000	R	36	5.0	975.488	977.367	978.159	978.161	0
2	22110308	317	Low	10.0	Vague	2	32	36	7	5.0	5.0	1.0	32	36	7	5.0	5.0	1.0	2	1.370	0.001	D	36	5.0	978.664	981.333	982.703	982.705	0
2	22110308	318	Low	10.0	Precise	1	29	33	26	5.0	20.0	1.3	29	26	33	5.0	1.3	20.0	2	0.677	0.000	R	33	20.0	983.208	985.833	986.510	986.513	0
2	22110308	319	Low	10.0	Precise	1	36	33	23	5.0	20.0	0.0	36	33	23	5.0	20.0	0.0	2	0.637	0.001	D	33	20.0	987.016	988.866	989.503	989.505	0
2	22110308	320	Low	10.0	Precise	1	31	32	26	5.0	5.0	1.3	32	31	26	5.0	5.0	1.3	1	0.871	0.001	D	31	5.0	990.007	991.032	991.903	991.905	0
2	22110308	321	Low	10.0	Vague	2	29	33	3	5.0	20.0	0.8	33	29	3	20.0	5.0	0.8	2	1.092	0.000	L	33	20.0	992.408	993.898	994.990	994.993	0
2	22110308	322	Low	10.0	Precise	1	29	32	23	5.0	5.0	0.0	23	29	32	0.0	5.0	5.0	2	0.845	0.001	R	32	5.0	995.495	997.858	998.703	998.705	0
2	22110308	323	Low	10.0	Vague	2	31	35	6	5.0	5.0	0.0	35	31	6	5.0	5.0	0.0	1	0.728	0.001	D	31	5.0	999.207	1001.415	1002.143	1002.145	0
2	22110308	324	Low	10.0	Vague	2	31	33	2	5.0	20.0	0.0	2	33	31	0.0	20.0	5.0	2	0.678	0.000	D	33	20.0	1002.647	1003.496	1004.174	1004.178	0
2	22110308	325	Low	10.0	Vague	2	29	36	7	5.0	5.0	1.0	29	7	36	5.0	1.0	5.0	2	2.493	0.001	R	36	5.0	1004.681	1005.593	1008.087	1008.089	0
2	22110308	326	Low	10.0	Vague	2	35	36	2	5.0	5.0	0.0	36	35	2	5.0	5.0	0.0	2	0.901	0.000	L	36	5.0	1008.592	1010.881	1011.782	1011.785	0
2	22110308	327	Low	10.0	Precise	1	35	33	26	5.0	20.0	1.3	26	33	35	1.3	20.0	5.0	2	0.553	0.001	D	33	20.0	1012.287	1013.470	1014.023	1014.025	0
2	22110308	328	Low	10.0	Vague	2	31	36	3	5.0	5.0	0.8	36	31	3	5.0	5.0	0.8	1	0.854	0.001	D	31	5.0	1014.528	1016.089	1016.943	1016.945	0
2	22110308	329	Low	10.0	Precise	1	31	32	21	5.0	5.0	0.0	21	32	31	0.0	5.0	5.0	1	0.939	0.001	R	31	5.0	1017.448	1018.132	1019.071	1019.073	0
2	22110308	330	Low	10.0	Precise	1	31	35	23	5.0	5.0	0.0	23	31	35	0.0	5.0	5.0	1	0.538	0.001	D	31	5.0	1019.576	1020.373	1020.911	1020.913	0
2	22110308	331	Low	10.0	Vague	2	31	32	7	5.0	5.0	1.0	7	32	31	1.0	5.0	5.0	1	0.861	0.000	R	31	5.0	1021.416	1022.522	1023.382	1023.385	0
2	22110308	332	Low	10.0	Vague	2	32	35	2	5.0	5.0	0.0	32	35	2	5.0	5.0	0.0	1	0.616	0.000	L	32	5.0	1023.887	1026.062	1026.678	1026.681	0
2	22110308	333	Low	10.0	Vague	2	36	33	13	5.0	20.0	2.0	33	36	13	20.0	5.0	2.0	2	0.589	0.001	L	33	20.0	1027.183	1029.554	1030.143	1030.145	0
2	22110308	334	Low	10.0	Vague	2	29	32	2	5.0	5.0	0.0	2	32	29	0.0	5.0	5.0	2	0.980	0.001	D	32	5.0	1030.647	1031.707	1032.687	1032.689	0
2	22110308	335	Low	10.0	Precise	1	29	35	21	5.0	5.0	0.0	21	35	29	0.0	5.0	5.0	2	1.372	0.001	D	35	5.0	1033.192	1034.227	1035.599	1035.601	0
2	22110308	336	Low	10.0	Vague	2	35	33	3	5.0	20.0	0.8	33	3	35	20.0	0.8	5.0	2	0.637	0.001	L	33	20.0	1036.103	1038.106	1038.743	1038.745	0
2	22110308	337	Low	10.0	Precise	1	31	33	30	5.0	20.0	2.0	33	31	30	20.0	5.0	2.0	2	0.823	0.000	L	33	20.0	1039.248	1040.767	1041.590	1041.593	0
2	22110308	338	Low	10.0	Precise	1	29	33	19	5.0	20.0	0.0	19	29	33	0.0	5.0	20.0	2	0.701	0.000	R	33	20.0	1042.095	1042.650	1043.350	1043.353	0
2	22110308	339	Low	10.0	Precise	1	32	33	30	5.0	20.0	2.0	32	33	30	5.0	20.0	2.0	2	0.624	0.001	D	33	20.0	1043.856	1046.126	1046.751	1046.753	0
2	22110308	340	Low	10.0	Vague	2	35	33	6	5.0	20.0	0.0	35	6	33	5.0	0.0	20.0	2	0.592	0.001	R	33	20.0	1047.255	1048.599	1049.191	1049.193	0
2	22110308	341	Low	10.0	Vague	2	31	35	7	5.0	5.0	1.0	7	31	35	1.0	5.0	5.0	1	0.731	0.001	D	31	5.0	1049.695	1051.396	1052.127	1052.130	0
2	22110308	342	Low	10.0	Precise	1	32	35	30	5.0	5.0	2.0	32	35	30	5.0	5.0	2.0	1	1.315	0.001	L	32	5.0	1052.633	1055.004	1056.319	1056.321	0
2	22110308	343	Low	10.0	Precise	1	32	35	26	5.0	5.0	1.3	35	32	26	5.0	5.0	1.3	1	0.845	0.001	D	32	5.0	1056.824	1058.386	1059.231	1059.233	0
2	22110308	344	Low	10.0	Precise	1	29	33	34	5.0	20.0	0.0	29	34	33	5.0	0.0	20.0	2	0.641	0.001	R	33	20.0	1059.736	1061.517	1062.159	1062.161	0
2	22110308	345	Low	10.0	Precise	1	31	36	21	5.0	5.0	0.0	36	21	31	5.0	0.0	5.0	1	0.735	0.000	R	31	5.0	1062.663	1064.760	1065.494	1065.497	0
2	22110308	346	Low	10.0	Vague	2	29	31	2	5.0	5.0	0.0	29	31	2	5.0	5.0	0.0	2	0.962	0.001	D	31	5.0	1066.000	1067.421	1068.383	1068.385	0
2	22110308	347	Low	10.0	Precise	1	32	36	21	5.0	5.0	0.0	32	21	36	5.0	0.0	5.0	1	1.289	0.001	L	32	5.0	1068.887	1069.501	1070.791	1070.793	0
2	22110308	348	Low	10.0	Precise	1	36	33	19	5.0	20.0	0.0	36	19	33	5.0	0.0	20.0	2	0.593	0.001	R	33	20.0	1071.295	1072.974	1073.567	1073.569	0
2	22110308	349	Low	10.0	Vague	2	29	35	6	5.0	5.0	0.0	29	6	35	5.0	0.0	5.0	1	1.998	0.000	L	29	5.0	1074.072	1076.560	1078.558	1078.561	0
2	22110308	350	Low	10.0	Precise	1	29	35	23	5.0	5.0	0.0	23	35	29	0.0	5.0	5.0	1	0.972	0.001	R	29	5.0	1079.064	1079.987	1080.959	1080.961	0
2	22110308	351	Low	10.0	Vague	2	32	36	13	5.0	5.0	2.0	13	36	32	2.0	5.0	5.0	1	0.915	0.001	R	32	5.0	1081.464	1083.724	1084.639	1084.641	0
2	22110308	352	Low	10.0	Vague	2	29	31	7	5.0	5.0	1.0	31	29	7	5.0	5.0	1.0	2	0.761	0.000	L	31	5.0	1085.144	1086.677	1087.438	1087.441	0
2	22110308	353	Low	10.0	Precise	1	31	33	21	5.0	20.0	0.0	21	33	31	0.0	20.0	5.0	2	0.811	0.001	D	33	20.0	1087.944	1089.796	1090.607	1090.609	0
2	22110308	354	Low	10.0	Precise	1	29	36	26	5.0	5.0	1.3	36	29	26	5.0	5.0	1.3	2	1.636	0.001	L	36	5.0	1091.112	1092.475	1094.111	1094.113	0
2	22110308	355	Low	10.0	Precise	1	32	33	26	5.0	20.0	1.3	26	33	32	1.3	20.0	5.0	2	0.595	0.001	D	33	20.0	1094.616	1095.356	1095.951	1095.953	0
2	22110308	356	Low	10.0	Precise	1	32	36	30	5.0	5.0	2.0	36	32	30	5.0	5.0	2.0	2	1.441	0.001	L	36	5.0	1096.456	1098.558	1099.999	1100.001	0
2	22110308	357	Low	10.0	Precise	1	36	33	30	5.0	20.0	2.0	30	33	36	2.0	20.0	5.0	2	0.679	0.001	D	33	20.0	1100.504	1102.312	1102.991	1102.993	0
2	22110308	358	Low	10.0	Precise	1	29	32	21	5.0	5.0	0.0	21	29	32	0.0	5.0	5.0	2	0.635	0.001	R	32	5.0	1103.496	1104.324	1104.959	1104.961	0
2	22110308	359	Low	10.0	Precise	1	31	36	30	5.0	5.0	2.0	30	31	36	2.0	5.0	5.0	1	0.763	0.001	D	31	5.0	1105.464	1107.172	1107.935	1107.937	0
2	22110308	360	Low	10.0	Vague	2	31	32	13	5.0	5.0	2.0	13	31	32	2.0	5.0	5.0	2	1.066	0.000	R	32	5.0	1108.440	1111.252	1112.318	1112.321	0
