Group	subID	trial	TimePressure	TimeConstraint	Vagueness	Vaguenesscode	ID1	ID2	ID3	V1	V2	V3	ID_left	ID_middle	ID_right	Bid_left	Bid_middle	Bid_right	chosenItem	RT	RTvariance	chosenPosition	chosenID	chosenValue	fixation_time	option_time	choice_time	feedback_time	timeout
2	22071904	1	High	1.5	Vague	2	34	26	6	55.2	60.0	10.0	6	34	26	10.0	55.2	60.0	1	1.018	0.001	D	34	55.2	4.810	7.011	8.029	8.033	0
2	22071904	2	High	1.5	Precise	1	30	35	19	45.2	50.0	6.7	19	30	35	6.7	45.2	50.0	1	1.174	0.000	D	30	45.2	8.538	10.927	12.101	12.104	0
2	22071904	3	High	1.5	Precise	1	34	26	19	55.2	60.0	6.7	19	26	34	6.7	60.0	55.2	1	1.285	0.000	R	34	55.2	12.608	13.656	14.941	14.944	0
2	22071904	4	High	1.5	Precise	1	26	33	27	60.0	80.0	20.0	27	26	33	20.0	60.0	80.0	NaN	NaN	NaN	NaN	NaN	NaN	15.447	18.266	NaN	19.757	1
2	22071904	5	High	1.5	Vague	2	30	33	6	45.2	80.0	10.0	30	33	6	45.2	80.0	10.0	1	0.978	0.000	L	30	45.2	21.761	23.115	24.093	24.098	0
2	22071904	6	High	1.5	Vague	2	35	34	5	50.0	55.2	20.0	5	34	35	20.0	55.2	50.0	2	0.973	0.000	D	34	55.2	24.604	25.760	26.733	26.736	0
2	22071904	7	High	1.5	Vague	2	34	33	3	55.2	80.0	8.3	33	3	34	80.0	8.3	55.2	1	0.831	0.001	R	34	55.2	27.239	30.126	30.957	30.960	0
2	22071904	8	High	1.5	Precise	1	30	33	29	45.2	80.0	18.7	30	33	29	45.2	80.0	18.7	1	0.848	0.000	L	30	45.2	31.464	33.557	34.405	34.408	0
2	22071904	9	High	1.5	Vague	2	30	34	1	45.2	55.2	8.0	34	1	30	55.2	8.0	45.2	2	1.104	0.000	L	34	55.2	34.910	37.349	38.453	38.456	0
2	22071904	10	High	1.5	Vague	2	34	33	5	55.2	80.0	20.0	33	5	34	80.0	20.0	55.2	1	1.186	0.000	R	34	55.2	38.959	40.259	41.445	41.447	0
2	22071904	11	High	1.5	Vague	2	36	33	6	43.3	80.0	10.0	33	6	36	80.0	10.0	43.3	1	0.790	0.000	R	36	43.3	41.951	42.951	43.741	43.744	0
2	22071904	12	High	1.5	Precise	1	36	26	23	43.3	60.0	2.5	36	23	26	43.3	2.5	60.0	1	0.997	0.000	L	36	43.3	44.247	45.217	46.213	46.216	0
2	22071904	13	High	1.5	Precise	1	36	34	27	43.3	55.2	20.0	27	36	34	20.0	43.3	55.2	1	1.106	0.000	D	36	43.3	46.718	48.227	49.333	49.336	0
2	22071904	14	High	1.5	Precise	1	30	35	21	45.2	50.0	2.0	35	21	30	50.0	2.0	45.2	2	1.024	0.001	L	35	50.0	49.838	52.750	53.773	53.776	0
2	22071904	15	High	1.5	Precise	1	35	26	19	50.0	60.0	6.7	19	26	35	6.7	60.0	50.0	1	0.885	0.000	R	35	50.0	54.279	56.631	57.517	57.519	0
2	22071904	16	High	1.5	Precise	1	36	30	21	43.3	45.2	2.0	36	21	30	43.3	2.0	45.2	1	0.770	0.001	L	36	43.3	58.022	58.940	59.709	59.712	0
2	22071904	17	High	1.5	Precise	1	36	34	29	43.3	55.2	18.7	34	29	36	55.2	18.7	43.3	1	1.231	0.000	R	36	43.3	60.214	62.150	63.381	63.383	0
2	22071904	18	High	1.5	Vague	2	35	33	7	50.0	80.0	21.7	33	35	7	80.0	50.0	21.7	1	0.928	0.000	D	35	50.0	63.886	65.517	66.445	66.448	0
2	22071904	19	High	1.5	Vague	2	36	35	16	43.3	50.0	25.0	16	36	35	25.0	43.3	50.0	3	1.030	0.001	L	16	25.0	66.951	69.207	70.237	70.240	0
2	22071904	20	High	1.5	Vague	2	35	26	3	50.0	60.0	8.3	3	35	26	8.3	50.0	60.0	1	0.739	0.001	D	35	50.0	70.743	73.418	74.157	74.160	0
2	22071904	21	High	1.5	Vague	2	30	35	7	45.2	50.0	21.7	30	7	35	45.2	21.7	50.0	1	0.758	0.001	L	30	45.2	74.663	76.303	77.061	77.064	0
2	22071904	22	High	1.5	Precise	1	35	26	21	50.0	60.0	2.0	21	26	35	2.0	60.0	50.0	1	0.923	0.000	R	35	50.0	77.567	78.153	79.077	79.079	0
2	22071904	23	High	1.5	Precise	1	34	33	28	55.2	80.0	26.8	34	33	28	55.2	80.0	26.8	1	0.714	0.000	L	34	55.2	79.582	82.147	82.861	82.863	0
2	22071904	24	High	1.5	Precise	1	36	34	21	43.3	55.2	2.0	36	21	34	43.3	2.0	55.2	1	0.793	0.001	L	36	43.3	83.366	84.253	85.045	85.048	0
2	22071904	25	High	1.5	Vague	2	36	34	7	43.3	55.2	21.7	36	34	7	43.3	55.2	21.7	1	1.040	0.001	L	36	43.3	85.551	88.445	89.485	89.488	0
2	22071904	26	High	1.5	Precise	1	34	33	29	55.2	80.0	18.7	29	33	34	18.7	80.0	55.2	1	0.554	0.001	R	34	55.2	89.990	92.507	93.061	93.064	0
2	22071904	27	High	1.5	Vague	2	36	34	1	43.3	55.2	8.0	36	1	34	43.3	8.0	55.2	2	0.890	0.000	R	34	55.2	93.567	94.803	95.693	95.696	0
2	22071904	28	High	1.5	Precise	1	30	35	29	45.2	50.0	18.7	30	35	29	45.2	50.0	18.7	1	0.664	0.000	L	30	45.2	96.199	97.821	98.485	98.487	0
2	22071904	29	High	1.5	Vague	2	30	26	6	45.2	60.0	10.0	26	30	6	60.0	45.2	10.0	1	1.304	0.000	D	30	45.2	98.990	101.557	102.861	102.864	0
2	22071904	30	High	1.5	Vague	2	36	30	1	43.3	45.2	8.0	1	36	30	8.0	43.3	45.2	NaN	NaN	NaN	NaN	NaN	NaN	103.367	104.467	NaN	105.954	1
2	22071904	31	High	1.5	Precise	1	36	26	27	43.3	60.0	20.0	26	27	36	60.0	20.0	43.3	1	0.817	0.000	R	36	43.3	107.958	110.196	111.013	111.016	0
2	22071904	32	High	1.5	Precise	1	30	33	27	45.2	80.0	20.0	33	27	30	80.0	20.0	45.2	1	0.591	0.000	R	30	45.2	111.518	112.686	113.277	113.280	0
2	22071904	33	High	1.5	Precise	1	35	34	23	50.0	55.2	2.5	35	34	23	50.0	55.2	2.5	2	0.932	0.001	D	34	55.2	113.782	114.457	115.389	115.392	0
2	22071904	34	High	1.5	Precise	1	34	33	19	55.2	80.0	6.7	34	19	33	55.2	6.7	80.0	1	0.662	0.001	L	34	55.2	115.894	117.247	117.909	117.912	0
2	22071904	35	High	1.5	Precise	1	35	33	29	50.0	80.0	18.7	33	35	29	80.0	50.0	18.7	3	0.739	0.000	R	29	18.7	118.415	119.361	120.101	120.103	0
2	22071904	36	High	1.5	Vague	2	35	33	5	50.0	80.0	20.0	5	33	35	20.0	80.0	50.0	1	0.753	0.001	R	35	50.0	120.606	121.852	122.605	122.607	0
2	22071904	37	High	1.5	Precise	1	30	26	28	45.2	60.0	26.8	28	30	26	26.8	45.2	60.0	3	1.019	0.000	L	28	26.8	123.111	124.666	125.685	125.687	0
2	22071904	38	High	1.5	Precise	1	36	34	28	43.3	55.2	26.8	28	34	36	26.8	55.2	43.3	2	0.628	0.000	D	34	55.2	126.190	127.433	128.061	128.063	0
2	22071904	39	High	1.5	Precise	1	26	33	19	60.0	80.0	6.7	19	26	33	6.7	60.0	80.0	1	0.723	0.000	D	26	60.0	128.566	130.266	130.989	130.991	0
2	22071904	40	High	1.5	Vague	2	35	34	16	50.0	55.2	25.0	16	34	35	25.0	55.2	50.0	3	1.120	0.000	L	16	25.0	131.496	132.189	133.309	133.311	0
2	22071904	41	High	1.5	Vague	2	30	26	3	45.2	60.0	8.3	30	26	3	45.2	60.0	8.3	1	0.800	0.000	L	30	45.2	133.814	136.302	137.101	137.103	0
2	22071904	42	High	1.5	Vague	2	34	26	16	55.2	60.0	25.0	34	26	16	55.2	60.0	25.0	1	0.590	0.000	L	34	55.2	137.606	139.286	139.877	139.879	0
2	22071904	43	High	1.5	Vague	2	30	26	16	45.2	60.0	25.0	16	26	30	25.0	60.0	45.2	3	0.521	0.000	L	16	25.0	140.382	143.244	143.765	143.767	0
2	22071904	44	High	1.5	Vague	2	36	30	16	43.3	45.2	25.0	16	36	30	25.0	43.3	45.2	3	0.921	0.000	L	16	25.0	144.270	146.548	147.469	147.472	0
2	22071904	45	High	1.5	Precise	1	30	26	27	45.2	60.0	20.0	30	27	26	45.2	20.0	60.0	1	1.191	0.000	L	30	45.2	147.975	150.629	151.821	151.823	0
2	22071904	46	High	1.5	Vague	2	36	30	7	43.3	45.2	21.7	36	7	30	43.3	21.7	45.2	1	0.728	0.001	L	36	43.3	152.327	155.229	155.957	155.960	0
2	22071904	47	High	1.5	Precise	1	36	35	23	43.3	50.0	2.5	23	36	35	2.5	43.3	50.0	2	0.707	0.001	R	35	50.0	156.463	159.075	159.781	159.783	0
2	22071904	48	High	1.5	Precise	1	34	26	28	55.2	60.0	26.8	26	28	34	60.0	26.8	55.2	1	0.917	0.000	R	34	55.2	160.287	162.072	162.989	162.991	0
2	22071904	49	High	1.5	Vague	2	35	33	3	50.0	80.0	8.3	3	33	35	8.3	80.0	50.0	1	0.814	0.001	R	35	50.0	163.495	165.159	165.973	165.976	0
2	22071904	50	High	1.5	Precise	1	35	26	28	50.0	60.0	26.8	26	28	35	60.0	26.8	50.0	1	0.700	0.000	R	35	50.0	166.479	168.033	168.733	168.735	0
2	22071904	51	High	1.5	Vague	2	30	34	5	45.2	55.2	20.0	5	30	34	20.0	45.2	55.2	2	0.583	0.000	R	34	55.2	169.238	170.174	170.757	170.759	0
2	22071904	52	High	1.5	Vague	2	34	26	3	55.2	60.0	8.3	34	3	26	55.2	8.3	60.0	1	0.585	0.000	L	34	55.2	171.263	172.988	173.573	173.575	0
2	22071904	53	High	1.5	Precise	1	26	33	29	60.0	80.0	18.7	29	26	33	18.7	60.0	80.0	3	0.759	0.000	L	29	18.7	174.079	175.734	176.493	176.495	0
2	22071904	54	High	1.5	Precise	1	36	34	23	43.3	55.2	2.5	23	34	36	2.5	55.2	43.3	2	0.933	0.000	D	34	55.2	176.998	179.904	180.837	180.839	0
2	22071904	55	High	1.5	Precise	1	34	26	23	55.2	60.0	2.5	23	26	34	2.5	60.0	55.2	1	0.538	0.000	R	34	55.2	181.343	183.043	183.581	183.583	0
2	22071904	56	High	1.5	Vague	2	30	35	6	45.2	50.0	10.0	30	35	6	45.2	50.0	10.0	1	0.718	0.000	L	30	45.2	184.086	186.759	187.477	187.479	0
2	22071904	57	High	1.5	Precise	1	30	33	21	45.2	80.0	2.0	33	21	30	80.0	2.0	45.2	1	0.902	0.001	R	30	45.2	187.983	189.311	190.213	190.216	0
2	22071904	58	High	1.5	Precise	1	30	34	21	45.2	55.2	2.0	21	34	30	2.0	55.2	45.2	2	0.806	0.000	D	34	55.2	190.719	193.071	193.877	193.879	0
2	22071904	59	High	1.5	Vague	2	36	35	7	43.3	50.0	21.7	36	7	35	43.3	21.7	50.0	1	0.716	0.001	L	36	43.3	194.382	195.385	196.101	196.104	0
2	22071904	60	High	1.5	Vague	2	36	26	3	43.3	60.0	8.3	3	36	26	8.3	43.3	60.0	1	0.963	0.000	D	36	43.3	196.607	198.538	199.501	199.503	0
2	22071904	61	High	1.5	Precise	1	36	35	21	43.3	50.0	2.0	36	35	21	43.3	50.0	2.0	1	0.750	0.000	L	36	43.3	204.839	205.335	206.085	206.087	0
2	22071904	62	High	1.5	Precise	1	35	26	23	50.0	60.0	2.5	26	23	35	60.0	2.5	50.0	1	0.865	0.001	R	35	50.0	206.590	208.332	209.197	209.200	0
2	22071904	63	High	1.5	Vague	2	36	33	16	43.3	80.0	25.0	36	33	16	43.3	80.0	25.0	1	0.705	0.000	L	36	43.3	209.703	211.892	212.597	212.599	0
2	22071904	64	High	1.5	Vague	2	36	35	6	43.3	50.0	10.0	36	6	35	43.3	10.0	50.0	1	1.033	0.001	L	36	43.3	213.102	215.284	216.317	216.320	0
2	22071904	65	High	1.5	Precise	1	30	26	19	45.2	60.0	6.7	26	19	30	60.0	6.7	45.2	1	1.161	0.000	R	30	45.2	216.823	219.804	220.965	220.967	0
2	22071904	66	High	1.5	Vague	2	35	34	7	50.0	55.2	21.7	35	34	7	50.0	55.2	21.7	1	0.654	0.001	L	35	50.0	221.471	223.703	224.357	224.359	0
2	22071904	67	High	1.5	Vague	2	30	33	7	45.2	80.0	21.7	33	30	7	80.0	45.2	21.7	1	0.805	0.000	D	30	45.2	224.862	226.008	226.813	226.815	0
2	22071904	68	High	1.5	Precise	1	30	34	29	45.2	55.2	18.7	29	30	34	18.7	45.2	55.2	2	0.880	0.000	R	34	55.2	227.318	230.293	231.173	231.175	0
2	22071904	69	High	1.5	Precise	1	36	35	29	43.3	50.0	18.7	35	36	29	50.0	43.3	18.7	1	0.868	0.001	D	36	43.3	231.678	232.473	233.341	233.344	0
2	22071904	70	High	1.5	Vague	2	34	26	7	55.2	60.0	21.7	26	34	7	60.0	55.2	21.7	1	0.706	0.001	D	34	55.2	233.846	236.491	237.197	237.200	0
2	22071904	71	High	1.5	Vague	2	30	34	3	45.2	55.2	8.3	30	3	34	45.2	8.3	55.2	2	0.962	0.000	R	34	55.2	237.702	239.259	240.221	240.223	0
2	22071904	72	High	1.5	Vague	2	30	26	5	45.2	60.0	20.0	5	26	30	20.0	60.0	45.2	1	1.032	0.000	R	30	45.2	240.726	241.573	242.605	242.608	0
2	22071904	73	High	1.5	Vague	2	34	26	1	55.2	60.0	8.0	1	26	34	8.0	60.0	55.2	1	0.652	0.000	R	34	55.2	243.111	244.480	245.133	245.135	0
2	22071904	74	High	1.5	Vague	2	30	35	3	45.2	50.0	8.3	3	35	30	8.3	50.0	45.2	2	0.945	0.000	D	35	50.0	245.638	248.476	249.421	249.423	0
2	22071904	75	High	1.5	Precise	1	30	35	23	45.2	50.0	2.5	35	30	23	50.0	45.2	2.5	2	0.732	0.000	L	35	50.0	249.926	251.856	252.589	252.591	0
2	22071904	76	High	1.5	Vague	2	36	26	7	43.3	60.0	21.7	36	7	26	43.3	21.7	60.0	1	0.893	0.000	L	36	43.3	253.094	254.767	255.661	255.663	0
2	22071904	77	High	1.5	Vague	2	36	35	5	43.3	50.0	20.0	5	35	36	20.0	50.0	43.3	2	0.820	0.001	D	35	50.0	256.166	257.777	258.597	258.599	0
2	22071904	78	High	1.5	Vague	2	30	33	3	45.2	80.0	8.3	30	33	3	45.2	80.0	8.3	1	0.778	0.000	L	30	45.2	259.102	261.418	262.197	262.199	0
2	22071904	79	High	1.5	Vague	2	34	33	1	55.2	80.0	8.0	34	1	33	55.2	8.0	80.0	1	0.587	0.001	L	34	55.2	262.702	263.202	263.789	263.791	0
2	22071904	80	High	1.5	Vague	2	36	26	1	43.3	60.0	8.0	26	36	1	60.0	43.3	8.0	1	0.769	0.001	D	36	43.3	264.295	266.924	267.693	267.696	0
2	22071904	81	High	1.5	Precise	1	36	33	29	43.3	80.0	18.7	33	29	36	80.0	18.7	43.3	1	1.097	0.000	R	36	43.3	268.198	268.988	270.085	270.088	0
2	22071904	82	High	1.5	Precise	1	34	26	27	55.2	60.0	20.0	26	34	27	60.0	55.2	20.0	1	0.721	0.000	D	34	55.2	270.590	272.564	273.285	273.288	0
2	22071904	83	High	1.5	Precise	1	34	26	21	55.2	60.0	2.0	34	21	26	55.2	2.0	60.0	1	0.791	0.000	L	34	55.2	273.791	274.918	275.709	275.711	0
2	22071904	84	High	1.5	Precise	1	34	26	29	55.2	60.0	18.7	34	29	26	55.2	18.7	60.0	1	0.526	0.000	L	34	55.2	276.214	278.879	279.405	279.407	0
2	22071904	85	High	1.5	Vague	2	34	33	6	55.2	80.0	10.0	6	33	34	10.0	80.0	55.2	1	0.674	0.001	R	34	55.2	279.910	281.659	282.333	282.336	0
2	22071904	86	High	1.5	Precise	1	36	35	28	43.3	50.0	26.8	28	36	35	26.8	43.3	50.0	2	0.630	0.000	R	35	50.0	282.838	285.511	286.141	286.143	0
2	22071904	87	High	1.5	Vague	2	30	34	7	45.2	55.2	21.7	7	34	30	21.7	55.2	45.2	2	0.657	0.000	D	34	55.2	286.646	289.396	290.053	290.055	0
2	22071904	88	High	1.5	Precise	1	36	33	21	43.3	80.0	2.0	33	36	21	80.0	43.3	2.0	1	0.716	0.000	D	36	43.3	290.559	292.153	292.869	292.871	0
2	22071904	89	High	1.5	Precise	1	35	26	29	50.0	60.0	18.7	26	35	29	60.0	50.0	18.7	1	0.805	0.001	D	35	50.0	293.375	294.320	295.125	295.128	0
2	22071904	90	High	1.5	Precise	1	30	33	23	45.2	80.0	2.5	33	23	30	80.0	2.5	45.2	1	1.062	0.000	R	30	45.2	295.631	298.503	299.565	299.567	0
2	22071904	91	High	1.5	Vague	2	36	33	5	43.3	80.0	20.0	36	33	5	43.3	80.0	20.0	1	0.652	0.001	L	36	43.3	300.071	301.105	301.757	301.760	0
2	22071904	92	High	1.5	Vague	2	30	33	5	45.2	80.0	20.0	33	5	30	80.0	20.0	45.2	1	0.823	0.000	R	30	45.2	302.262	304.494	305.317	305.319	0
2	22071904	93	High	1.5	Vague	2	35	33	16	50.0	80.0	25.0	16	35	33	25.0	50.0	80.0	3	0.627	0.000	L	16	25.0	305.823	307.521	308.149	308.151	0
2	22071904	94	High	1.5	Precise	1	36	33	19	43.3	80.0	6.7	36	19	33	43.3	6.7	80.0	1	0.694	0.001	L	36	43.3	308.653	309.967	310.661	310.664	0
2	22071904	95	High	1.5	Vague	2	30	35	16	45.2	50.0	25.0	16	35	30	25.0	50.0	45.2	3	0.572	0.000	L	16	25.0	311.167	312.849	313.421	313.423	0
2	22071904	96	High	1.5	Vague	2	36	26	6	43.3	60.0	10.0	6	26	36	10.0	60.0	43.3	1	0.895	0.000	R	36	43.3	313.926	315.854	316.749	316.751	0
2	22071904	97	High	1.5	Vague	2	36	26	5	43.3	60.0	20.0	36	26	5	43.3	60.0	20.0	1	1.195	0.000	L	36	43.3	317.255	319.233	320.429	320.431	0
2	22071904	98	High	1.5	Vague	2	36	33	1	43.3	80.0	8.0	36	1	33	43.3	8.0	80.0	1	0.535	0.001	L	36	43.3	320.934	322.190	322.725	322.727	0
2	22071904	99	High	1.5	Precise	1	35	26	27	50.0	60.0	20.0	35	27	26	50.0	20.0	60.0	1	0.715	0.000	L	35	50.0	323.231	325.922	326.637	326.639	0
2	22071904	100	High	1.5	Vague	2	30	26	7	45.2	60.0	21.7	30	7	26	45.2	21.7	60.0	1	1.159	0.000	L	30	45.2	327.141	328.958	330.117	330.119	0
2	22071904	101	High	1.5	Vague	2	36	26	16	43.3	60.0	25.0	26	36	16	60.0	43.3	25.0	3	0.830	0.000	R	16	25.0	330.622	332.207	333.037	333.039	0
2	22071904	102	High	1.5	Precise	1	35	34	28	50.0	55.2	26.8	34	28	35	55.2	26.8	50.0	1	0.713	0.000	R	35	50.0	333.542	334.179	334.893	334.895	0
2	22071904	103	High	1.5	Vague	2	35	26	7	50.0	60.0	21.7	7	35	26	21.7	50.0	60.0	1	0.616	0.000	D	35	50.0	335.397	337.413	338.029	338.031	0
2	22071904	104	High	1.5	Vague	2	36	34	3	43.3	55.2	8.3	36	34	3	43.3	55.2	8.3	2	0.989	0.001	D	34	55.2	338.535	339.432	340.421	340.423	0
2	22071904	105	High	1.5	Precise	1	36	26	29	43.3	60.0	18.7	29	26	36	18.7	60.0	43.3	1	0.569	0.000	R	36	43.3	340.926	343.308	343.877	343.879	0
2	22071904	106	High	1.5	Precise	1	35	33	21	50.0	80.0	2.0	21	35	33	2.0	50.0	80.0	1	0.741	0.000	D	35	50.0	344.382	345.736	346.477	346.479	0
2	22071904	107	High	1.5	Precise	1	36	30	28	43.3	45.2	26.8	30	36	28	45.2	43.3	26.8	1	0.934	0.000	D	36	43.3	346.982	348.903	349.837	349.839	0
2	22071904	108	High	1.5	Vague	2	35	26	6	50.0	60.0	10.0	35	26	6	50.0	60.0	10.0	1	0.635	0.000	L	35	50.0	350.342	352.274	352.909	352.911	0
2	22071904	109	High	1.5	Vague	2	30	35	1	45.2	50.0	8.0	30	35	1	45.2	50.0	8.0	2	0.645	0.001	D	35	50.0	353.415	354.320	354.965	354.967	0
2	22071904	110	High	1.5	Vague	2	34	26	5	55.2	60.0	20.0	5	34	26	20.0	55.2	60.0	1	0.604	0.000	D	34	55.2	355.470	357.448	358.053	358.055	0
2	22071904	111	High	1.5	Vague	2	36	30	6	43.3	45.2	10.0	6	30	36	10.0	45.2	43.3	1	1.013	0.000	R	36	43.3	358.559	359.064	360.077	360.079	0
2	22071904	112	High	1.5	Vague	2	36	35	1	43.3	50.0	8.0	35	36	1	50.0	43.3	8.0	1	0.616	0.001	D	36	43.3	360.582	361.629	362.245	362.247	0
2	22071904	113	High	1.5	Precise	1	36	30	29	43.3	45.2	18.7	36	30	29	43.3	45.2	18.7	1	0.607	0.000	L	36	43.3	362.750	364.782	365.389	365.391	0
2	22071904	114	High	1.5	Precise	1	36	30	27	43.3	45.2	20.0	30	27	36	45.2	20.0	43.3	1	0.699	0.001	R	36	43.3	365.894	366.746	367.445	367.448	0
2	22071904	115	High	1.5	Precise	1	30	26	29	45.2	60.0	18.7	29	30	26	18.7	45.2	60.0	3	0.738	0.000	L	29	18.7	367.950	369.674	370.413	370.415	0
2	22071904	116	High	1.5	Vague	2	35	34	1	50.0	55.2	8.0	34	1	35	55.2	8.0	50.0	2	0.737	0.000	L	34	55.2	370.917	373.444	374.181	374.183	0
2	22071904	117	High	1.5	Vague	2	35	26	1	50.0	60.0	8.0	1	26	35	8.0	60.0	50.0	1	0.538	0.000	R	35	50.0	374.685	376.995	377.533	377.535	0
2	22071904	118	High	1.5	Vague	2	35	33	1	50.0	80.0	8.0	33	1	35	80.0	8.0	50.0	1	0.727	0.000	R	35	50.0	378.039	378.918	379.645	379.647	0
2	22071904	119	High	1.5	Vague	2	30	33	16	45.2	80.0	25.0	16	33	30	25.0	80.0	45.2	3	0.730	0.001	L	16	25.0	380.150	381.099	381.829	381.831	0
2	22071904	120	High	1.5	Vague	2	35	26	5	50.0	60.0	20.0	5	26	35	20.0	60.0	50.0	1	0.674	0.001	R	35	50.0	382.334	383.291	383.965	383.967	0
2	22071904	121	High	1.5	Vague	2	36	33	3	43.3	80.0	8.3	3	33	36	8.3	80.0	43.3	1	0.855	0.000	R	36	43.3	391.208	393.782	394.637	394.639	0
2	22071904	122	High	1.5	Precise	1	36	30	19	43.3	45.2	6.7	30	36	19	45.2	43.3	6.7	1	0.819	0.000	D	36	43.3	395.142	396.378	397.197	397.199	0
2	22071904	123	High	1.5	Vague	2	26	33	5	60.0	80.0	20.0	26	5	33	60.0	20.0	80.0	1	1.372	0.000	L	26	60.0	397.702	398.905	400.277	400.279	0
2	22071904	124	High	1.5	Vague	2	26	33	1	60.0	80.0	8.0	26	33	1	60.0	80.0	8.0	1	0.848	0.000	L	26	60.0	400.782	402.277	403.125	403.127	0
2	22071904	125	High	1.5	Precise	1	35	34	19	50.0	55.2	6.7	19	34	35	6.7	55.2	50.0	1	0.553	0.000	R	35	50.0	403.630	405.819	406.373	406.375	0
2	22071904	126	High	1.5	Vague	2	30	26	1	45.2	60.0	8.0	1	26	30	8.0	60.0	45.2	1	1.198	0.000	R	30	45.2	406.879	408.463	409.661	409.663	0
2	22071904	127	High	1.5	Precise	1	35	34	29	50.0	55.2	18.7	35	29	34	50.0	18.7	55.2	2	0.797	0.000	R	34	55.2	410.166	411.624	412.421	412.423	0
2	22071904	128	High	1.5	Precise	1	36	34	19	43.3	55.2	6.7	36	19	34	43.3	6.7	55.2	2	0.864	0.000	R	34	55.2	412.926	415.309	416.173	416.175	0
2	22071904	129	High	1.5	Vague	2	30	34	16	45.2	55.2	25.0	30	16	34	45.2	25.0	55.2	2	0.515	0.001	R	34	55.2	416.678	419.306	419.821	419.824	0
2	22071904	130	High	1.5	Vague	2	36	33	7	43.3	80.0	21.7	33	36	7	80.0	43.3	21.7	1	0.517	0.001	D	36	43.3	420.327	421.776	422.293	422.295	0
2	22071904	131	High	1.5	Precise	1	35	33	23	50.0	80.0	2.5	35	23	33	50.0	2.5	80.0	1	0.680	0.000	L	35	50.0	422.799	423.293	423.973	423.975	0
2	22071904	132	High	1.5	Precise	1	30	35	28	45.2	50.0	26.8	30	28	35	45.2	26.8	50.0	2	0.504	0.001	R	35	50.0	424.478	425.805	426.309	426.311	0
2	22071904	133	High	1.5	Precise	1	36	35	19	43.3	50.0	6.7	36	19	35	43.3	6.7	50.0	2	0.620	0.001	R	35	50.0	426.814	428.281	428.901	428.903	0
2	22071904	134	High	1.5	Precise	1	26	33	21	60.0	80.0	2.0	33	26	21	80.0	60.0	2.0	3	1.142	0.000	R	21	2.0	429.407	431.095	432.237	432.239	0
2	22071904	135	High	1.5	Vague	2	36	34	6	43.3	55.2	10.0	36	6	34	43.3	10.0	55.2	2	0.595	0.000	R	34	55.2	432.742	435.058	435.653	435.655	0
2	22071904	136	High	1.5	Vague	2	36	30	5	43.3	45.2	20.0	36	5	30	43.3	20.0	45.2	1	0.799	0.001	L	36	43.3	436.157	437.822	438.621	438.624	0
2	22071904	137	High	1.5	Vague	2	26	33	16	60.0	80.0	25.0	26	16	33	60.0	25.0	80.0	3	0.737	0.000	D	16	25.0	439.127	441.348	442.085	442.087	0
2	22071904	138	High	1.5	Vague	2	30	35	5	45.2	50.0	20.0	5	35	30	20.0	50.0	45.2	2	0.668	0.001	D	35	50.0	442.590	443.721	444.389	444.391	0
2	22071904	139	High	1.5	Precise	1	35	33	27	50.0	80.0	20.0	27	35	33	20.0	50.0	80.0	1	0.517	0.000	D	35	50.0	444.895	446.576	447.093	447.095	0
2	22071904	140	High	1.5	Precise	1	35	33	19	50.0	80.0	6.7	33	35	19	80.0	50.0	6.7	1	0.447	0.001	D	35	50.0	447.599	450.534	450.981	450.984	0
2	22071904	141	High	1.5	Vague	2	36	30	3	43.3	45.2	8.3	30	3	36	45.2	8.3	43.3	1	0.808	0.000	R	36	43.3	451.487	453.404	454.213	454.215	0
2	22071904	142	High	1.5	Vague	2	35	26	16	50.0	60.0	25.0	35	16	26	50.0	25.0	60.0	1	0.505	0.001	L	35	50.0	454.717	457.595	458.101	458.103	0
2	22071904	143	High	1.5	Precise	1	34	33	21	55.2	80.0	2.0	21	33	34	2.0	80.0	55.2	1	0.544	0.001	R	34	55.2	458.607	459.236	459.781	459.783	0
2	22071904	144	High	1.5	Precise	1	26	33	28	60.0	80.0	26.8	26	33	28	60.0	80.0	26.8	3	1.094	0.000	R	28	26.8	460.286	461.471	462.565	462.567	0
2	22071904	145	High	1.5	Precise	1	30	34	27	45.2	55.2	20.0	30	34	27	45.2	55.2	20.0	2	0.818	0.001	D	34	55.2	463.069	464.499	465.317	465.319	0
2	22071904	146	High	1.5	Precise	1	36	35	27	43.3	50.0	20.0	35	27	36	50.0	20.0	43.3	2	0.737	0.000	L	35	50.0	465.822	467.044	467.781	467.783	0
2	22071904	147	High	1.5	Precise	1	36	30	23	43.3	45.2	2.5	36	23	30	43.3	2.5	45.2	1	0.736	0.000	L	36	43.3	468.286	470.836	471.573	471.575	0
2	22071904	148	High	1.5	Vague	2	26	33	6	60.0	80.0	10.0	6	33	26	10.0	80.0	60.0	1	0.564	0.000	R	26	60.0	472.079	473.649	474.213	474.215	0
2	22071904	149	High	1.5	Precise	1	35	34	27	50.0	55.2	20.0	34	35	27	55.2	50.0	20.0	1	0.514	0.000	D	35	50.0	474.718	476.275	476.789	476.791	0
2	22071904	150	High	1.5	Precise	1	30	26	21	45.2	60.0	2.0	30	21	26	45.2	2.0	60.0	2	0.879	0.000	R	26	60.0	477.293	477.878	478.757	478.759	0
2	22071904	151	High	1.5	Precise	1	30	33	19	45.2	80.0	6.7	30	33	19	45.2	80.0	6.7	1	1.116	0.000	L	30	45.2	479.263	481.256	482.373	482.376	0
2	22071904	152	High	1.5	Precise	1	35	33	28	50.0	80.0	26.8	28	35	33	26.8	50.0	80.0	1	0.539	0.001	D	35	50.0	482.879	483.882	484.421	484.423	0
2	22071904	153	High	1.5	Precise	1	34	33	23	55.2	80.0	2.5	33	23	34	80.0	2.5	55.2	1	0.515	0.000	R	34	55.2	484.926	486.322	486.837	486.839	0
2	22071904	154	High	1.5	Precise	1	36	33	27	43.3	80.0	20.0	33	27	36	80.0	20.0	43.3	1	0.729	0.000	R	36	43.3	487.342	488.483	489.213	489.215	0
2	22071904	155	High	1.5	Vague	2	35	34	3	50.0	55.2	8.3	3	35	34	8.3	50.0	55.2	2	0.551	0.001	R	34	55.2	489.718	492.102	492.653	492.655	0
2	22071904	156	High	1.5	Precise	1	30	34	19	45.2	55.2	6.7	34	19	30	55.2	6.7	45.2	2	0.595	0.000	L	34	55.2	493.159	494.641	495.237	495.239	0
2	22071904	157	High	1.5	Precise	1	26	33	23	60.0	80.0	2.5	26	33	23	60.0	80.0	2.5	1	0.991	0.000	L	26	60.0	495.742	496.293	497.285	497.287	0
2	22071904	158	High	1.5	Vague	2	30	33	1	45.2	80.0	8.0	1	30	33	8.0	45.2	80.0	1	0.947	0.000	D	30	45.2	497.790	499.442	500.389	500.391	0
2	22071904	159	High	1.5	Vague	2	34	33	7	55.2	80.0	21.7	33	7	34	80.0	21.7	55.2	1	0.573	0.000	R	34	55.2	500.894	502.112	502.684	502.687	0
2	22071904	160	High	1.5	Precise	1	35	34	21	50.0	55.2	2.0	35	34	21	50.0	55.2	2.0	1	0.582	0.000	L	35	50.0	503.189	505.382	505.965	505.967	0
2	22071904	161	High	1.5	Precise	1	34	33	27	55.2	80.0	20.0	34	27	33	55.2	20.0	80.0	1	0.612	0.001	L	34	55.2	506.470	509.121	509.733	509.735	0
2	22071904	162	High	1.5	Vague	2	36	34	5	43.3	55.2	20.0	34	5	36	55.2	20.0	43.3	2	0.618	0.000	L	34	55.2	510.238	511.283	511.900	511.903	0
2	22071904	163	High	1.5	Vague	2	36	34	16	43.3	55.2	25.0	16	34	36	25.0	55.2	43.3	3	1.189	0.000	L	16	25.0	512.406	514.488	515.677	515.679	0
2	22071904	164	High	1.5	Precise	1	36	33	28	43.3	80.0	26.8	36	28	33	43.3	26.8	80.0	1	0.641	0.000	L	36	43.3	516.182	517.627	518.269	518.271	0
2	22071904	165	High	1.5	Vague	2	26	33	7	60.0	80.0	21.7	7	26	33	21.7	60.0	80.0	1	0.851	0.000	D	26	60.0	518.774	521.521	522.373	522.375	0
2	22071904	166	High	1.5	Precise	1	30	26	23	45.2	60.0	2.5	30	23	26	45.2	2.5	60.0	1	0.885	0.000	L	30	45.2	522.878	523.903	524.788	524.791	0
2	22071904	167	High	1.5	Precise	1	30	33	28	45.2	80.0	26.8	30	28	33	45.2	26.8	80.0	3	0.882	0.001	D	28	26.8	525.294	527.547	528.429	528.431	0
2	22071904	168	High	1.5	Vague	2	36	35	3	43.3	50.0	8.3	3	35	36	8.3	50.0	43.3	1	0.839	0.001	R	36	43.3	528.933	531.246	532.085	532.087	0
2	22071904	169	High	1.5	Vague	2	30	34	6	45.2	55.2	10.0	34	30	6	55.2	45.2	10.0	2	0.587	0.000	L	34	55.2	532.590	533.265	533.853	533.855	0
2	22071904	170	High	1.5	Precise	1	36	26	21	43.3	60.0	2.0	21	36	26	2.0	43.3	60.0	1	1.002	0.001	D	36	43.3	534.358	535.522	536.525	536.527	0
2	22071904	171	High	1.5	Vague	2	35	33	6	50.0	80.0	10.0	6	35	33	10.0	50.0	80.0	1	0.680	0.000	D	35	50.0	537.030	537.733	538.413	538.415	0
2	22071904	172	High	1.5	Precise	1	36	33	23	43.3	80.0	2.5	36	23	33	43.3	2.5	80.0	1	0.638	0.000	L	36	43.3	538.919	541.279	541.917	541.919	0
2	22071904	173	High	1.5	Vague	2	34	33	16	55.2	80.0	25.0	16	33	34	25.0	80.0	55.2	3	0.761	0.001	L	16	25.0	542.422	544.172	544.933	544.935	0
2	22071904	174	High	1.5	Precise	1	30	34	28	45.2	55.2	26.8	28	34	30	26.8	55.2	45.2	2	0.810	0.001	D	34	55.2	545.438	546.611	547.421	547.423	0
2	22071904	175	High	1.5	Precise	1	30	34	23	45.2	55.2	2.5	23	34	30	2.5	55.2	45.2	1	0.725	0.001	R	30	45.2	547.926	548.560	549.285	549.287	0
2	22071904	176	High	1.5	Precise	1	36	26	19	43.3	60.0	6.7	36	26	19	43.3	60.0	6.7	1	0.728	0.000	L	36	43.3	549.790	550.333	551.061	551.063	0
2	22071904	177	High	1.5	Vague	2	35	34	6	50.0	55.2	10.0	35	34	6	50.0	55.2	10.0	2	0.634	0.000	D	34	55.2	551.566	554.091	554.724	554.727	0
2	22071904	178	High	1.5	Precise	1	30	35	27	45.2	50.0	20.0	35	27	30	50.0	20.0	45.2	2	0.502	0.000	L	35	50.0	555.231	556.918	557.420	557.424	0
2	22071904	179	High	1.5	Precise	1	36	26	28	43.3	60.0	26.8	28	36	26	26.8	43.3	60.0	1	1.152	0.000	D	36	43.3	557.927	559.749	560.901	560.903	0
2	22071904	180	High	1.5	Vague	2	26	33	3	60.0	80.0	8.3	26	3	33	60.0	8.3	80.0	1	0.735	0.001	L	26	60.0	561.406	562.478	563.213	563.215	0
2	22071904	181	Low	10.0	Precise	1	30	35	24	45.2	50.0	5.0	30	35	24	45.2	50.0	5.0	2	1.888	0.000	D	35	50.0	574.463	576.965	578.853	578.855	0
2	22071904	182	Low	10.0	Precise	1	36	35	24	43.3	50.0	5.0	24	35	36	5.0	50.0	43.3	2	2.097	0.001	D	35	50.0	579.358	581.188	583.285	583.287	0
2	22071904	183	Low	10.0	Precise	1	34	33	31	55.2	80.0	35.0	34	33	31	55.2	80.0	35.0	1	1.827	0.000	L	34	55.2	583.790	586.745	588.572	588.575	0
2	22071904	184	Low	10.0	Precise	1	30	35	25	45.2	50.0	18.3	30	25	35	45.2	18.3	50.0	2	1.410	0.001	R	35	50.0	589.078	591.323	592.733	592.736	0
2	22071904	185	Low	10.0	Precise	1	36	26	31	43.3	60.0	35.0	36	26	31	43.3	60.0	35.0	1	1.795	0.000	L	36	43.3	593.239	594.625	596.420	596.423	0
2	22071904	186	Low	10.0	Vague	2	30	35	4	45.2	50.0	10.0	35	4	30	50.0	10.0	45.2	2	0.964	0.001	L	35	50.0	596.925	597.513	598.477	598.479	0
2	22071904	187	Low	10.0	Precise	1	36	33	25	43.3	80.0	18.3	25	36	33	18.3	43.3	80.0	1	0.872	0.000	D	36	43.3	598.982	599.620	600.493	600.495	0
2	22071904	188	Low	10.0	Vague	2	35	33	10	50.0	80.0	21.7	35	33	10	50.0	80.0	21.7	1	1.027	0.001	L	35	50.0	600.998	601.681	602.709	602.712	0
2	22071904	189	Low	10.0	Precise	1	35	34	22	50.0	55.2	20.0	34	35	22	55.2	50.0	20.0	1	1.523	0.001	D	35	50.0	603.214	605.362	606.885	606.887	0
2	22071904	190	Low	10.0	Vague	2	30	33	10	45.2	80.0	21.7	33	30	10	80.0	45.2	21.7	1	1.924	0.000	D	30	45.2	607.390	610.145	612.069	612.071	0
2	22071904	191	Low	10.0	Vague	2	26	33	13	60.0	80.0	20.0	26	33	13	60.0	80.0	20.0	3	1.850	0.001	R	13	20.0	612.574	613.715	615.565	615.567	0
2	22071904	192	Low	10.0	Precise	1	30	26	25	45.2	60.0	18.3	25	30	26	18.3	45.2	60.0	1	1.742	0.000	D	30	45.2	616.070	616.975	618.717	618.719	0
2	22071904	193	Low	10.0	Precise	1	35	34	24	50.0	55.2	5.0	35	24	34	50.0	5.0	55.2	1	2.019	0.000	L	35	50.0	619.222	620.938	622.957	622.959	0
2	22071904	194	Low	10.0	Vague	2	30	34	13	45.2	55.2	20.0	30	34	13	45.2	55.2	20.0	2	0.918	0.000	D	34	55.2	623.462	625.927	626.845	626.847	0
2	22071904	195	Low	10.0	Vague	2	35	26	10	50.0	60.0	21.7	35	26	10	50.0	60.0	21.7	1	1.435	0.000	L	35	50.0	627.349	628.425	629.861	629.863	0
2	22071904	196	Low	10.0	Vague	2	35	33	2	50.0	80.0	2.2	35	2	33	50.0	2.2	80.0	1	0.833	0.001	L	35	50.0	630.366	632.260	633.093	633.096	0
2	22071904	197	Low	10.0	Vague	2	35	33	4	50.0	80.0	10.0	33	4	35	80.0	10.0	50.0	1	1.130	0.000	R	35	50.0	633.598	634.106	635.237	635.239	0
2	22071904	198	Low	10.0	Vague	2	36	34	2	43.3	55.2	2.2	34	2	36	55.2	2.2	43.3	2	1.123	0.000	L	34	55.2	635.742	637.489	638.612	638.615	0
2	22071904	199	Low	10.0	Precise	1	35	26	20	50.0	60.0	2.5	35	26	20	50.0	60.0	2.5	1	0.791	0.000	L	35	50.0	639.118	640.557	641.349	641.352	0
2	22071904	200	Low	10.0	Vague	2	36	33	10	43.3	80.0	21.7	10	33	36	21.7	80.0	43.3	1	1.072	0.000	R	36	43.3	641.854	644.453	645.525	645.527	0
2	22071904	201	Low	10.0	Precise	1	30	34	25	45.2	55.2	18.3	34	25	30	55.2	18.3	45.2	2	0.765	0.000	L	34	55.2	646.030	647.287	648.052	648.055	0
2	22071904	202	Low	10.0	Vague	2	30	26	11	45.2	60.0	8.0	26	11	30	60.0	8.0	45.2	2	1.480	0.000	L	26	60.0	648.558	651.148	652.629	652.631	0
2	22071904	203	Low	10.0	Vague	2	34	26	11	55.2	60.0	8.0	11	26	34	8.0	60.0	55.2	1	0.696	0.000	R	34	55.2	653.134	654.364	655.060	655.063	0
2	22071904	204	Low	10.0	Precise	1	34	26	31	55.2	60.0	35.0	34	31	26	55.2	35.0	60.0	1	1.001	0.000	L	34	55.2	655.566	656.412	657.413	657.415	0
2	22071904	205	Low	10.0	Precise	1	30	35	22	45.2	50.0	20.0	30	35	22	45.2	50.0	20.0	2	1.648	0.001	D	35	50.0	657.918	658.717	660.365	660.367	0
2	22071904	206	Low	10.0	Vague	2	36	26	11	43.3	60.0	8.0	36	26	11	43.3	60.0	8.0	1	0.870	0.000	L	36	43.3	660.870	662.407	663.277	663.279	0
2	22071904	207	Low	10.0	Vague	2	36	30	4	43.3	45.2	10.0	30	4	36	45.2	10.0	43.3	1	0.957	0.000	R	36	43.3	663.782	664.359	665.316	665.319	0
2	22071904	208	Low	10.0	Precise	1	36	33	22	43.3	80.0	20.0	33	36	22	80.0	43.3	20.0	1	1.244	0.000	D	36	43.3	665.822	668.273	669.517	669.519	0
2	22071904	209	Low	10.0	Precise	1	26	33	32	60.0	80.0	21.7	26	33	32	60.0	80.0	21.7	3	1.864	0.000	R	32	21.7	670.022	670.949	672.813	672.815	0
2	22071904	210	Low	10.0	Vague	2	36	30	11	43.3	45.2	8.0	11	36	30	8.0	43.3	45.2	1	0.820	0.000	D	36	43.3	673.318	674.256	675.076	675.079	0
2	22071904	211	Low	10.0	Precise	1	30	33	32	45.2	80.0	21.7	33	32	30	80.0	21.7	45.2	3	1.516	0.001	D	32	21.7	675.582	678.089	679.605	679.607	0
2	22071904	212	Low	10.0	Vague	2	35	34	13	50.0	55.2	20.0	13	34	35	20.0	55.2	50.0	1	0.961	0.000	R	35	50.0	680.110	681.724	682.684	682.687	0
2	22071904	213	Low	10.0	Vague	2	34	26	10	55.2	60.0	21.7	34	26	10	55.2	60.0	21.7	1	1.690	0.001	L	34	55.2	683.189	684.899	686.589	686.591	0
2	22071904	214	Low	10.0	Precise	1	26	33	20	60.0	80.0	2.5	20	33	26	2.5	80.0	60.0	1	1.206	0.000	R	26	60.0	687.094	689.751	690.957	690.959	0
2	22071904	215	Low	10.0	Vague	2	36	34	10	43.3	55.2	21.7	34	36	10	55.2	43.3	21.7	2	1.548	0.000	L	34	55.2	691.462	692.273	693.821	693.823	0
2	22071904	216	Low	10.0	Precise	1	36	30	31	43.3	45.2	35.0	31	30	36	35.0	45.2	43.3	1	0.828	0.001	R	36	43.3	694.326	695.825	696.653	696.655	0
2	22071904	217	Low	10.0	Precise	1	36	35	20	43.3	50.0	2.5	35	20	36	50.0	2.5	43.3	2	0.750	0.000	L	35	50.0	697.158	698.119	698.869	698.871	0
2	22071904	218	Low	10.0	Precise	1	34	26	32	55.2	60.0	21.7	32	26	34	21.7	60.0	55.2	1	0.603	0.001	R	34	55.2	699.374	702.177	702.781	702.784	0
2	22071904	219	Low	10.0	Vague	2	36	33	11	43.3	80.0	8.0	33	11	36	80.0	8.0	43.3	1	0.554	0.000	R	36	43.3	703.286	705.322	705.877	705.879	0
2	22071904	220	Low	10.0	Vague	2	36	33	2	43.3	80.0	2.2	36	2	33	43.3	2.2	80.0	1	0.513	0.000	L	36	43.3	706.382	707.540	708.053	708.055	0
2	22071904	221	Low	10.0	Precise	1	34	33	25	55.2	80.0	18.3	34	33	25	55.2	80.0	18.3	1	0.686	0.000	L	34	55.2	708.558	710.239	710.925	710.927	0
2	22071904	222	Low	10.0	Precise	1	26	33	22	60.0	80.0	20.0	33	22	26	80.0	20.0	60.0	1	1.299	0.000	R	26	60.0	711.431	711.954	713.253	713.255	0
2	22071904	223	Low	10.0	Vague	2	30	26	13	45.2	60.0	20.0	30	26	13	45.2	60.0	20.0	3	1.325	0.000	R	13	20.0	713.757	714.967	716.292	716.295	0
2	22071904	224	Low	10.0	Vague	2	36	30	9	43.3	45.2	15.3	9	36	30	15.3	43.3	45.2	1	1.350	0.001	D	36	43.3	716.798	718.262	719.613	719.615	0
2	22071904	225	Low	10.0	Vague	2	36	35	11	43.3	50.0	8.0	36	11	35	43.3	8.0	50.0	2	1.231	0.001	R	35	50.0	720.118	721.293	722.525	722.527	0
2	22071904	226	Low	10.0	Precise	1	35	26	22	50.0	60.0	20.0	35	22	26	50.0	20.0	60.0	1	1.194	0.000	L	35	50.0	723.030	724.219	725.413	725.415	0
2	22071904	227	Low	10.0	Vague	2	36	30	13	43.3	45.2	20.0	13	30	36	20.0	45.2	43.3	1	1.215	0.001	R	36	43.3	725.918	728.590	729.805	729.807	0
2	22071904	228	Low	10.0	Precise	1	26	33	25	60.0	80.0	18.3	26	33	25	60.0	80.0	18.3	1	1.101	0.001	L	26	60.0	730.310	731.368	732.469	732.472	0
2	22071904	229	Low	10.0	Precise	1	36	34	25	43.3	55.2	18.3	25	34	36	18.3	55.2	43.3	2	1.768	0.000	D	34	55.2	732.974	734.613	736.381	736.383	0
2	22071904	230	Low	10.0	Vague	2	35	26	11	50.0	60.0	8.0	11	26	35	8.0	60.0	50.0	1	0.534	0.000	R	35	50.0	736.886	739.710	740.244	740.247	0
2	22071904	231	Low	10.0	Precise	1	36	35	31	43.3	50.0	35.0	31	35	36	35.0	50.0	43.3	2	1.416	0.001	D	35	50.0	740.749	742.957	744.373	744.375	0
2	22071904	232	Low	10.0	Precise	1	30	33	31	45.2	80.0	35.0	33	30	31	80.0	45.2	35.0	3	3.265	0.000	R	31	35.0	744.878	746.363	749.628	749.632	0
2	22071904	233	Low	10.0	Precise	1	36	34	24	43.3	55.2	5.0	34	24	36	55.2	5.0	43.3	2	1.195	0.000	L	34	55.2	750.134	750.777	751.972	751.975	0
2	22071904	234	Low	10.0	Vague	2	26	33	9	60.0	80.0	15.3	33	26	9	80.0	60.0	15.3	1	1.182	0.001	D	26	60.0	752.477	754.998	756.181	756.183	0
2	22071904	235	Low	10.0	Vague	2	34	33	11	55.2	80.0	8.0	11	34	33	8.0	55.2	80.0	1	0.842	0.000	D	34	55.2	756.685	758.251	759.093	759.095	0
2	22071904	236	Low	10.0	Precise	1	30	34	20	45.2	55.2	2.5	34	20	30	55.2	2.5	45.2	2	1.199	0.000	L	34	55.2	759.597	760.110	761.309	761.311	0
2	22071904	237	Low	10.0	Vague	2	36	35	4	43.3	50.0	10.0	36	35	4	43.3	50.0	10.0	2	1.464	0.000	D	35	50.0	761.813	762.469	763.933	763.935	0
2	22071904	238	Low	10.0	Vague	2	30	33	2	45.2	80.0	2.2	2	33	30	2.2	80.0	45.2	1	2.804	0.000	R	30	45.2	764.438	766.456	769.261	769.263	0
2	22071904	239	Low	10.0	Vague	2	30	26	4	45.2	60.0	10.0	4	30	26	10.0	45.2	60.0	2	7.332	0.001	R	26	60.0	769.766	770.969	778.301	778.303	0
2	22071904	240	Low	10.0	Vague	2	36	26	4	43.3	60.0	10.0	36	26	4	43.3	60.0	10.0	2	2.933	0.001	D	26	60.0	778.806	780.848	783.781	783.783	0
2	22071904	241	Low	10.0	Vague	2	30	33	11	45.2	80.0	8.0	11	30	33	8.0	45.2	80.0	1	1.342	0.001	D	30	45.2	790.556	793.447	794.789	794.791	0
2	22071904	242	Low	10.0	Vague	2	30	26	9	45.2	60.0	15.3	26	9	30	60.0	15.3	45.2	2	2.195	0.000	L	26	60.0	795.294	797.545	799.740	799.743	0
2	22071904	243	Low	10.0	Vague	2	34	33	4	55.2	80.0	10.0	33	34	4	80.0	55.2	10.0	1	0.735	0.001	D	34	55.2	800.246	801.230	801.965	801.967	0
2	22071904	244	Low	10.0	Precise	1	30	34	32	45.2	55.2	21.7	32	30	34	21.7	45.2	55.2	2	0.778	0.001	R	34	55.2	802.469	803.106	803.884	803.887	0
2	22071904	245	Low	10.0	Vague	2	30	34	11	45.2	55.2	8.0	34	11	30	55.2	8.0	45.2	2	0.933	0.001	L	34	55.2	804.389	805.191	806.125	806.127	0
2	22071904	246	Low	10.0	Vague	2	30	34	10	45.2	55.2	21.7	10	30	34	21.7	45.2	55.2	2	0.744	0.000	R	34	55.2	806.629	807.285	808.028	808.031	0
2	22071904	247	Low	10.0	Vague	2	34	33	10	55.2	80.0	21.7	33	10	34	80.0	21.7	55.2	1	0.647	0.000	R	34	55.2	808.533	809.181	809.829	809.831	0
2	22071904	248	Low	10.0	Vague	2	34	33	13	55.2	80.0	20.0	13	33	34	20.0	80.0	55.2	1	1.001	0.000	R	34	55.2	810.334	812.899	813.900	813.903	0
2	22071904	249	Low	10.0	Vague	2	35	26	2	50.0	60.0	2.2	2	35	26	2.2	50.0	60.0	1	1.090	0.000	D	35	50.0	814.405	815.067	816.157	816.159	0
2	22071904	250	Low	10.0	Precise	1	30	33	24	45.2	80.0	5.0	33	24	30	80.0	5.0	45.2	1	1.640	0.001	R	30	45.2	816.662	817.493	819.133	819.135	0
2	22071904	251	Low	10.0	Precise	1	34	26	20	55.2	60.0	2.5	34	20	26	55.2	2.5	60.0	1	0.829	0.000	L	34	55.2	819.638	820.392	821.220	821.223	0
2	22071904	252	Low	10.0	Precise	1	34	26	25	55.2	60.0	18.3	26	25	34	60.0	18.3	55.2	1	0.675	0.000	R	34	55.2	821.726	823.889	824.564	824.567	0
2	22071904	253	Low	10.0	Vague	2	30	26	10	45.2	60.0	21.7	26	10	30	60.0	21.7	45.2	1	2.319	0.001	R	30	45.2	825.069	826.766	829.085	829.087	0
2	22071904	254	Low	10.0	Vague	2	34	33	2	55.2	80.0	2.2	2	34	33	2.2	55.2	80.0	1	0.760	0.000	D	34	55.2	829.589	831.653	832.413	832.415	0
2	22071904	255	Low	10.0	Precise	1	36	35	25	43.3	50.0	18.3	25	36	35	18.3	43.3	50.0	2	1.124	0.001	R	35	50.0	832.918	833.440	834.564	834.567	0
2	22071904	256	Low	10.0	Precise	1	30	26	32	45.2	60.0	21.7	30	26	32	45.2	60.0	21.7	3	1.581	0.001	R	32	21.7	835.070	837.184	838.765	838.767	0
2	22071904	257	Low	10.0	Precise	1	34	33	32	55.2	80.0	21.7	34	32	33	55.2	21.7	80.0	1	0.643	0.001	L	34	55.2	839.270	840.777	841.421	841.423	0
2	22071904	258	Low	10.0	Vague	2	35	33	11	50.0	80.0	8.0	33	35	11	80.0	50.0	8.0	1	0.681	0.000	D	35	50.0	841.926	843.524	844.204	844.207	0
2	22071904	259	Low	10.0	Precise	1	30	35	31	45.2	50.0	35.0	35	30	31	50.0	45.2	35.0	2	1.053	0.000	L	35	50.0	844.710	847.007	848.061	848.063	0
2	22071904	260	Low	10.0	Precise	1	36	26	20	43.3	60.0	2.5	36	26	20	43.3	60.0	2.5	1	1.128	0.000	L	36	43.3	848.566	851.332	852.460	852.463	0
2	22071904	261	Low	10.0	Precise	1	35	33	25	50.0	80.0	18.3	35	25	33	50.0	18.3	80.0	1	0.631	0.000	L	35	50.0	852.966	854.037	854.668	854.671	0
2	22071904	262	Low	10.0	Precise	1	36	26	24	43.3	60.0	5.0	36	26	24	43.3	60.0	5.0	1	1.423	0.000	L	36	43.3	855.174	857.109	858.532	858.535	0
2	22071904	263	Low	10.0	Precise	1	30	33	25	45.2	80.0	18.3	25	33	30	18.3	80.0	45.2	1	0.861	0.000	R	30	45.2	859.038	859.831	860.692	860.695	0
2	22071904	264	Low	10.0	Vague	2	35	26	9	50.0	60.0	15.3	26	35	9	60.0	50.0	15.3	1	0.805	0.001	D	35	50.0	861.197	862.576	863.381	863.383	0
2	22071904	265	Low	10.0	Precise	1	36	30	24	43.3	45.2	5.0	30	36	24	45.2	43.3	5.0	1	1.800	0.001	D	36	43.3	863.886	866.172	867.973	867.975	0
2	22071904	266	Low	10.0	Precise	1	36	30	22	43.3	45.2	20.0	22	30	36	20.0	45.2	43.3	1	1.457	0.000	R	36	43.3	868.478	870.835	872.292	872.296	0
2	22071904	267	Low	10.0	Vague	2	35	34	9	50.0	55.2	15.3	34	9	35	55.2	15.3	50.0	2	0.656	0.000	L	34	55.2	872.798	873.556	874.212	874.215	0
2	22071904	268	Low	10.0	Vague	2	35	34	2	50.0	55.2	2.2	35	2	34	50.0	2.2	55.2	1	1.008	0.001	L	35	50.0	874.718	876.764	877.773	877.775	0
2	22071904	269	Low	10.0	Precise	1	30	26	31	45.2	60.0	35.0	31	26	30	35.0	60.0	45.2	3	1.873	0.001	L	31	35.0	878.278	881.212	883.085	883.087	0
2	22071904	270	Low	10.0	Vague	2	26	33	4	60.0	80.0	10.0	4	33	26	10.0	80.0	60.0	1	1.849	0.000	R	26	60.0	883.590	884.635	886.484	886.487	0
2	22071904	271	Low	10.0	Precise	1	30	35	20	45.2	50.0	2.5	35	20	30	50.0	2.5	45.2	2	0.597	0.000	L	35	50.0	886.989	888.887	889.484	889.487	0
2	22071904	272	Low	10.0	Vague	2	30	26	2	45.2	60.0	2.2	30	26	2	45.2	60.0	2.2	2	1.587	0.001	D	26	60.0	889.989	892.506	894.093	894.095	0
2	22071904	273	Low	10.0	Vague	2	36	34	4	43.3	55.2	10.0	34	36	4	55.2	43.3	10.0	2	0.642	0.001	L	34	55.2	894.597	895.339	895.980	895.983	0
2	22071904	274	Low	10.0	Precise	1	30	33	20	45.2	80.0	2.5	20	30	33	2.5	45.2	80.0	1	1.042	0.000	D	30	45.2	896.486	898.667	899.708	899.711	0
2	22071904	275	Low	10.0	Precise	1	36	33	24	43.3	80.0	5.0	33	36	24	80.0	43.3	5.0	1	1.099	0.000	D	36	43.3	900.214	901.897	902.996	902.999	0
2	22071904	276	Low	10.0	Vague	2	35	34	10	50.0	55.2	21.7	35	10	34	50.0	21.7	55.2	1	1.183	0.001	L	35	50.0	903.501	904.773	905.957	905.959	0
2	22071904	277	Low	10.0	Vague	2	26	33	10	60.0	80.0	21.7	26	10	33	60.0	21.7	80.0	1	1.448	0.001	L	26	60.0	906.462	908.805	910.253	910.255	0
2	22071904	278	Low	10.0	Vague	2	30	35	2	45.2	50.0	2.2	30	2	35	45.2	2.2	50.0	2	0.740	0.001	R	35	50.0	910.758	913.016	913.756	913.759	0
2	22071904	279	Low	10.0	Precise	1	36	35	32	43.3	50.0	21.7	35	36	32	50.0	43.3	21.7	2	0.574	0.000	L	35	50.0	914.261	916.823	917.396	917.399	0
2	22071904	280	Low	10.0	Vague	2	34	26	2	55.2	60.0	2.2	34	2	26	55.2	2.2	60.0	1	2.381	0.000	L	34	55.2	917.901	920.271	922.652	922.656	0
2	22071904	281	Low	10.0	Vague	2	36	34	9	43.3	55.2	15.3	34	36	9	55.2	43.3	15.3	2	1.533	0.000	L	34	55.2	923.158	925.376	926.908	926.911	0
2	22071904	282	Low	10.0	Precise	1	35	34	20	50.0	55.2	2.5	20	35	34	2.5	50.0	55.2	2	0.849	0.001	R	34	55.2	927.413	928.491	929.341	929.343	0
2	22071904	283	Low	10.0	Precise	1	36	30	32	43.3	45.2	21.7	32	30	36	21.7	45.2	43.3	1	2.919	0.000	R	36	43.3	929.845	930.445	933.364	933.367	0
2	22071904	284	Low	10.0	Vague	2	35	33	13	50.0	80.0	20.0	35	13	33	50.0	20.0	80.0	1	0.667	0.000	L	35	50.0	933.869	934.706	935.372	935.375	0
2	22071904	285	Low	10.0	Vague	2	34	33	9	55.2	80.0	15.3	33	9	34	80.0	15.3	55.2	1	0.790	0.000	R	34	55.2	935.877	937.718	938.508	938.511	0
2	22071904	286	Low	10.0	Vague	2	30	35	11	45.2	50.0	8.0	35	11	30	50.0	8.0	45.2	2	0.672	0.000	L	35	50.0	939.014	939.653	940.324	940.327	0
2	22071904	287	Low	10.0	Vague	2	35	34	11	50.0	55.2	8.0	34	35	11	55.2	50.0	8.0	1	1.124	0.000	D	35	50.0	940.830	943.584	944.708	944.711	0
2	22071904	288	Low	10.0	Vague	2	30	35	13	45.2	50.0	20.0	13	30	35	20.0	45.2	50.0	2	1.201	0.000	R	35	50.0	945.213	946.083	947.284	947.287	0
2	22071904	289	Low	10.0	Precise	1	26	33	31	60.0	80.0	35.0	33	31	26	80.0	35.0	60.0	3	2.032	0.000	D	31	35.0	947.790	950.748	952.780	952.783	0
2	22071904	290	Low	10.0	Vague	2	36	26	2	43.3	60.0	2.2	2	36	26	2.2	43.3	60.0	1	1.115	0.001	D	36	43.3	953.286	954.569	955.685	955.687	0
2	22071904	291	Low	10.0	Precise	1	34	33	24	55.2	80.0	5.0	34	24	33	55.2	5.0	80.0	1	0.747	0.000	L	34	55.2	956.190	956.737	957.484	957.487	0
2	22071904	292	Low	10.0	Vague	2	35	33	9	50.0	80.0	15.3	9	35	33	15.3	50.0	80.0	1	0.695	0.001	D	35	50.0	957.989	960.125	960.821	960.823	0
2	22071904	293	Low	10.0	Precise	1	30	26	22	45.2	60.0	20.0	26	30	22	60.0	45.2	20.0	1	2.196	0.001	D	30	45.2	961.325	962.305	964.501	964.503	0
2	22071904	294	Low	10.0	Vague	2	35	26	13	50.0	60.0	20.0	13	26	35	20.0	60.0	50.0	1	0.850	0.001	R	35	50.0	965.006	965.763	966.612	966.615	0
2	22071904	295	Low	10.0	Precise	1	35	26	24	50.0	60.0	5.0	26	24	35	60.0	5.0	50.0	1	1.046	0.000	R	35	50.0	967.117	967.894	968.940	968.943	0
2	22071904	296	Low	10.0	Vague	2	36	30	10	43.3	45.2	21.7	36	10	30	43.3	21.7	45.2	1	1.073	0.000	L	36	43.3	969.445	970.691	971.764	971.766	0
2	22071904	297	Low	10.0	Precise	1	30	33	22	45.2	80.0	20.0	33	22	30	80.0	20.0	45.2	1	1.103	0.000	R	30	45.2	972.269	973.853	974.956	974.959	0
2	22071904	298	Low	10.0	Vague	2	30	33	13	45.2	80.0	20.0	30	13	33	45.2	20.0	80.0	3	2.524	0.000	D	13	20.0	975.462	976.889	979.413	979.415	0
2	22071904	299	Low	10.0	Precise	1	36	34	20	43.3	55.2	2.5	20	34	36	2.5	55.2	43.3	2	0.991	0.000	D	34	55.2	979.918	980.917	981.908	981.911	0
2	22071904	300	Low	10.0	Vague	2	26	33	11	60.0	80.0	8.0	33	11	26	80.0	8.0	60.0	1	1.334	0.000	R	26	60.0	982.414	983.230	984.564	984.567	0
2	22071904	301	Low	10.0	Vague	2	34	26	13	55.2	60.0	20.0	34	13	26	55.2	20.0	60.0	1	1.004	0.001	L	34	55.2	991.724	994.657	995.660	995.663	0
2	22071904	302	Low	10.0	Precise	1	34	33	20	55.2	80.0	2.5	20	34	33	2.5	55.2	80.0	1	1.631	0.001	D	34	55.2	996.165	996.941	998.572	998.575	0
2	22071904	303	Low	10.0	Vague	2	30	33	9	45.2	80.0	15.3	30	9	33	45.2	15.3	80.0	1	2.380	0.001	L	30	45.2	999.077	1001.617	1003.996	1003.999	0
2	22071904	304	Low	10.0	Precise	1	30	34	24	45.2	55.2	5.0	30	34	24	45.2	55.2	5.0	2	0.895	0.001	D	34	55.2	1004.502	1006.141	1007.036	1007.039	0
2	22071904	305	Low	10.0	Vague	2	36	34	11	43.3	55.2	8.0	11	36	34	8.0	43.3	55.2	2	1.242	0.001	R	34	55.2	1007.542	1009.786	1011.028	1011.031	0
2	22071904	306	Low	10.0	Precise	1	36	30	25	43.3	45.2	18.3	30	25	36	45.2	18.3	43.3	1	1.568	0.001	R	36	43.3	1011.534	1013.764	1015.333	1015.335	0
2	22071904	307	Low	10.0	Precise	1	35	26	31	50.0	60.0	35.0	31	35	26	35.0	50.0	60.0	1	0.868	0.001	D	35	50.0	1015.838	1017.377	1018.244	1018.247	0
2	22071904	308	Low	10.0	Precise	1	35	33	24	50.0	80.0	5.0	35	33	24	50.0	80.0	5.0	1	0.788	0.000	L	35	50.0	1018.749	1020.896	1021.684	1021.687	0
2	22071904	309	Low	10.0	Vague	2	36	30	2	43.3	45.2	2.2	36	2	30	43.3	2.2	45.2	1	2.019	0.000	L	36	43.3	1022.190	1023.033	1025.052	1025.055	0
2	22071904	310	Low	10.0	Precise	1	35	26	32	50.0	60.0	21.7	35	26	32	50.0	60.0	21.7	1	0.705	0.001	L	35	50.0	1025.557	1027.163	1027.868	1027.871	0
2	22071904	311	Low	10.0	Precise	1	30	26	24	45.2	60.0	5.0	26	24	30	60.0	5.0	45.2	2	3.455	0.000	L	26	60.0	1028.374	1030.518	1033.972	1033.975	0
2	22071904	312	Low	10.0	Precise	1	35	34	32	50.0	55.2	21.7	35	34	32	50.0	55.2	21.7	1	0.700	0.000	L	35	50.0	1034.478	1037.152	1037.852	1037.855	0
2	22071904	313	Low	10.0	Vague	2	36	33	13	43.3	80.0	20.0	33	13	36	80.0	20.0	43.3	1	1.398	0.000	R	36	43.3	1038.358	1040.966	1042.364	1042.367	0
2	22071904	314	Low	10.0	Vague	2	34	26	4	55.2	60.0	10.0	34	4	26	55.2	10.0	60.0	1	0.778	0.001	L	34	55.2	1042.869	1044.050	1044.828	1044.831	0
2	22071904	315	Low	10.0	Vague	2	36	33	4	43.3	80.0	10.0	4	36	33	10.0	43.3	80.0	1	1.124	0.000	D	36	43.3	1045.334	1046.816	1047.940	1047.943	0
2	22071904	316	Low	10.0	Vague	2	36	26	10	43.3	60.0	21.7	26	10	36	60.0	21.7	43.3	1	1.366	0.001	R	36	43.3	1048.446	1050.214	1051.580	1051.583	0
2	22071904	317	Low	10.0	Vague	2	36	35	13	43.3	50.0	20.0	13	35	36	20.0	50.0	43.3	2	1.270	0.001	D	35	50.0	1052.086	1052.846	1054.116	1054.119	0
2	22071904	318	Low	10.0	Precise	1	26	33	24	60.0	80.0	5.0	26	24	33	60.0	5.0	80.0	1	1.321	0.001	L	26	60.0	1054.622	1057.307	1058.628	1058.631	0
2	22071904	319	Low	10.0	Vague	2	35	26	4	50.0	60.0	10.0	4	26	35	10.0	60.0	50.0	1	0.874	0.001	R	35	50.0	1059.135	1060.963	1061.837	1061.839	0
2	22071904	320	Low	10.0	Vague	2	36	35	10	43.3	50.0	21.7	36	10	35	43.3	21.7	50.0	2	0.995	0.001	R	35	50.0	1062.342	1064.993	1065.988	1065.991	0
2	22071904	321	Low	10.0	Vague	2	36	26	9	43.3	60.0	15.3	26	9	36	60.0	15.3	43.3	1	2.451	0.000	R	36	43.3	1066.494	1067.241	1069.692	1069.695	0
2	22071904	322	Low	10.0	Precise	1	36	34	22	43.3	55.2	20.0	36	22	34	43.3	20.0	55.2	2	1.379	0.001	R	34	55.2	1070.197	1071.089	1072.468	1072.471	0
2	22071904	323	Low	10.0	Precise	1	36	26	25	43.3	60.0	18.3	36	26	25	43.3	60.0	18.3	1	0.906	0.000	L	36	43.3	1072.974	1074.402	1075.308	1075.311	0
2	22071904	324	Low	10.0	Vague	2	35	34	4	50.0	55.2	10.0	35	34	4	50.0	55.2	10.0	1	1.138	0.000	L	35	50.0	1075.814	1076.546	1077.684	1077.687	0
2	22071904	325	Low	10.0	Precise	1	36	33	20	43.3	80.0	2.5	33	36	20	80.0	43.3	2.5	1	1.705	0.000	D	36	43.3	1078.190	1080.260	1081.964	1081.967	0
2	22071904	326	Low	10.0	Precise	1	35	34	25	50.0	55.2	18.3	35	34	25	50.0	55.2	18.3	1	0.744	0.001	L	35	50.0	1082.469	1083.380	1084.124	1084.127	0
2	22071904	327	Low	10.0	Vague	2	36	33	9	43.3	80.0	15.3	33	9	36	80.0	15.3	43.3	1	0.824	0.001	R	36	43.3	1084.630	1085.741	1086.564	1086.567	0
2	22071904	328	Low	10.0	Precise	1	30	34	22	45.2	55.2	20.0	22	34	30	20.0	55.2	45.2	2	0.979	0.000	D	34	55.2	1087.070	1088.825	1089.804	1089.807	0
2	22071904	329	Low	10.0	Precise	1	34	33	22	55.2	80.0	20.0	34	33	22	55.2	80.0	20.0	1	1.165	0.000	L	34	55.2	1090.311	1092.135	1093.300	1093.303	0
2	22071904	330	Low	10.0	Precise	1	30	35	32	45.2	50.0	21.7	32	35	30	21.7	50.0	45.2	2	0.623	0.000	D	35	50.0	1093.806	1096.077	1096.700	1096.703	0
2	22071904	331	Low	10.0	Vague	2	30	33	4	45.2	80.0	10.0	33	30	4	80.0	45.2	10.0	1	3.980	0.000	D	30	45.2	1097.206	1098.208	1102.188	1102.191	0
2	22071904	332	Low	10.0	Precise	1	36	34	32	43.3	55.2	21.7	34	36	32	55.2	43.3	21.7	2	0.855	0.000	L	34	55.2	1102.694	1103.213	1104.068	1104.071	0
2	22071904	333	Low	10.0	Vague	2	30	34	9	45.2	55.2	15.3	9	34	30	15.3	55.2	45.2	2	0.594	0.001	D	34	55.2	1104.574	1106.778	1107.372	1107.375	0
2	22071904	334	Low	10.0	Precise	1	36	35	22	43.3	50.0	20.0	22	36	35	20.0	43.3	50.0	2	3.035	0.000	R	35	50.0	1107.878	1110.705	1113.740	1113.743	0
2	22071904	335	Low	10.0	Vague	2	30	34	4	45.2	55.2	10.0	30	34	4	45.2	55.2	10.0	2	0.810	0.001	D	34	55.2	1114.245	1116.483	1117.292	1117.295	0
2	22071904	336	Low	10.0	Vague	2	34	26	9	55.2	60.0	15.3	26	34	9	60.0	55.2	15.3	1	1.056	0.001	D	34	55.2	1117.797	1120.548	1121.604	1121.607	0
2	22071904	337	Low	10.0	Precise	1	30	34	31	45.2	55.2	35.0	34	31	30	55.2	35.0	45.2	2	1.234	0.000	L	34	55.2	1122.110	1123.026	1124.260	1124.263	0
2	22071904	338	Low	10.0	Precise	1	36	33	31	43.3	80.0	35.0	31	36	33	35.0	43.3	80.0	1	1.703	0.000	D	36	43.3	1124.766	1126.350	1128.052	1128.055	0
2	22071904	339	Low	10.0	Precise	1	35	33	20	50.0	80.0	2.5	20	35	33	2.5	50.0	80.0	1	0.813	0.001	D	35	50.0	1128.558	1130.968	1131.780	1131.783	0
2	22071904	340	Low	10.0	Vague	2	30	35	10	45.2	50.0	21.7	10	35	30	21.7	50.0	45.2	2	0.788	0.000	D	35	50.0	1132.286	1135.096	1135.884	1135.887	0
2	22071904	341	Low	10.0	Precise	1	36	26	32	43.3	60.0	21.7	36	32	26	43.3	21.7	60.0	1	1.807	0.000	L	36	43.3	1136.390	1138.965	1140.772	1140.775	0
2	22071904	342	Low	10.0	Precise	1	36	30	20	43.3	45.2	2.5	20	36	30	2.5	43.3	45.2	1	0.737	0.001	D	36	43.3	1141.277	1143.124	1143.860	1143.863	0
2	22071904	343	Low	10.0	Vague	2	30	35	9	45.2	50.0	15.3	9	35	30	15.3	50.0	45.2	2	0.827	0.001	D	35	50.0	1144.366	1146.881	1147.708	1147.711	0
2	22071904	344	Low	10.0	Precise	1	36	26	22	43.3	60.0	20.0	36	26	22	43.3	60.0	20.0	1	1.301	0.000	L	36	43.3	1148.214	1150.368	1151.668	1151.671	0
2	22071904	345	Low	10.0	Precise	1	35	26	25	50.0	60.0	18.3	35	25	26	50.0	18.3	60.0	1	0.713	0.000	L	35	50.0	1152.173	1154.978	1155.692	1155.694	0
2	22071904	346	Low	10.0	Vague	2	30	34	2	45.2	55.2	2.2	2	30	34	2.2	45.2	55.2	2	0.802	0.000	R	34	55.2	1156.197	1157.602	1158.404	1158.406	0
2	22071904	347	Low	10.0	Vague	2	36	35	9	43.3	50.0	15.3	35	36	9	50.0	43.3	15.3	2	0.628	0.001	L	35	50.0	1158.909	1159.608	1160.236	1160.240	0
2	22071904	348	Low	10.0	Precise	1	36	33	32	43.3	80.0	21.7	33	36	32	80.0	43.3	21.7	1	1.104	0.001	D	36	43.3	1160.743	1163.092	1164.196	1164.199	0
2	22071904	349	Low	10.0	Vague	2	36	35	2	43.3	50.0	2.2	36	35	2	43.3	50.0	2.2	2	1.202	0.000	D	35	50.0	1164.702	1165.203	1166.404	1166.407	0
2	22071904	350	Low	10.0	Precise	1	34	26	22	55.2	60.0	20.0	26	34	22	60.0	55.2	20.0	1	1.422	0.001	D	34	55.2	1166.909	1168.887	1170.308	1170.311	0
2	22071904	351	Low	10.0	Precise	1	34	26	24	55.2	60.0	5.0	34	24	26	55.2	5.0	60.0	1	1.003	0.000	L	34	55.2	1170.813	1172.841	1173.844	1173.847	0
2	22071904	352	Low	10.0	Precise	1	30	26	20	45.2	60.0	2.5	20	30	26	2.5	45.2	60.0	1	1.429	0.001	D	30	45.2	1174.349	1175.328	1176.756	1176.759	0
2	22071904	353	Low	10.0	Vague	2	36	26	13	43.3	60.0	20.0	36	13	26	43.3	20.0	60.0	1	1.986	0.001	L	36	43.3	1177.261	1178.874	1180.860	1180.863	0
2	22071904	354	Low	10.0	Precise	1	35	33	32	50.0	80.0	21.7	32	33	35	21.7	80.0	50.0	1	1.222	0.000	R	35	50.0	1181.366	1182.758	1183.980	1183.982	0
2	22071904	355	Low	10.0	Precise	1	35	33	31	50.0	80.0	35.0	33	35	31	80.0	50.0	35.0	1	0.678	0.000	D	35	50.0	1184.485	1186.974	1187.652	1187.654	0
2	22071904	356	Low	10.0	Precise	1	35	33	22	50.0	80.0	20.0	22	33	35	20.0	80.0	50.0	1	0.693	0.001	R	35	50.0	1188.158	1190.135	1190.828	1190.831	0
2	22071904	357	Low	10.0	Vague	2	26	33	2	60.0	80.0	2.2	26	2	33	60.0	2.2	80.0	1	1.571	0.000	L	26	60.0	1191.333	1191.921	1193.492	1193.495	0
2	22071904	358	Low	10.0	Precise	1	35	34	31	50.0	55.2	35.0	31	35	34	35.0	50.0	55.2	1	1.820	0.000	D	35	50.0	1193.997	1194.592	1196.412	1196.415	0
2	22071904	359	Low	10.0	Vague	2	36	34	13	43.3	55.2	20.0	34	13	36	55.2	20.0	43.3	2	2.492	0.000	L	34	55.2	1196.917	1197.688	1200.180	1200.182	0
2	22071904	360	Low	10.0	Precise	1	36	34	31	43.3	55.2	35.0	34	36	31	55.2	43.3	35.0	2	1.718	0.000	L	34	55.2	1200.686	1201.766	1203.484	1203.486	0
