Group	subID	trial	TimePressure	TimeConstraint	Vagueness	Vaguenesscode	ID1	ID2	ID3	V1	V2	V3	ID_left	ID_middle	ID_right	Bid_left	Bid_middle	Bid_right	chosenItem	RT	RTvariance	chosenPosition	chosenID	chosenValue	fixation_time	option_time	choice_time	feedback_time	timeout
1	22071806	1	High	1.5	Vague	2	4	15	25	29.2	51.6	1.3	25	15	4	1.3	51.6	29.2	1	1.191	0.000	R	4	29.2	6.105	8.180	9.371	9.374	0
1	22071806	2	High	1.5	Precise	1	10	15	2	48.1	51.6	1.5	2	10	15	1.5	48.1	51.6	2	0.771	0.000	R	15	51.6	9.878	11.847	12.619	12.622	0
1	22071806	3	High	1.5	Precise	1	18	15	5	35.3	51.6	2.6	5	18	15	2.6	35.3	51.6	2	0.640	0.001	R	15	51.6	13.126	14.811	15.451	15.454	0
1	22071806	4	High	1.5	Precise	1	10	15	7	48.1	51.6	1.2	10	15	7	48.1	51.6	1.2	3	1.424	0.001	R	7	1.2	15.957	18.331	19.755	19.758	0
1	22071806	5	High	1.5	Vague	2	10	15	19	48.1	51.6	1.2	19	15	10	1.2	51.6	48.1	2	0.779	0.001	D	15	51.6	20.261	22.480	23.259	23.263	0
1	22071806	6	High	1.5	Vague	2	18	10	25	35.3	48.1	1.3	25	10	18	1.3	48.1	35.3	NaN	NaN	NaN	NaN	NaN	NaN	23.768	25.612	NaN	27.102	1
1	22071806	7	High	1.5	Precise	1	17	15	5	51.3	51.6	2.6	17	5	15	51.3	2.6	51.6	2	0.662	0.001	R	15	51.6	29.106	30.133	30.795	30.799	0
1	22071806	8	High	1.5	Precise	1	14	17	5	35.9	51.3	2.6	5	14	17	2.6	35.9	51.3	1	0.942	0.000	D	14	35.9	31.302	32.541	33.483	33.486	0
1	22071806	9	High	1.5	Vague	2	10	17	27	48.1	51.3	2.9	17	27	10	51.3	2.9	48.1	1	1.025	0.001	R	10	48.1	33.990	34.826	35.851	35.853	0
1	22071806	10	High	1.5	Precise	1	18	14	5	35.3	35.9	2.6	5	18	14	2.6	35.3	35.9	2	0.931	0.000	R	14	35.9	36.356	38.104	39.034	39.037	0
1	22071806	11	High	1.5	Vague	2	4	10	27	29.2	48.1	2.9	27	10	4	2.9	48.1	29.2	2	1.172	0.001	D	10	48.1	39.541	40.359	41.531	41.534	0
1	22071806	12	High	1.5	Vague	2	18	15	19	35.3	51.6	1.2	15	18	19	51.6	35.3	1.2	2	0.933	0.000	L	15	51.6	42.036	43.286	44.219	44.221	0
1	22071806	13	High	1.5	Vague	2	18	14	28	35.3	35.9	15.7	18	28	14	35.3	15.7	35.9	2	1.002	0.000	R	14	35.9	44.724	46.737	47.739	47.741	0
1	22071806	14	High	1.5	Precise	1	14	17	2	35.9	51.3	1.5	17	14	2	51.3	35.9	1.5	1	0.971	0.001	D	14	35.9	48.244	51.216	52.187	52.190	0
1	22071806	15	High	1.5	Vague	2	4	10	29	29.2	48.1	17.6	10	29	4	48.1	17.6	29.2	1	1.000	0.001	R	4	29.2	52.693	55.683	56.683	56.686	0
1	22071806	16	High	1.5	Precise	1	4	15	5	29.2	51.6	2.6	4	5	15	29.2	2.6	51.6	2	0.802	0.000	R	15	51.6	57.189	58.665	59.467	59.469	0
1	22071806	17	High	1.5	Precise	1	18	10	7	35.3	48.1	1.2	18	10	7	35.3	48.1	1.2	2	0.845	0.000	D	10	48.1	59.972	60.958	61.803	61.805	0
1	22071806	18	High	1.5	Precise	1	10	17	2	48.1	51.3	1.5	2	17	10	1.5	51.3	48.1	1	0.930	0.001	R	10	48.1	62.308	64.985	65.915	65.918	0
1	22071806	19	High	1.5	Vague	2	18	17	27	35.3	51.3	2.9	18	27	17	35.3	2.9	51.3	2	0.661	0.000	R	17	51.3	66.421	69.302	69.963	69.966	0
1	22071806	20	High	1.5	Precise	1	4	10	12	29.2	48.1	26.0	10	4	12	48.1	29.2	26.0	NaN	NaN	NaN	NaN	NaN	NaN	70.469	71.166	NaN	72.653	1
1	22071806	21	High	1.5	Precise	1	18	15	7	35.3	51.6	1.2	7	18	15	1.2	35.3	51.6	2	0.702	0.001	R	15	51.6	74.656	77.053	77.755	77.757	0
1	22071806	22	High	1.5	Precise	1	4	10	13	29.2	48.1	16.9	10	4	13	48.1	29.2	16.9	2	1.183	0.000	L	10	48.1	78.260	81.164	82.347	82.349	0
1	22071806	23	High	1.5	Precise	1	4	15	12	29.2	51.6	26.0	12	15	4	26.0	51.6	29.2	2	1.144	0.001	D	15	51.6	82.852	84.515	85.659	85.661	0
1	22071806	24	High	1.5	Precise	1	10	17	9	48.1	51.3	21.2	9	10	17	21.2	48.1	51.3	1	1.092	0.000	D	10	48.1	86.164	88.855	89.947	89.949	0
1	22071806	25	High	1.5	Vague	2	14	10	29	35.9	48.1	17.6	10	29	14	48.1	17.6	35.9	1	1.226	0.001	R	14	35.9	90.452	92.097	93.323	93.325	0
1	22071806	26	High	1.5	Precise	1	18	15	2	35.3	51.6	1.5	15	2	18	51.6	1.5	35.3	2	0.835	0.001	L	15	51.6	93.828	95.704	96.539	96.541	0
1	22071806	27	High	1.5	Vague	2	4	14	19	29.2	35.9	1.2	19	14	4	1.2	35.9	29.2	1	1.483	0.000	R	4	29.2	97.044	98.912	100.395	100.397	0
1	22071806	28	High	1.5	Precise	1	18	15	9	35.3	51.6	21.2	18	15	9	35.3	51.6	21.2	2	0.900	0.000	D	15	51.6	100.899	102.710	103.611	103.613	0
1	22071806	29	High	1.5	Precise	1	4	10	2	29.2	48.1	1.5	4	10	2	29.2	48.1	1.5	2	1.180	0.000	D	10	48.1	104.116	105.758	106.939	106.941	0
1	22071806	30	High	1.5	Vague	2	17	15	24	51.3	51.6	0.7	17	24	15	51.3	0.7	51.6	2	0.985	0.000	R	15	51.6	107.444	108.993	109.979	109.981	0
1	22071806	31	High	1.5	Vague	2	4	17	27	29.2	51.3	2.9	17	4	27	51.3	29.2	2.9	2	0.887	0.000	L	17	51.3	110.484	112.500	113.387	113.389	0
1	22071806	32	High	1.5	Precise	1	18	17	7	35.3	51.3	1.2	17	18	7	51.3	35.3	1.2	2	0.591	0.001	L	17	51.3	113.892	115.340	115.931	115.934	0
1	22071806	33	High	1.5	Precise	1	4	17	13	29.2	51.3	16.9	4	17	13	29.2	51.3	16.9	NaN	NaN	NaN	NaN	NaN	NaN	116.436	116.969	NaN	118.455	1
1	22071806	34	High	1.5	Precise	1	18	14	2	35.3	35.9	1.5	14	18	2	35.9	35.3	1.5	2	1.477	0.000	L	14	35.9	120.458	122.998	124.475	124.477	0
1	22071806	35	High	1.5	Vague	2	17	15	27	51.3	51.6	2.9	27	17	15	2.9	51.3	51.6	2	1.306	0.001	R	15	51.6	124.980	127.153	128.459	128.461	0
1	22071806	36	High	1.5	Precise	1	18	17	9	35.3	51.3	21.2	18	9	17	35.3	21.2	51.3	2	0.857	0.000	R	17	51.3	128.965	131.074	131.931	131.933	0
1	22071806	37	High	1.5	Vague	2	14	17	19	35.9	51.3	1.2	19	14	17	1.2	35.9	51.3	2	0.632	0.000	R	17	51.3	132.436	133.874	134.507	134.509	0
1	22071806	38	High	1.5	Precise	1	4	18	5	29.2	35.3	2.6	18	5	4	35.3	2.6	29.2	1	1.436	0.001	R	4	29.2	135.012	137.119	138.555	138.557	0
1	22071806	39	High	1.5	Vague	2	18	10	27	35.3	48.1	2.9	10	27	18	48.1	2.9	35.3	2	1.170	0.001	L	10	48.1	139.060	141.737	142.907	142.910	0
1	22071806	40	High	1.5	Vague	2	4	17	28	29.2	51.3	15.7	28	4	17	15.7	29.2	51.3	2	0.779	0.001	R	17	51.3	143.413	143.968	144.747	144.749	0
1	22071806	41	High	1.5	Precise	1	18	10	13	35.3	48.1	16.9	10	18	13	48.1	35.3	16.9	2	0.852	0.000	L	10	48.1	145.252	147.622	148.475	148.477	0
1	22071806	42	High	1.5	Vague	2	17	15	29	51.3	51.6	17.6	15	17	29	51.6	51.3	17.6	2	0.842	0.000	L	15	51.6	148.979	150.368	151.211	151.213	0
1	22071806	43	High	1.5	Precise	1	18	17	12	35.3	51.3	26.0	17	18	12	51.3	35.3	26.0	2	0.703	0.001	L	17	51.3	151.716	153.948	154.651	154.653	0
1	22071806	44	High	1.5	Vague	2	10	17	29	48.1	51.3	17.6	17	10	29	51.3	48.1	17.6	2	0.534	0.001	L	17	51.3	155.156	156.725	157.259	157.261	0
1	22071806	45	High	1.5	Precise	1	4	18	7	29.2	35.3	1.2	4	7	18	29.2	1.2	35.3	1	1.480	0.000	L	4	29.2	157.764	158.867	160.347	160.350	0
1	22071806	46	High	1.5	Precise	1	14	10	5	35.9	48.1	2.6	14	10	5	35.9	48.1	2.6	2	1.439	0.001	D	10	48.1	160.853	161.372	162.811	162.813	0
1	22071806	47	High	1.5	Precise	1	14	10	7	35.9	48.1	1.2	14	10	7	35.9	48.1	1.2	2	0.774	0.001	D	10	48.1	163.316	166.005	166.779	166.781	0
1	22071806	48	High	1.5	Vague	2	14	15	29	35.9	51.6	17.6	14	15	29	35.9	51.6	17.6	2	1.040	0.001	D	15	51.6	167.285	169.547	170.587	170.589	0
1	22071806	49	High	1.5	Vague	2	10	17	19	48.1	51.3	1.2	10	19	17	48.1	1.2	51.3	1	0.691	0.000	L	10	48.1	171.092	173.864	174.555	174.557	0
1	22071806	50	High	1.5	Precise	1	10	17	13	48.1	51.3	16.9	13	10	17	16.9	48.1	51.3	2	0.700	0.000	R	17	51.3	175.060	176.783	177.483	177.485	0
1	22071806	51	High	1.5	Precise	1	4	17	2	29.2	51.3	1.5	2	17	4	1.5	51.3	29.2	2	0.796	0.001	D	17	51.3	177.988	180.799	181.595	181.597	0
1	22071806	52	High	1.5	Vague	2	4	15	19	29.2	51.6	1.2	15	19	4	51.6	1.2	29.2	2	1.069	0.001	L	15	51.6	182.100	184.926	185.995	185.998	0
1	22071806	53	High	1.5	Vague	2	4	15	29	29.2	51.6	17.6	4	15	29	29.2	51.6	17.6	2	0.871	0.001	D	15	51.6	186.500	189.220	190.091	190.094	0
1	22071806	54	High	1.5	Precise	1	18	14	13	35.3	35.9	16.9	14	18	13	35.9	35.3	16.9	2	0.968	0.001	L	14	35.9	190.596	193.059	194.027	194.029	0
1	22071806	55	High	1.5	Vague	2	18	10	24	35.3	48.1	0.7	24	18	10	0.7	35.3	48.1	2	0.901	0.000	R	10	48.1	194.532	197.189	198.091	198.093	0
1	22071806	56	High	1.5	Precise	1	10	17	7	48.1	51.3	1.2	10	17	7	48.1	51.3	1.2	1	0.751	0.000	L	10	48.1	198.595	201.372	202.123	202.125	0
1	22071806	57	High	1.5	Precise	1	10	15	12	48.1	51.6	26.0	12	15	10	26.0	51.6	48.1	1	0.881	0.001	R	10	48.1	202.628	205.257	206.139	206.141	0
1	22071806	58	High	1.5	Precise	1	14	17	9	35.9	51.3	21.2	14	9	17	35.9	21.2	51.3	2	1.180	0.000	R	17	51.3	206.644	207.503	208.683	208.686	0
1	22071806	59	High	1.5	Precise	1	4	10	7	29.2	48.1	1.2	7	4	10	1.2	29.2	48.1	NaN	NaN	NaN	NaN	NaN	NaN	209.189	210.331	NaN	211.817	1
1	22071806	60	High	1.5	Vague	2	18	14	25	35.3	35.9	1.3	18	25	14	35.3	1.3	35.9	2	1.229	0.001	R	14	35.9	213.821	215.806	217.035	217.037	0
1	22071806	61	High	1.5	Precise	1	18	15	13	35.3	51.6	16.9	18	15	13	35.3	51.6	16.9	2	1.127	0.001	D	15	51.6	225.767	228.468	229.595	229.597	0
1	22071806	62	High	1.5	Precise	1	4	15	7	29.2	51.6	1.2	15	7	4	51.6	1.2	29.2	2	0.821	0.000	L	15	51.6	230.100	231.814	232.635	232.638	0
1	22071806	63	High	1.5	Vague	2	18	14	29	35.3	35.9	17.6	29	18	14	17.6	35.3	35.9	2	0.886	0.001	R	14	35.9	233.140	234.949	235.835	235.837	0
1	22071806	64	High	1.5	Precise	1	17	15	9	51.3	51.6	21.2	9	15	17	21.2	51.6	51.3	1	0.820	0.000	R	17	51.3	236.340	237.303	238.123	238.125	0
1	22071806	65	High	1.5	Vague	2	14	17	29	35.9	51.3	17.6	17	14	29	51.3	35.9	17.6	2	0.911	0.001	L	17	51.3	238.629	239.660	240.571	240.573	0
1	22071806	66	High	1.5	Precise	1	10	17	5	48.1	51.3	2.6	10	17	5	48.1	51.3	2.6	2	0.830	0.001	D	17	51.3	241.077	243.181	244.011	244.013	0
1	22071806	67	High	1.5	Vague	2	4	10	28	29.2	48.1	15.7	4	10	28	29.2	48.1	15.7	2	0.995	0.001	D	10	48.1	244.516	247.464	248.459	248.461	0
1	22071806	68	High	1.5	Precise	1	4	14	2	29.2	35.9	1.5	2	14	4	1.5	35.9	29.2	2	1.331	0.001	D	14	35.9	248.965	249.672	251.003	251.006	0
1	22071806	69	High	1.5	Precise	1	4	10	9	29.2	48.1	21.2	10	9	4	48.1	21.2	29.2	1	1.088	0.000	R	4	29.2	251.509	252.794	253.883	253.885	0
1	22071806	70	High	1.5	Precise	1	14	17	7	35.9	51.3	1.2	17	7	14	51.3	1.2	35.9	2	0.858	0.000	L	17	51.3	254.389	257.361	258.219	258.221	0
1	22071806	71	High	1.5	Vague	2	18	17	29	35.3	51.3	17.6	18	29	17	35.3	17.6	51.3	2	0.776	0.001	R	17	51.3	258.725	259.459	260.235	260.237	0
1	22071806	72	High	1.5	Vague	2	18	10	19	35.3	48.1	1.2	10	19	18	48.1	1.2	35.3	2	0.772	0.001	L	10	48.1	260.740	263.047	263.819	263.822	0
1	22071806	73	High	1.5	Vague	2	18	17	25	35.3	51.3	1.3	25	18	17	1.3	35.3	51.3	2	0.705	0.000	R	17	51.3	264.325	266.698	267.403	267.405	0
1	22071806	74	High	1.5	Vague	2	14	17	25	35.9	51.3	1.3	25	17	14	1.3	51.3	35.9	2	0.955	0.001	D	17	51.3	267.908	270.272	271.227	271.229	0
1	22071806	75	High	1.5	Vague	2	18	17	19	35.3	51.3	1.2	18	19	17	35.3	1.2	51.3	2	0.849	0.001	R	17	51.3	271.732	274.026	274.875	274.877	0
1	22071806	76	High	1.5	Vague	2	10	17	24	48.1	51.3	0.7	10	24	17	48.1	0.7	51.3	2	0.588	0.000	R	17	51.3	275.380	277.678	278.267	278.269	0
1	22071806	77	High	1.5	Vague	2	18	15	29	35.3	51.6	17.6	29	18	15	17.6	35.3	51.6	2	0.790	0.001	R	15	51.6	278.772	280.821	281.611	281.613	0
1	22071806	78	High	1.5	Precise	1	14	17	12	35.9	51.3	26.0	14	17	12	35.9	51.3	26.0	2	1.053	0.001	D	17	51.3	282.116	283.390	284.443	284.445	0
1	22071806	79	High	1.5	Precise	1	17	15	13	51.3	51.6	16.9	15	17	13	51.6	51.3	16.9	2	0.907	0.000	L	15	51.6	284.948	285.967	286.875	286.877	0
1	22071806	80	High	1.5	Precise	1	4	14	9	29.2	35.9	21.2	4	14	9	29.2	35.9	21.2	NaN	NaN	NaN	NaN	NaN	NaN	287.380	288.355	NaN	289.847	1
1	22071806	81	High	1.5	Vague	2	4	18	19	29.2	35.3	1.2	19	4	18	1.2	29.2	35.3	NaN	NaN	NaN	NaN	NaN	NaN	291.851	294.664	NaN	296.151	1
1	22071806	82	High	1.5	Vague	2	4	10	24	29.2	48.1	0.7	4	24	10	29.2	0.7	48.1	2	0.827	0.000	R	10	48.1	298.154	300.864	301.691	301.693	0
1	22071806	83	High	1.5	Vague	2	14	10	24	35.9	48.1	0.7	10	14	24	48.1	35.9	0.7	2	0.838	0.001	L	10	48.1	302.196	303.829	304.667	304.670	0
1	22071806	84	High	1.5	Vague	2	4	14	24	29.2	35.9	0.7	24	14	4	0.7	35.9	29.2	2	0.937	0.000	D	14	35.9	305.173	307.570	308.507	308.510	0
1	22071806	85	High	1.5	Precise	1	14	10	2	35.9	48.1	1.5	14	2	10	35.9	1.5	48.1	2	0.683	0.001	R	10	48.1	309.012	311.552	312.235	312.237	0
1	22071806	86	High	1.5	Precise	1	18	17	5	35.3	51.3	2.6	17	18	5	51.3	35.3	2.6	2	0.678	0.000	L	17	51.3	312.740	314.004	314.683	314.685	0
1	22071806	87	High	1.5	Vague	2	14	17	27	35.9	51.3	2.9	14	17	27	35.9	51.3	2.9	2	1.224	0.000	D	17	51.3	315.188	315.843	317.067	317.069	0
1	22071806	88	High	1.5	Precise	1	17	15	2	51.3	51.6	1.5	15	17	2	51.6	51.3	1.5	2	0.719	0.001	L	15	51.6	317.572	320.157	320.875	320.878	0
1	22071806	89	High	1.5	Vague	2	14	10	27	35.9	48.1	2.9	27	10	14	2.9	48.1	35.9	2	0.903	0.001	D	10	48.1	321.380	322.549	323.451	323.454	0
1	22071806	90	High	1.5	Vague	2	10	15	28	48.1	51.6	15.7	15	28	10	51.6	15.7	48.1	2	0.761	0.000	L	15	51.6	323.956	325.970	326.731	326.734	0
1	22071806	91	High	1.5	Vague	2	10	15	24	48.1	51.6	0.7	10	24	15	48.1	0.7	51.6	2	0.830	0.001	R	15	51.6	327.236	330.189	331.019	331.021	0
1	22071806	92	High	1.5	Precise	1	10	15	13	48.1	51.6	16.9	10	13	15	48.1	16.9	51.6	2	1.184	0.000	R	15	51.6	331.524	332.155	333.339	333.341	0
1	22071806	93	High	1.5	Vague	2	4	15	28	29.2	51.6	15.7	28	4	15	15.7	29.2	51.6	2	0.763	0.001	R	15	51.6	333.844	336.416	337.179	337.181	0
1	22071806	94	High	1.5	Precise	1	14	15	9	35.9	51.6	21.2	9	15	14	21.2	51.6	35.9	2	1.187	0.001	D	15	51.6	337.684	339.656	340.843	340.845	0
1	22071806	95	High	1.5	Precise	1	14	10	12	35.9	48.1	26.0	14	12	10	35.9	26.0	48.1	2	0.861	0.001	R	10	48.1	341.348	342.334	343.195	343.197	0
1	22071806	96	High	1.5	Vague	2	17	15	19	51.3	51.6	1.2	15	19	17	51.6	1.2	51.3	2	0.612	0.000	L	15	51.6	343.700	346.455	347.067	347.069	0
1	22071806	97	High	1.5	Precise	1	14	15	7	35.9	51.6	1.2	15	7	14	51.6	1.2	35.9	2	0.686	0.001	L	15	51.6	347.572	350.445	351.131	351.133	0
1	22071806	98	High	1.5	Precise	1	4	18	9	29.2	35.3	21.2	9	4	18	21.2	29.2	35.3	1	1.231	0.000	D	4	29.2	351.636	352.476	353.707	353.710	0
1	22071806	99	High	1.5	Vague	2	10	17	25	48.1	51.3	1.3	10	17	25	48.1	51.3	1.3	1	0.902	0.000	L	10	48.1	354.213	355.460	356.363	356.365	0
1	22071806	100	High	1.5	Vague	2	4	14	27	29.2	35.9	2.9	27	14	4	2.9	35.9	29.2	1	0.868	0.000	R	4	29.2	356.868	357.927	358.795	358.797	0
1	22071806	101	High	1.5	Vague	2	4	15	27	29.2	51.6	2.9	15	4	27	51.6	29.2	2.9	2	0.744	0.001	L	15	51.6	359.300	361.203	361.947	361.950	0
1	22071806	102	High	1.5	Vague	2	4	18	27	29.2	35.3	2.9	4	18	27	29.2	35.3	2.9	1	0.942	0.001	L	4	29.2	362.453	364.318	365.259	365.262	0
1	22071806	103	High	1.5	Precise	1	4	15	13	29.2	51.6	16.9	13	4	15	16.9	29.2	51.6	2	0.901	0.001	R	15	51.6	365.765	367.030	367.931	367.933	0
1	22071806	104	High	1.5	Precise	1	18	10	9	35.3	48.1	21.2	18	10	9	35.3	48.1	21.2	2	0.814	0.001	D	10	48.1	368.436	369.469	370.283	370.285	0
1	22071806	105	High	1.5	Precise	1	14	17	13	35.9	51.3	16.9	13	17	14	16.9	51.3	35.9	2	0.911	0.001	D	17	51.3	370.789	372.300	373.211	373.214	0
1	22071806	106	High	1.5	Vague	2	18	17	24	35.3	51.3	0.7	17	24	18	51.3	0.7	35.3	2	0.713	0.000	L	17	51.3	373.716	374.866	375.579	375.581	0
1	22071806	107	High	1.5	Vague	2	10	15	29	48.1	51.6	17.6	15	29	10	51.6	17.6	48.1	NaN	NaN	NaN	NaN	NaN	NaN	376.084	378.417	NaN	379.904	1
1	22071806	108	High	1.5	Vague	2	18	15	25	35.3	51.6	1.3	25	15	18	1.3	51.6	35.3	2	1.039	0.000	D	15	51.6	381.907	384.540	385.579	385.581	0
1	22071806	109	High	1.5	Vague	2	17	15	28	51.3	51.6	15.7	28	15	17	15.7	51.6	51.3	1	0.663	0.001	R	17	51.3	386.085	387.316	387.979	387.982	0
1	22071806	110	High	1.5	Vague	2	4	18	29	29.2	35.3	17.6	18	4	29	35.3	29.2	17.6	1	1.120	0.001	D	4	29.2	388.485	390.651	391.771	391.773	0
1	22071806	111	High	1.5	Vague	2	10	15	27	48.1	51.6	2.9	27	10	15	2.9	48.1	51.6	2	1.040	0.001	R	15	51.6	392.276	395.115	396.155	396.158	0
1	22071806	112	High	1.5	Vague	2	14	10	25	35.9	48.1	1.3	25	10	14	1.3	48.1	35.9	2	0.931	0.001	D	10	48.1	396.660	398.904	399.835	399.837	0
1	22071806	113	High	1.5	Vague	2	10	15	25	48.1	51.6	1.3	25	15	10	1.3	51.6	48.1	2	1.183	0.001	D	15	51.6	400.340	402.012	403.195	403.197	0
1	22071806	114	High	1.5	Precise	1	4	17	12	29.2	51.3	26.0	17	12	4	51.3	26.0	29.2	2	0.706	0.001	L	17	51.3	403.700	406.009	406.715	406.717	0
1	22071806	115	High	1.5	Vague	2	4	10	25	29.2	48.1	1.3	10	4	25	48.1	29.2	1.3	2	0.757	0.001	L	10	48.1	407.220	408.871	409.627	409.630	0
1	22071806	116	High	1.5	Precise	1	14	15	13	35.9	51.6	16.9	13	14	15	16.9	35.9	51.6	2	0.725	0.001	R	15	51.6	410.132	412.902	413.627	413.630	0
1	22071806	117	High	1.5	Vague	2	18	14	24	35.3	35.9	0.7	24	14	18	0.7	35.9	35.3	2	0.905	0.001	D	14	35.9	414.132	416.738	417.643	417.646	0
1	22071806	118	High	1.5	Precise	1	4	17	5	29.2	51.3	2.6	4	5	17	29.2	2.6	51.3	2	1.397	0.001	R	17	51.3	418.148	419.302	420.699	420.701	0
1	22071806	119	High	1.5	Vague	2	18	15	28	35.3	51.6	15.7	15	18	28	51.6	35.3	15.7	2	0.728	0.001	L	15	51.6	421.204	423.411	424.139	424.141	0
1	22071806	120	High	1.5	Vague	2	10	17	28	48.1	51.3	15.7	17	28	10	51.3	15.7	48.1	2	0.887	0.001	L	17	51.3	424.644	425.380	426.267	426.269	0
1	22071806	121	High	1.5	Vague	2	4	18	24	29.2	35.3	0.7	18	24	4	35.3	0.7	29.2	1	1.377	0.001	R	4	29.2	433.385	435.946	437.323	437.325	0
1	22071806	122	High	1.5	Vague	2	18	10	29	35.3	48.1	17.6	10	29	18	48.1	17.6	35.3	2	0.968	0.001	L	10	48.1	437.829	439.748	440.715	440.718	0
1	22071806	123	High	1.5	Precise	1	14	10	9	35.9	48.1	21.2	10	14	9	48.1	35.9	21.2	2	0.815	0.000	L	10	48.1	441.221	443.611	444.427	444.430	0
1	22071806	124	High	1.5	Precise	1	18	14	7	35.3	35.9	1.2	18	7	14	35.3	1.2	35.9	2	0.859	0.001	R	14	35.9	444.932	446.993	447.851	447.854	0
1	22071806	125	High	1.5	Precise	1	4	18	2	29.2	35.3	1.5	18	2	4	35.3	1.5	29.2	1	1.067	0.000	R	4	29.2	448.356	449.408	450.475	450.477	0
1	22071806	126	High	1.5	Vague	2	14	15	28	35.9	51.6	15.7	28	15	14	15.7	51.6	35.9	1	0.898	0.001	R	14	35.9	450.980	451.721	452.619	452.622	0
1	22071806	127	High	1.5	Vague	2	14	15	24	35.9	51.6	0.7	15	14	24	51.6	35.9	0.7	2	0.794	0.000	L	15	51.6	453.124	454.193	454.987	454.989	0
1	22071806	128	High	1.5	Precise	1	18	10	2	35.3	48.1	1.5	2	18	10	1.5	35.3	48.1	2	0.778	0.001	R	10	48.1	455.492	456.466	457.243	457.246	0
1	22071806	129	High	1.5	Vague	2	14	17	24	35.9	51.3	0.7	17	24	14	51.3	0.7	35.9	2	0.670	0.000	L	17	51.3	457.749	459.357	460.027	460.029	0
1	22071806	130	High	1.5	Precise	1	18	10	5	35.3	48.1	2.6	5	18	10	2.6	35.3	48.1	2	0.682	0.000	R	10	48.1	460.532	461.425	462.107	462.109	0
1	22071806	131	High	1.5	Precise	1	4	10	5	29.2	48.1	2.6	4	5	10	29.2	2.6	48.1	2	1.372	0.001	R	10	48.1	462.612	465.359	466.731	466.734	0
1	22071806	132	High	1.5	Precise	1	10	17	12	48.1	51.3	26.0	17	12	10	51.3	26.0	48.1	2	0.728	0.000	L	17	51.3	467.237	469.731	470.459	470.462	0
1	22071806	133	High	1.5	Vague	2	4	18	28	29.2	35.3	15.7	18	28	4	35.3	15.7	29.2	1	1.121	0.000	R	4	29.2	470.965	472.363	473.483	473.486	0
1	22071806	134	High	1.5	Vague	2	18	15	27	35.3	51.6	2.9	27	15	18	2.9	51.6	35.3	2	1.042	0.000	D	15	51.6	473.989	476.569	477.611	477.614	0
1	22071806	135	High	1.5	Precise	1	4	14	12	29.2	35.9	26.0	4	12	14	29.2	26.0	35.9	2	1.394	0.001	R	14	35.9	478.116	478.761	480.155	480.157	0
1	22071806	136	High	1.5	Precise	1	4	17	9	29.2	51.3	21.2	4	9	17	29.2	21.2	51.3	2	0.913	0.000	R	17	51.3	480.660	481.546	482.459	482.461	0
1	22071806	137	High	1.5	Vague	2	18	14	27	35.3	35.9	2.9	14	27	18	35.9	2.9	35.3	2	1.052	0.000	L	14	35.9	482.964	484.448	485.499	485.502	0
1	22071806	138	High	1.5	Precise	1	17	15	12	51.3	51.6	26.0	15	12	17	51.6	26.0	51.3	2	0.827	0.001	L	15	51.6	486.005	487.920	488.747	488.750	0
1	22071806	139	High	1.5	Vague	2	14	15	19	35.9	51.6	1.2	15	14	19	51.6	35.9	1.2	2	0.676	0.000	L	15	51.6	489.252	491.399	492.075	492.077	0
1	22071806	140	High	1.5	Precise	1	17	15	7	51.3	51.6	1.2	15	17	7	51.6	51.3	1.2	2	0.528	0.001	L	15	51.6	492.580	494.971	495.499	495.501	0
1	22071806	141	High	1.5	Vague	2	14	10	19	35.9	48.1	1.2	19	10	14	1.2	48.1	35.9	2	1.080	0.001	D	10	48.1	496.004	498.019	499.099	499.102	0
1	22071806	142	High	1.5	Precise	1	18	14	12	35.3	35.9	26.0	14	18	12	35.9	35.3	26.0	2	1.370	0.000	L	14	35.9	499.605	501.936	503.307	503.309	0
1	22071806	143	High	1.5	Precise	1	14	10	13	35.9	48.1	16.9	13	14	10	16.9	35.9	48.1	2	0.811	0.001	R	10	48.1	503.812	505.856	506.667	506.669	0
1	22071806	144	High	1.5	Precise	1	18	17	2	35.3	51.3	1.5	17	18	2	51.3	35.3	1.5	2	0.616	0.001	L	17	51.3	507.172	510.131	510.747	510.750	0
1	22071806	145	High	1.5	Precise	1	4	18	12	29.2	35.3	26.0	12	4	18	26.0	29.2	35.3	1	1.045	0.000	D	4	29.2	511.252	513.494	514.539	514.541	0
1	22071806	146	High	1.5	Precise	1	4	18	13	29.2	35.3	16.9	4	13	18	29.2	16.9	35.3	1	1.276	0.001	L	4	29.2	515.044	515.551	516.827	516.830	0
1	22071806	147	High	1.5	Precise	1	14	15	12	35.9	51.6	26.0	14	15	12	35.9	51.6	26.0	1	0.898	0.000	L	14	35.9	517.332	519.177	520.075	520.077	0
1	22071806	148	High	1.5	Vague	2	14	10	28	35.9	48.1	15.7	10	14	28	48.1	35.9	15.7	2	0.776	0.001	L	10	48.1	520.580	523.203	523.979	523.982	0
1	22071806	149	High	1.5	Precise	1	18	10	12	35.3	48.1	26.0	18	10	12	35.3	48.1	26.0	2	1.110	0.000	D	10	48.1	524.484	527.093	528.203	528.205	0
1	22071806	150	High	1.5	Precise	1	18	17	13	35.3	51.3	16.9	13	17	18	16.9	51.3	35.3	2	0.943	0.000	D	17	51.3	528.708	531.148	532.091	532.093	0
1	22071806	151	High	1.5	Precise	1	4	15	9	29.2	51.6	21.2	15	9	4	51.6	21.2	29.2	2	1.284	0.000	L	15	51.6	532.596	533.367	534.651	534.653	0
1	22071806	152	High	1.5	Precise	1	4	15	2	29.2	51.6	1.5	2	15	4	1.5	51.6	29.2	2	0.895	0.001	D	15	51.6	535.156	536.380	537.275	537.277	0
1	22071806	153	High	1.5	Vague	2	17	15	25	51.3	51.6	1.3	15	25	17	51.6	1.3	51.3	2	1.134	0.000	L	15	51.6	537.780	539.853	540.987	540.989	0
1	22071806	154	High	1.5	Vague	2	4	17	19	29.2	51.3	1.2	4	19	17	29.2	1.2	51.3	2	1.106	0.000	R	17	51.3	541.492	544.104	545.211	545.213	0
1	22071806	155	High	1.5	Vague	2	4	18	25	29.2	35.3	1.3	18	4	25	35.3	29.2	1.3	1	1.210	0.000	D	4	29.2	545.716	548.081	549.291	549.293	0
1	22071806	156	High	1.5	Precise	1	14	15	2	35.9	51.6	1.5	14	2	15	35.9	1.5	51.6	2	0.827	0.000	R	15	51.6	549.796	551.007	551.835	551.837	0
1	22071806	157	High	1.5	Vague	2	14	15	25	35.9	51.6	1.3	15	14	25	51.6	35.9	1.3	2	0.710	0.000	L	15	51.6	552.341	554.789	555.499	555.501	0
1	22071806	158	High	1.5	Precise	1	18	14	9	35.3	35.9	21.2	18	14	9	35.3	35.9	21.2	NaN	NaN	NaN	NaN	NaN	NaN	556.004	557.314	NaN	558.805	1
1	22071806	159	High	1.5	Vague	2	18	14	19	35.3	35.9	1.2	18	19	14	35.3	1.2	35.9	2	0.681	0.001	R	14	35.9	560.808	562.019	562.699	562.702	0
1	22071806	160	High	1.5	Vague	2	18	15	24	35.3	51.6	0.7	24	15	18	0.7	51.6	35.3	2	0.754	0.001	D	15	51.6	563.204	564.825	565.579	565.582	0
1	22071806	161	High	1.5	Vague	2	4	14	28	29.2	35.9	15.7	14	4	28	35.9	29.2	15.7	2	1.294	0.001	L	14	35.9	566.085	568.813	570.107	570.110	0
1	22071806	162	High	1.5	Precise	1	4	17	7	29.2	51.3	1.2	17	7	4	51.3	1.2	29.2	2	0.775	0.000	L	17	51.3	570.612	572.371	573.147	573.149	0
1	22071806	163	High	1.5	Precise	1	10	15	9	48.1	51.6	21.2	9	15	10	21.2	51.6	48.1	2	1.461	0.001	D	15	51.6	573.653	576.342	577.803	577.806	0
1	22071806	164	High	1.5	Precise	1	10	15	5	48.1	51.6	2.6	10	15	5	48.1	51.6	2.6	2	1.120	0.001	D	15	51.6	578.308	579.211	580.331	580.334	0
1	22071806	165	High	1.5	Vague	2	4	17	29	29.2	51.3	17.6	4	29	17	29.2	17.6	51.3	2	1.092	0.000	R	17	51.3	580.837	581.495	582.587	582.589	0
1	22071806	166	High	1.5	Precise	1	14	15	5	35.9	51.6	2.6	14	5	15	35.9	2.6	51.6	2	0.716	0.000	R	15	51.6	583.092	585.215	585.931	585.933	0
1	22071806	167	High	1.5	Vague	2	18	10	28	35.3	48.1	15.7	28	10	18	15.7	48.1	35.3	2	0.847	0.000	D	10	48.1	586.436	589.324	590.171	590.174	0
1	22071806	168	High	1.5	Vague	2	4	14	29	29.2	35.9	17.6	14	4	29	35.9	29.2	17.6	1	1.215	0.001	D	4	29.2	590.678	592.988	594.203	594.206	0
1	22071806	169	High	1.5	Vague	2	18	17	28	35.3	51.3	15.7	18	28	17	35.3	15.7	51.3	2	0.811	0.001	R	17	51.3	594.710	596.816	597.627	597.630	0
1	22071806	170	High	1.5	Precise	1	18	15	12	35.3	51.6	26.0	15	18	12	51.6	35.3	26.0	2	0.760	0.000	L	15	51.6	598.132	600.179	600.939	600.941	0
1	22071806	171	High	1.5	Vague	2	14	17	28	35.9	51.3	15.7	17	28	14	51.3	15.7	35.9	2	0.742	0.000	L	17	51.3	601.444	604.069	604.811	604.813	0
1	22071806	172	High	1.5	Precise	1	4	14	7	29.2	35.9	1.2	14	4	7	35.9	29.2	1.2	1	1.290	0.000	D	4	29.2	605.316	606.753	608.043	608.046	0
1	22071806	173	High	1.5	Vague	2	14	15	27	35.9	51.6	2.9	14	15	27	35.9	51.6	2.9	2	0.767	0.000	D	15	51.6	608.548	610.987	611.755	611.757	0
1	22071806	174	High	1.5	Precise	1	4	14	5	29.2	35.9	2.6	4	5	14	29.2	2.6	35.9	2	1.091	0.000	R	14	35.9	612.260	614.632	615.723	615.726	0
1	22071806	175	High	1.5	Vague	2	4	14	25	29.2	35.9	1.3	4	14	25	29.2	35.9	1.3	2	1.043	0.001	D	14	35.9	616.228	617.720	618.763	618.766	0
1	22071806	176	High	1.5	Precise	1	4	14	13	29.2	35.9	16.9	13	14	4	16.9	35.9	29.2	1	1.239	0.000	R	4	29.2	619.268	621.780	623.019	623.021	0
1	22071806	177	High	1.5	Vague	2	4	17	24	29.2	51.3	0.7	24	4	17	0.7	29.2	51.3	2	1.080	0.001	R	17	51.3	623.524	625.043	626.123	626.125	0
1	22071806	178	High	1.5	Vague	2	4	10	19	29.2	48.1	1.2	10	4	19	48.1	29.2	1.2	2	1.140	0.000	L	10	48.1	626.628	629.319	630.459	630.461	0
1	22071806	179	High	1.5	Vague	2	4	15	24	29.2	51.6	0.7	24	15	4	0.7	51.6	29.2	2	0.973	0.001	D	15	51.6	630.965	632.286	633.259	633.262	0
1	22071806	180	High	1.5	Vague	2	4	17	25	29.2	51.3	1.3	17	4	25	51.3	29.2	1.3	2	0.712	0.000	L	17	51.3	633.764	636.339	637.051	637.053	0
1	22071806	181	Low	10.0	Precise	1	4	15	1	29.2	51.6	1.1	4	15	1	29.2	51.6	1.1	2	1.388	0.001	D	15	51.6	653.064	654.399	655.787	655.790	0
1	22071806	182	Low	10.0	Precise	1	18	17	3	35.3	51.3	1.5	18	3	17	35.3	1.5	51.3	2	1.711	0.001	R	17	51.3	656.293	656.812	658.523	658.526	0
1	22071806	183	Low	10.0	Precise	1	14	15	1	35.9	51.6	1.1	14	1	15	35.9	1.1	51.6	2	1.644	0.001	R	15	51.6	659.028	659.727	661.371	661.373	0
1	22071806	184	Low	10.0	Precise	1	17	15	3	51.3	51.6	1.5	17	3	15	51.3	1.5	51.6	2	1.448	0.000	R	15	51.6	661.876	663.635	665.083	665.085	0
1	22071806	185	Low	10.0	Precise	1	4	15	6	29.2	51.6	1.4	6	15	4	1.4	51.6	29.2	2	1.068	0.001	D	15	51.6	665.589	667.135	668.203	668.206	0
1	22071806	186	Low	10.0	Precise	1	17	15	11	51.3	51.6	18.1	15	17	11	51.6	51.3	18.1	2	1.813	0.000	L	15	51.6	668.708	669.862	671.675	671.677	0
1	22071806	187	Low	10.0	Vague	2	4	17	22	29.2	51.3	15.6	4	17	22	29.2	51.3	15.6	2	1.914	0.000	D	17	51.3	672.180	672.738	674.651	674.654	0
1	22071806	188	Low	10.0	Precise	1	4	18	3	29.2	35.3	1.5	4	3	18	29.2	1.5	35.3	1	2.085	0.000	L	4	29.2	675.156	677.366	679.451	679.453	0
1	22071806	189	Low	10.0	Precise	1	14	10	3	35.9	48.1	1.5	3	10	14	1.5	48.1	35.9	2	1.237	0.001	D	10	48.1	679.956	682.582	683.819	683.822	0
1	22071806	190	Low	10.0	Vague	2	4	18	22	29.2	35.3	15.6	4	22	18	29.2	15.6	35.3	1	2.089	0.001	L	4	29.2	684.324	686.531	688.619	688.622	0
1	22071806	191	Low	10.0	Vague	2	4	14	21	29.2	35.9	0.9	21	14	4	0.9	35.9	29.2	1	1.294	0.001	R	4	29.2	689.124	690.685	691.979	691.982	0
1	22071806	192	Low	10.0	Precise	1	4	15	3	29.2	51.6	1.5	15	4	3	51.6	29.2	1.5	2	0.755	0.000	L	15	51.6	692.485	695.224	695.979	695.981	0
1	22071806	193	Low	10.0	Vague	2	4	15	22	29.2	51.6	15.6	4	22	15	29.2	15.6	51.6	2	1.019	0.001	R	15	51.6	696.484	697.744	698.763	698.765	0
1	22071806	194	Low	10.0	Vague	2	18	15	34	35.3	51.6	17.3	15	18	34	51.6	35.3	17.3	2	0.934	0.001	L	15	51.6	699.268	699.925	700.859	700.861	0
1	22071806	195	Low	10.0	Vague	2	14	10	20	35.9	48.1	1.2	10	14	20	48.1	35.9	1.2	2	1.168	0.000	L	10	48.1	701.365	702.956	704.123	704.126	0
1	22071806	196	Low	10.0	Vague	2	4	15	35	29.2	51.6	22.0	35	4	15	22.0	29.2	51.6	2	0.855	0.000	R	15	51.6	704.629	707.316	708.171	708.174	0
1	22071806	197	Low	10.0	Vague	2	4	10	35	29.2	48.1	22.0	35	4	10	22.0	29.2	48.1	2	1.406	0.000	R	10	48.1	708.676	711.564	712.971	712.973	0
1	22071806	198	Low	10.0	Precise	1	4	14	3	29.2	35.9	1.5	14	4	3	35.9	29.2	1.5	1	1.712	0.001	D	4	29.2	713.476	716.363	718.075	718.078	0
1	22071806	199	Low	10.0	Precise	1	18	10	6	35.3	48.1	1.4	10	18	6	48.1	35.3	1.4	2	1.033	0.001	L	10	48.1	718.581	721.075	722.107	722.110	0
1	22071806	200	Low	10.0	Vague	2	4	18	34	29.2	35.3	17.3	4	34	18	29.2	17.3	35.3	1	1.073	0.000	L	4	29.2	722.613	724.041	725.115	725.117	0
1	22071806	201	Low	10.0	Precise	1	4	17	6	29.2	51.3	1.4	6	4	17	1.4	29.2	51.3	2	1.378	0.000	R	17	51.3	725.620	726.697	728.075	728.077	0
1	22071806	202	Low	10.0	Vague	2	14	10	34	35.9	48.1	17.3	10	14	34	48.1	35.9	17.3	2	1.016	0.000	L	10	48.1	728.580	730.995	732.011	732.013	0
1	22071806	203	Low	10.0	Vague	2	4	15	20	29.2	51.6	1.2	15	4	20	51.6	29.2	1.2	2	0.970	0.001	L	15	51.6	732.516	734.561	735.531	735.534	0
1	22071806	204	Low	10.0	Precise	1	18	17	6	35.3	51.3	1.4	18	17	6	35.3	51.3	1.4	2	1.045	0.001	D	17	51.3	736.037	737.766	738.811	738.814	0
1	22071806	205	Low	10.0	Vague	2	18	15	22	35.3	51.6	15.6	22	18	15	15.6	35.3	51.6	2	1.069	0.001	R	15	51.6	739.317	741.326	742.395	742.398	0
1	22071806	206	Low	10.0	Vague	2	4	15	34	29.2	51.6	17.3	15	4	34	51.6	29.2	17.3	2	1.034	0.000	L	15	51.6	742.900	744.961	745.995	745.997	0
1	22071806	207	Low	10.0	Precise	1	10	15	8	48.1	51.6	25.7	15	8	10	51.6	25.7	48.1	2	1.540	0.000	L	15	51.6	746.500	747.703	749.243	749.245	0
1	22071806	208	Low	10.0	Precise	1	4	10	11	29.2	48.1	18.1	11	4	10	18.1	29.2	48.1	2	1.663	0.001	R	10	48.1	749.748	751.501	753.163	753.166	0
1	22071806	209	Low	10.0	Vague	2	10	17	21	48.1	51.3	0.9	10	21	17	48.1	0.9	51.3	1	0.918	0.001	L	10	48.1	753.668	756.229	757.147	757.149	0
1	22071806	210	Low	10.0	Vague	2	4	10	21	29.2	48.1	0.9	10	4	21	48.1	29.2	0.9	2	0.769	0.001	L	10	48.1	757.652	759.947	760.715	760.718	0
1	22071806	211	Low	10.0	Vague	2	10	17	20	48.1	51.3	1.2	20	10	17	1.2	48.1	51.3	2	1.163	0.001	R	17	51.3	761.221	763.744	764.907	764.910	0
1	22071806	212	Low	10.0	Vague	2	18	14	21	35.3	35.9	0.9	18	21	14	35.3	0.9	35.9	2	2.984	0.001	R	14	35.9	765.413	765.908	768.891	768.894	0
1	22071806	213	Low	10.0	Vague	2	14	17	20	35.9	51.3	1.2	20	17	14	1.2	51.3	35.9	2	1.395	0.000	D	17	51.3	769.397	772.200	773.595	773.598	0
1	22071806	214	Low	10.0	Vague	2	4	14	22	29.2	35.9	15.6	22	4	14	15.6	29.2	35.9	1	1.416	0.000	D	4	29.2	774.100	776.579	777.995	777.998	0
1	22071806	215	Low	10.0	Vague	2	4	10	20	29.2	48.1	1.2	4	20	10	29.2	1.2	48.1	2	1.224	0.000	R	10	48.1	778.501	781.043	782.267	782.269	0
1	22071806	216	Low	10.0	Vague	2	17	15	20	51.3	51.6	1.2	20	17	15	1.2	51.3	51.6	2	0.989	0.000	R	15	51.6	782.772	784.766	785.755	785.757	0
1	22071806	217	Low	10.0	Vague	2	14	10	21	35.9	48.1	0.9	10	14	21	48.1	35.9	0.9	2	1.206	0.000	L	10	48.1	786.260	788.933	790.139	790.141	0
1	22071806	218	Low	10.0	Precise	1	4	17	1	29.2	51.3	1.1	4	1	17	29.2	1.1	51.3	2	0.998	0.000	R	17	51.3	790.644	792.261	793.259	793.262	0
1	22071806	219	Low	10.0	Precise	1	4	18	16	29.2	35.3	13.7	16	18	4	13.7	35.3	29.2	1	1.918	0.000	R	4	29.2	793.765	795.709	797.627	797.629	0
1	22071806	220	Low	10.0	Vague	2	4	17	23	29.2	51.3	1.3	23	17	4	1.3	51.3	29.2	2	1.333	0.000	D	17	51.3	798.132	799.062	800.395	800.398	0
1	22071806	221	Low	10.0	Vague	2	18	17	20	35.3	51.3	1.2	18	20	17	35.3	1.2	51.3	2	0.665	0.000	R	17	51.3	800.900	803.202	803.867	803.870	0
1	22071806	222	Low	10.0	Precise	1	18	15	8	35.3	51.6	25.7	15	18	8	51.6	35.3	25.7	2	0.933	0.000	L	15	51.6	804.373	805.894	806.827	806.829	0
1	22071806	223	Low	10.0	Vague	2	17	15	34	51.3	51.6	17.3	17	34	15	51.3	17.3	51.6	2	1.224	0.001	R	15	51.6	807.332	809.139	810.363	810.366	0
1	22071806	224	Low	10.0	Vague	2	18	10	22	35.3	48.1	15.6	10	18	22	48.1	35.3	15.6	2	1.222	0.000	L	10	48.1	810.868	812.581	813.803	813.805	0
1	22071806	225	Low	10.0	Precise	1	14	10	6	35.9	48.1	1.4	10	14	6	48.1	35.9	1.4	2	0.674	0.001	L	10	48.1	814.308	816.473	817.147	817.149	0
1	22071806	226	Low	10.0	Precise	1	4	14	1	29.2	35.9	1.1	4	14	1	29.2	35.9	1.1	1	1.645	0.001	L	4	29.2	817.652	818.335	819.979	819.983	0
1	22071806	227	Low	10.0	Vague	2	10	15	34	48.1	51.6	17.3	10	15	34	48.1	51.6	17.3	1	1.206	0.001	L	10	48.1	820.486	821.925	823.131	823.134	0
1	22071806	228	Low	10.0	Precise	1	18	15	3	35.3	51.6	1.5	15	18	3	51.6	35.3	1.5	2	0.661	0.000	L	15	51.6	823.636	825.222	825.883	825.885	0
1	22071806	229	Low	10.0	Precise	1	18	14	6	35.3	35.9	1.4	6	14	18	1.4	35.9	35.3	2	1.518	0.001	D	14	35.9	826.388	828.941	830.459	830.462	0
1	22071806	230	Low	10.0	Precise	1	18	17	16	35.3	51.3	13.7	18	17	16	35.3	51.3	13.7	2	0.933	0.000	D	17	51.3	830.964	832.950	833.883	833.886	0
1	22071806	231	Low	10.0	Vague	2	4	14	35	29.2	35.9	22.0	35	4	14	22.0	29.2	35.9	2	1.984	0.001	R	14	35.9	834.389	835.243	837.227	837.230	0
1	22071806	232	Low	10.0	Vague	2	10	15	21	48.1	51.6	0.9	10	15	21	48.1	51.6	0.9	1	0.966	0.000	L	10	48.1	837.732	839.781	840.747	840.749	0
1	22071806	233	Low	10.0	Precise	1	4	10	6	29.2	48.1	1.4	10	6	4	48.1	1.4	29.2	2	1.372	0.000	L	10	48.1	841.252	844.047	845.419	845.422	0
1	22071806	234	Low	10.0	Vague	2	18	17	21	35.3	51.3	0.9	17	18	21	51.3	35.3	0.9	2	0.806	0.001	L	17	51.3	845.925	847.685	848.491	848.493	0
1	22071806	235	Low	10.0	Vague	2	18	10	35	35.3	48.1	22.0	18	10	35	35.3	48.1	22.0	2	2.569	0.001	D	10	48.1	848.997	850.002	852.571	852.574	0
1	22071806	236	Low	10.0	Vague	2	17	15	35	51.3	51.6	22.0	17	15	35	51.3	51.6	22.0	2	1.463	0.000	D	15	51.6	853.076	855.860	857.323	857.325	0
1	22071806	237	Low	10.0	Precise	1	18	14	1	35.3	35.9	1.1	18	1	14	35.3	1.1	35.9	2	1.726	0.000	R	14	35.9	857.828	858.877	860.603	860.605	0
1	22071806	238	Low	10.0	Precise	1	4	10	3	29.2	48.1	1.5	4	10	3	29.2	48.1	1.5	2	1.285	0.000	D	10	48.1	861.108	862.774	864.059	864.062	0
1	22071806	239	Low	10.0	Precise	1	4	18	11	29.2	35.3	18.1	18	11	4	35.3	18.1	29.2	1	1.533	0.000	R	4	29.2	864.564	865.838	867.371	867.373	0
1	22071806	240	Low	10.0	Precise	1	4	15	16	29.2	51.6	13.7	15	16	4	51.6	13.7	29.2	2	0.727	0.001	L	15	51.6	867.876	869.716	870.443	870.446	0
1	22071806	241	Low	10.0	Precise	1	14	15	6	35.9	51.6	1.4	14	6	15	35.9	1.4	51.6	2	0.689	0.000	R	15	51.6	875.909	877.610	878.299	878.302	0
1	22071806	242	Low	10.0	Vague	2	10	15	22	48.1	51.6	15.6	10	22	15	48.1	15.6	51.6	2	0.668	0.000	R	15	51.6	878.806	881.743	882.411	882.413	0
1	22071806	243	Low	10.0	Vague	2	4	10	34	29.2	48.1	17.3	34	10	4	17.3	48.1	29.2	2	0.936	0.000	D	10	48.1	882.916	884.963	885.899	885.901	0
1	22071806	244	Low	10.0	Vague	2	4	15	23	29.2	51.6	1.3	4	15	23	29.2	51.6	1.3	2	0.797	0.000	D	15	51.6	886.404	888.558	889.355	889.357	0
1	22071806	245	Low	10.0	Vague	2	10	15	23	48.1	51.6	1.3	15	23	10	51.6	1.3	48.1	2	0.991	0.000	L	15	51.6	889.861	892.044	893.035	893.037	0
1	22071806	246	Low	10.0	Precise	1	17	15	16	51.3	51.6	13.7	17	15	16	51.3	51.6	13.7	2	1.522	0.001	D	15	51.6	893.541	894.649	896.171	896.174	0
1	22071806	247	Low	10.0	Vague	2	4	10	22	29.2	48.1	15.6	22	4	10	15.6	29.2	48.1	2	0.870	0.001	R	10	48.1	896.676	899.062	899.931	899.934	0
1	22071806	248	Low	10.0	Precise	1	18	10	1	35.3	48.1	1.1	1	10	18	1.1	48.1	35.3	2	0.697	0.001	D	10	48.1	900.437	901.250	901.947	901.950	0
1	22071806	249	Low	10.0	Vague	2	18	14	20	35.3	35.9	1.2	18	14	20	35.3	35.9	1.2	2	1.386	0.001	D	14	35.9	902.452	905.378	906.763	906.766	0
1	22071806	250	Low	10.0	Precise	1	18	17	8	35.3	51.3	25.7	8	18	17	25.7	35.3	51.3	2	1.200	0.001	R	17	51.3	907.271	909.835	911.035	911.038	0
1	22071806	251	Low	10.0	Vague	2	14	17	23	35.9	51.3	1.3	14	17	23	35.9	51.3	1.3	2	0.945	0.000	D	17	51.3	911.541	912.491	913.435	913.438	0
1	22071806	252	Low	10.0	Vague	2	18	15	23	35.3	51.6	1.3	18	23	15	35.3	1.3	51.6	2	0.678	0.000	R	15	51.6	913.941	916.133	916.811	916.813	0
1	22071806	253	Low	10.0	Precise	1	4	10	8	29.2	48.1	25.7	4	10	8	29.2	48.1	25.7	2	1.201	0.001	D	10	48.1	917.316	918.315	919.515	919.518	0
1	22071806	254	Low	10.0	Precise	1	10	15	1	48.1	51.6	1.1	1	10	15	1.1	48.1	51.6	2	0.693	0.000	R	15	51.6	920.020	921.702	922.395	922.398	0
1	22071806	255	Low	10.0	Precise	1	4	10	16	29.2	48.1	13.7	4	16	10	29.2	13.7	48.1	2	1.030	0.000	R	10	48.1	922.900	923.685	924.715	924.717	0
1	22071806	256	Low	10.0	Precise	1	4	14	6	29.2	35.9	1.4	6	14	4	1.4	35.9	29.2	2	1.567	0.000	D	14	35.9	925.221	925.724	927.291	927.294	0
1	22071806	257	Low	10.0	Precise	1	4	14	11	29.2	35.9	18.1	11	4	14	18.1	29.2	35.9	2	1.615	0.000	R	14	35.9	927.797	928.332	929.947	929.950	0
1	22071806	258	Low	10.0	Vague	2	10	17	35	48.1	51.3	22.0	35	10	17	22.0	48.1	51.3	2	1.974	0.001	R	17	51.3	930.453	931.126	933.099	933.102	0
1	22071806	259	Low	10.0	Precise	1	14	10	16	35.9	48.1	13.7	14	10	16	35.9	48.1	13.7	2	1.332	0.001	D	10	48.1	933.605	934.807	936.139	936.142	0
1	22071806	260	Low	10.0	Vague	2	14	15	34	35.9	51.6	17.3	15	34	14	51.6	17.3	35.9	2	1.168	0.001	L	15	51.6	936.644	937.963	939.131	939.134	0
1	22071806	261	Low	10.0	Precise	1	17	15	1	51.3	51.6	1.1	1	15	17	1.1	51.6	51.3	1	0.905	0.001	R	17	51.3	939.637	940.418	941.323	941.326	0
1	22071806	262	Low	10.0	Vague	2	4	14	20	29.2	35.9	1.2	20	14	4	1.2	35.9	29.2	2	1.535	0.001	D	14	35.9	941.828	943.469	945.003	945.006	0
1	22071806	263	Low	10.0	Vague	2	18	15	21	35.3	51.6	0.9	21	18	15	0.9	35.3	51.6	2	0.837	0.000	R	15	51.6	945.508	946.694	947.531	947.533	0
1	22071806	264	Low	10.0	Vague	2	4	18	21	29.2	35.3	0.9	21	18	4	0.9	35.3	29.2	1	1.289	0.001	R	4	29.2	948.037	950.978	952.267	952.270	0
1	22071806	265	Low	10.0	Vague	2	18	10	23	35.3	48.1	1.3	23	10	18	1.3	48.1	35.3	2	0.769	0.000	D	10	48.1	952.772	954.762	955.531	955.534	0
1	22071806	266	Low	10.0	Precise	1	18	15	16	35.3	51.6	13.7	15	16	18	51.6	13.7	35.3	2	0.746	0.000	L	15	51.6	956.036	958.065	958.811	958.813	0
1	22071806	267	Low	10.0	Vague	2	4	17	35	29.2	51.3	22.0	4	17	35	29.2	51.3	22.0	2	0.898	0.001	D	17	51.3	959.316	960.601	961.499	961.502	0
1	22071806	268	Low	10.0	Vague	2	14	10	22	35.9	48.1	15.6	14	10	22	35.9	48.1	15.6	2	1.777	0.001	D	10	48.1	962.004	963.771	965.547	965.550	0
1	22071806	269	Low	10.0	Vague	2	18	14	35	35.3	35.9	22.0	18	35	14	35.3	22.0	35.9	2	1.328	0.001	R	14	35.9	966.052	966.924	968.251	968.254	0
1	22071806	270	Low	10.0	Precise	1	18	17	11	35.3	51.3	18.1	11	18	17	18.1	35.3	51.3	2	0.918	0.000	R	17	51.3	968.757	971.237	972.155	972.158	0
1	22071806	271	Low	10.0	Precise	1	10	17	3	48.1	51.3	1.5	17	3	10	51.3	1.5	48.1	2	1.792	0.000	L	17	51.3	972.661	973.883	975.675	975.678	0
1	22071806	272	Low	10.0	Vague	2	14	17	22	35.9	51.3	15.6	22	17	14	15.6	51.3	35.9	2	0.866	0.000	D	17	51.3	976.181	979.034	979.899	979.901	0
1	22071806	273	Low	10.0	Vague	2	4	14	34	29.2	35.9	17.3	14	34	4	35.9	17.3	29.2	2	1.468	0.000	L	14	35.9	980.404	982.287	983.755	983.757	0
1	22071806	274	Low	10.0	Vague	2	14	15	20	35.9	51.6	1.2	14	20	15	35.9	1.2	51.6	2	0.817	0.000	R	15	51.6	984.261	985.450	986.267	986.270	0
1	22071806	275	Low	10.0	Precise	1	4	18	8	29.2	35.3	25.7	8	4	18	25.7	29.2	35.3	1	1.151	0.001	D	4	29.2	986.773	988.221	989.371	989.374	0
1	22071806	276	Low	10.0	Vague	2	18	17	23	35.3	51.3	1.3	23	17	18	1.3	51.3	35.3	2	0.963	0.000	D	17	51.3	989.876	992.344	993.307	993.310	0
1	22071806	277	Low	10.0	Vague	2	4	17	21	29.2	51.3	0.9	17	21	4	51.3	0.9	29.2	2	1.030	0.001	L	17	51.3	993.812	995.141	996.171	996.174	0
1	22071806	278	Low	10.0	Precise	1	14	17	16	35.9	51.3	13.7	17	16	14	51.3	13.7	35.9	2	0.735	0.001	L	17	51.3	996.676	999.229	999.963	999.966	0
1	22071806	279	Low	10.0	Vague	2	14	10	35	35.9	48.1	22.0	14	35	10	35.9	22.0	48.1	2	0.931	0.001	R	10	48.1	1000.468	1002.280	1003.211	1003.214	0
1	22071806	280	Low	10.0	Precise	1	14	15	16	35.9	51.6	13.7	14	16	15	35.9	13.7	51.6	2	0.740	0.000	R	15	51.6	1003.716	1005.479	1006.219	1006.222	0
1	22071806	281	Low	10.0	Precise	1	18	17	1	35.3	51.3	1.1	1	17	18	1.1	51.3	35.3	2	0.687	0.001	D	17	51.3	1006.725	1008.748	1009.435	1009.438	0
1	22071806	282	Low	10.0	Vague	2	4	14	23	29.2	35.9	1.3	4	23	14	29.2	1.3	35.9	1	1.275	0.001	L	4	29.2	1009.941	1011.361	1012.635	1012.638	0
1	22071806	283	Low	10.0	Vague	2	17	15	23	51.3	51.6	1.3	17	15	23	51.3	51.6	1.3	2	1.238	0.000	D	15	51.6	1013.140	1014.757	1015.995	1015.998	0
1	22071806	284	Low	10.0	Vague	2	4	18	20	29.2	35.3	1.2	4	18	20	29.2	35.3	1.2	1	1.502	0.001	L	4	29.2	1016.501	1018.526	1020.027	1020.030	0
1	22071806	285	Low	10.0	Vague	2	14	17	21	35.9	51.3	0.9	14	17	21	35.9	51.3	0.9	2	1.260	0.000	D	17	51.3	1020.532	1023.071	1024.331	1024.334	0
1	22071806	286	Low	10.0	Precise	1	18	10	16	35.3	48.1	13.7	16	10	18	13.7	48.1	35.3	2	0.895	0.000	D	10	48.1	1024.836	1027.564	1028.459	1028.462	0
1	22071806	287	Low	10.0	Vague	2	4	17	20	29.2	51.3	1.2	17	20	4	51.3	1.2	29.2	2	0.735	0.001	L	17	51.3	1028.965	1029.500	1030.235	1030.238	0
1	22071806	288	Low	10.0	Precise	1	4	17	11	29.2	51.3	18.1	4	17	11	29.2	51.3	18.1	2	0.672	0.000	D	17	51.3	1030.741	1032.955	1033.627	1033.630	0
1	22071806	289	Low	10.0	Precise	1	10	15	6	48.1	51.6	1.4	10	6	15	48.1	1.4	51.6	2	0.697	0.000	R	15	51.6	1034.132	1036.562	1037.259	1037.262	0
1	22071806	290	Low	10.0	Vague	2	14	15	21	35.9	51.6	0.9	21	15	14	0.9	51.6	35.9	2	1.077	0.001	D	15	51.6	1037.764	1038.678	1039.755	1039.758	0
1	22071806	291	Low	10.0	Precise	1	14	15	8	35.9	51.6	25.7	14	15	8	35.9	51.6	25.7	2	0.986	0.001	D	15	51.6	1040.260	1042.690	1043.675	1043.678	0
1	22071806	292	Low	10.0	Precise	1	17	15	6	51.3	51.6	1.4	15	6	17	51.6	1.4	51.3	2	0.887	0.000	L	15	51.6	1044.180	1046.292	1047.179	1047.181	0
1	22071806	293	Low	10.0	Vague	2	10	15	35	48.1	51.6	22.0	15	35	10	51.6	22.0	48.1	2	0.638	0.001	L	15	51.6	1047.684	1048.461	1049.099	1049.102	0
1	22071806	294	Low	10.0	Precise	1	10	15	11	48.1	51.6	18.1	15	11	10	51.6	18.1	48.1	2	0.685	0.000	L	15	51.6	1049.604	1050.286	1050.971	1050.973	0
1	22071806	295	Low	10.0	Vague	2	10	17	23	48.1	51.3	1.3	17	10	23	51.3	48.1	1.3	2	0.676	0.001	L	17	51.3	1051.477	1054.183	1054.859	1054.862	0
1	22071806	296	Low	10.0	Precise	1	4	15	8	29.2	51.6	25.7	8	4	15	25.7	29.2	51.6	2	1.018	0.000	R	15	51.6	1055.364	1057.025	1058.043	1058.046	0
1	22071806	297	Low	10.0	Precise	1	18	14	16	35.3	35.9	13.7	14	16	18	35.9	13.7	35.3	2	1.632	0.000	L	14	35.9	1058.549	1059.739	1061.371	1061.374	0
1	22071806	298	Low	10.0	Precise	1	14	17	3	35.9	51.3	1.5	17	3	14	51.3	1.5	35.9	2	0.754	0.001	L	17	51.3	1061.876	1063.017	1063.771	1063.774	0
1	22071806	299	Low	10.0	Vague	2	18	15	20	35.3	51.6	1.2	18	15	20	35.3	51.6	1.2	2	0.667	0.000	D	15	51.6	1064.276	1065.920	1066.587	1066.589	0
1	22071806	300	Low	10.0	Vague	2	18	10	20	35.3	48.1	1.2	10	20	18	48.1	1.2	35.3	2	0.629	0.001	L	10	48.1	1067.093	1069.766	1070.395	1070.398	0
1	22071806	301	Low	10.0	Vague	2	18	15	35	35.3	51.6	22.0	15	35	18	51.6	22.0	35.3	2	1.109	0.000	L	15	51.6	1086.186	1087.463	1088.571	1088.574	0
1	22071806	302	Low	10.0	Precise	1	10	17	11	48.1	51.3	18.1	10	11	17	48.1	18.1	51.3	2	1.678	0.000	R	17	51.3	1089.077	1091.565	1093.243	1093.246	0
1	22071806	303	Low	10.0	Vague	2	10	15	20	48.1	51.6	1.2	20	15	10	1.2	51.6	48.1	2	1.311	0.001	D	15	51.6	1093.749	1094.892	1096.203	1096.206	0
1	22071806	304	Low	10.0	Precise	1	10	15	16	48.1	51.6	13.7	15	10	16	51.6	48.1	13.7	2	1.467	0.000	L	15	51.6	1096.709	1098.176	1099.643	1099.646	0
1	22071806	305	Low	10.0	Vague	2	18	17	22	35.3	51.3	15.6	22	17	18	15.6	51.3	35.3	2	0.888	0.001	D	17	51.3	1100.150	1101.571	1102.459	1102.462	0
1	22071806	306	Low	10.0	Precise	1	18	15	1	35.3	51.6	1.1	1	18	15	1.1	35.3	51.6	2	1.146	0.001	R	15	51.6	1102.965	1104.593	1105.739	1105.742	0
1	22071806	307	Low	10.0	Precise	1	10	17	8	48.1	51.3	25.7	17	10	8	51.3	48.1	25.7	2	0.951	0.000	L	17	51.3	1106.245	1107.316	1108.267	1108.269	0
1	22071806	308	Low	10.0	Precise	1	4	14	16	29.2	35.9	13.7	14	4	16	35.9	29.2	13.7	2	2.119	0.001	L	14	35.9	1108.772	1111.044	1113.163	1113.166	0
1	22071806	309	Low	10.0	Precise	1	14	17	8	35.9	51.3	25.7	8	17	14	25.7	51.3	35.9	2	1.092	0.000	D	17	51.3	1113.669	1116.007	1117.099	1117.102	0
1	22071806	310	Low	10.0	Vague	2	18	14	23	35.3	35.9	1.3	14	18	23	35.9	35.3	1.3	2	1.646	0.001	L	14	35.9	1117.604	1118.125	1119.771	1119.774	0
1	22071806	311	Low	10.0	Vague	2	4	18	23	29.2	35.3	1.3	18	4	23	35.3	29.2	1.3	1	0.893	0.000	D	4	29.2	1120.277	1122.814	1123.707	1123.710	0
1	22071806	312	Low	10.0	Vague	2	14	17	34	35.9	51.3	17.3	14	17	34	35.9	51.3	17.3	2	0.782	0.000	D	17	51.3	1124.212	1125.965	1126.747	1126.749	0
1	22071806	313	Low	10.0	Precise	1	18	14	3	35.3	35.9	1.5	14	18	3	35.9	35.3	1.5	2	1.250	0.000	L	14	35.9	1127.252	1129.354	1130.603	1130.606	0
1	22071806	314	Low	10.0	Vague	2	14	17	35	35.9	51.3	22.0	14	35	17	35.9	22.0	51.3	2	0.963	0.000	R	17	51.3	1131.109	1133.400	1134.363	1134.365	0
1	22071806	315	Low	10.0	Precise	1	10	15	3	48.1	51.6	1.5	3	10	15	1.5	48.1	51.6	2	1.106	0.000	R	15	51.6	1134.868	1137.753	1138.859	1138.862	0
1	22071806	316	Low	10.0	Precise	1	14	17	1	35.9	51.3	1.1	17	1	14	51.3	1.1	35.9	2	0.757	0.001	L	17	51.3	1139.365	1142.022	1142.779	1142.783	0
1	22071806	317	Low	10.0	Precise	1	18	15	11	35.3	51.6	18.1	11	18	15	18.1	35.3	51.6	2	0.748	0.001	R	15	51.6	1143.285	1144.367	1145.115	1145.118	0
1	22071806	318	Low	10.0	Vague	2	4	10	23	29.2	48.1	1.3	10	23	4	48.1	1.3	29.2	2	1.429	0.001	L	10	48.1	1145.620	1146.823	1148.251	1148.254	0
1	22071806	319	Low	10.0	Vague	2	17	15	21	51.3	51.6	0.9	21	17	15	0.9	51.3	51.6	2	0.646	0.001	R	15	51.6	1148.756	1151.045	1151.691	1151.694	0
1	22071806	320	Low	10.0	Vague	2	14	15	23	35.9	51.6	1.3	15	14	23	51.6	35.9	1.3	2	0.695	0.001	L	15	51.6	1152.197	1153.717	1154.411	1154.414	0
1	22071806	321	Low	10.0	Precise	1	18	14	11	35.3	35.9	18.1	11	14	18	18.1	35.9	35.3	2	1.103	0.001	D	14	35.9	1154.916	1156.989	1158.091	1158.094	0
1	22071806	322	Low	10.0	Vague	2	10	17	22	48.1	51.3	15.6	10	17	22	48.1	51.3	15.6	1	1.267	0.001	L	10	48.1	1158.597	1159.704	1160.971	1160.974	0
1	22071806	323	Low	10.0	Vague	2	14	15	35	35.9	51.6	22.0	14	15	35	35.9	51.6	22.0	2	0.997	0.000	D	15	51.6	1161.477	1163.190	1164.187	1164.189	0
1	22071806	324	Low	10.0	Precise	1	18	15	6	35.3	51.6	1.4	18	6	15	35.3	1.4	51.6	2	0.689	0.000	R	15	51.6	1164.693	1167.386	1168.075	1168.077	0
1	22071806	325	Low	10.0	Precise	1	4	15	11	29.2	51.6	18.1	11	15	4	18.1	51.6	29.2	2	0.854	0.001	D	15	51.6	1168.581	1169.125	1169.979	1169.982	0
1	22071806	326	Low	10.0	Precise	1	14	10	1	35.9	48.1	1.1	1	14	10	1.1	35.9	48.1	2	0.859	0.001	R	10	48.1	1170.485	1172.528	1173.387	1173.390	0
1	22071806	327	Low	10.0	Precise	1	17	15	8	51.3	51.6	25.7	17	15	8	51.3	51.6	25.7	1	1.153	0.001	L	17	51.3	1173.893	1174.474	1175.627	1175.630	0
1	22071806	328	Low	10.0	Precise	1	14	17	11	35.9	51.3	18.1	11	17	14	18.1	51.3	35.9	2	1.078	0.001	D	17	51.3	1176.133	1176.917	1177.995	1177.998	0
1	22071806	329	Low	10.0	Vague	2	10	17	34	48.1	51.3	17.3	34	10	17	17.3	48.1	51.3	1	1.292	0.001	D	10	48.1	1178.500	1179.775	1181.067	1181.070	0
1	22071806	330	Low	10.0	Precise	1	4	10	1	29.2	48.1	1.1	10	1	4	48.1	1.1	29.2	2	1.187	0.000	L	10	48.1	1181.573	1182.648	1183.835	1183.838	0
1	22071806	331	Low	10.0	Vague	2	18	17	34	35.3	51.3	17.3	18	34	17	35.3	17.3	51.3	2	0.874	0.000	R	17	51.3	1184.341	1185.041	1185.915	1185.918	0
1	22071806	332	Low	10.0	Vague	2	4	17	34	29.2	51.3	17.3	4	17	34	29.2	51.3	17.3	2	0.883	0.000	D	17	51.3	1186.421	1186.952	1187.835	1187.838	0
1	22071806	333	Low	10.0	Vague	2	18	10	21	35.3	48.1	0.9	21	18	10	0.9	35.3	48.1	2	0.996	0.000	R	10	48.1	1188.341	1189.527	1190.523	1190.526	0
1	22071806	334	Low	10.0	Vague	2	4	18	35	29.2	35.3	22.0	4	35	18	29.2	22.0	35.3	1	1.264	0.000	L	4	29.2	1191.028	1191.563	1192.827	1192.830	0
1	22071806	335	Low	10.0	Precise	1	14	10	11	35.9	48.1	18.1	10	11	14	48.1	18.1	35.9	2	0.947	0.000	L	10	48.1	1193.332	1195.624	1196.571	1196.574	0
1	22071806	336	Low	10.0	Vague	2	4	15	21	29.2	51.6	0.9	21	4	15	0.9	29.2	51.6	2	0.664	0.000	R	15	51.6	1197.076	1199.220	1199.883	1199.886	0
1	22071806	337	Low	10.0	Precise	1	18	10	8	35.3	48.1	25.7	18	10	8	35.3	48.1	25.7	2	0.930	0.001	D	10	48.1	1200.389	1200.921	1201.852	1201.854	0
1	22071806	338	Low	10.0	Vague	2	17	15	22	51.3	51.6	15.6	15	17	22	51.6	51.3	15.6	2	0.756	0.001	L	15	51.6	1202.356	1205.016	1205.771	1205.774	0
1	22071806	339	Low	10.0	Precise	1	4	17	3	29.2	51.3	1.5	17	3	4	51.3	1.5	29.2	2	1.134	0.000	L	17	51.3	1206.277	1207.262	1208.395	1208.398	0
1	22071806	340	Low	10.0	Precise	1	10	17	16	48.1	51.3	13.7	17	10	16	51.3	48.1	13.7	2	0.592	0.001	L	17	51.3	1208.900	1211.611	1212.203	1212.206	0
1	22071806	341	Low	10.0	Precise	1	14	10	8	35.9	48.1	25.7	10	14	8	48.1	35.9	25.7	2	1.980	0.000	L	10	48.1	1212.709	1213.919	1215.899	1215.901	0
1	22071806	342	Low	10.0	Precise	1	4	18	1	29.2	35.3	1.1	1	4	18	1.1	29.2	35.3	1	1.191	0.001	D	4	29.2	1216.404	1218.100	1219.291	1219.294	0
1	22071806	343	Low	10.0	Precise	1	4	18	6	29.2	35.3	1.4	4	18	6	29.2	35.3	1.4	1	1.982	0.000	L	4	29.2	1219.797	1222.061	1224.043	1224.046	0
1	22071806	344	Low	10.0	Precise	1	10	17	6	48.1	51.3	1.4	6	17	10	1.4	51.3	48.1	1	0.653	0.001	R	10	48.1	1224.548	1227.438	1228.092	1228.094	0
1	22071806	345	Low	10.0	Vague	2	18	14	34	35.3	35.9	17.3	18	34	14	35.3	17.3	35.9	2	1.380	0.001	R	14	35.9	1228.597	1231.064	1232.443	1232.446	0
1	22071806	346	Low	10.0	Precise	1	14	15	3	35.9	51.6	1.5	15	14	3	51.6	35.9	1.5	2	0.800	0.000	L	15	51.6	1232.949	1235.291	1236.091	1236.094	0
1	22071806	347	Low	10.0	Precise	1	4	17	8	29.2	51.3	25.7	8	17	4	25.7	51.3	29.2	2	0.988	0.001	D	17	51.3	1236.597	1238.207	1239.195	1239.198	0
1	22071806	348	Low	10.0	Vague	2	14	15	22	35.9	51.6	15.6	22	15	14	15.6	51.6	35.9	2	2.011	0.001	D	15	51.6	1239.701	1240.480	1242.492	1242.494	0
1	22071806	349	Low	10.0	Precise	1	4	17	16	29.2	51.3	13.7	16	17	4	13.7	51.3	29.2	2	0.622	0.001	D	17	51.3	1242.997	1245.581	1246.203	1246.206	0
1	22071806	350	Low	10.0	Precise	1	18	10	11	35.3	48.1	18.1	18	11	10	35.3	18.1	48.1	2	0.946	0.000	R	10	48.1	1246.709	1247.945	1248.891	1248.894	0
1	22071806	351	Low	10.0	Precise	1	10	17	1	48.1	51.3	1.1	10	1	17	48.1	1.1	51.3	2	0.716	0.000	R	17	51.3	1249.396	1251.343	1252.059	1252.062	0
1	22071806	352	Low	10.0	Vague	2	14	10	23	35.9	48.1	1.3	14	10	23	35.9	48.1	1.3	2	1.632	0.001	D	10	48.1	1252.565	1254.571	1256.204	1256.206	0
1	22071806	353	Low	10.0	Precise	1	14	17	6	35.9	51.3	1.4	17	14	6	51.3	35.9	1.4	2	0.758	0.000	L	17	51.3	1256.709	1259.573	1260.331	1260.334	0
1	22071806	354	Low	10.0	Vague	2	18	14	22	35.3	35.9	15.6	18	22	14	35.3	15.6	35.9	2	1.503	0.000	R	14	35.9	1260.837	1262.300	1263.803	1263.806	0
1	22071806	355	Low	10.0	Precise	1	18	10	3	35.3	48.1	1.5	3	18	10	1.5	35.3	48.1	2	0.775	0.001	R	10	48.1	1264.308	1265.541	1266.315	1266.318	0
1	22071806	356	Low	10.0	Precise	1	18	14	8	35.3	35.9	25.7	18	8	14	35.3	25.7	35.9	2	1.147	0.001	R	14	35.9	1266.820	1269.120	1270.267	1270.270	0
1	22071806	357	Low	10.0	Precise	1	14	15	11	35.9	51.6	18.1	15	14	11	51.6	35.9	18.1	2	0.807	0.000	L	15	51.6	1270.772	1273.236	1274.043	1274.046	0
1	22071806	358	Low	10.0	Vague	2	18	17	35	35.3	51.3	22.0	18	17	35	35.3	51.3	22.0	2	0.789	0.000	D	17	51.3	1274.549	1275.862	1276.651	1276.654	0
1	22071806	359	Low	10.0	Precise	1	4	14	8	29.2	35.9	25.7	8	4	14	25.7	29.2	35.9	1	1.742	0.001	D	4	29.2	1277.156	1278.733	1280.475	1280.478	0
1	22071806	360	Low	10.0	Vague	2	18	10	34	35.3	48.1	17.3	18	10	34	35.3	48.1	17.3	2	0.905	0.001	D	10	48.1	1280.980	1283.906	1284.811	1284.815	0
