Group	subID	trial	TimePressure	TimeConstraint	Vagueness	Vaguenesscode	ID1	ID2	ID3	V1	V2	V3	ID_left	ID_middle	ID_right	Bid_left	Bid_middle	Bid_right	chosenItem	RT	RTvariance	chosenPosition	chosenID	chosenValue	fixation_time	option_time	choice_time	feedback_time	timeout
1	22102501	1	Low	10.0	Vague	2	9	15	28	25.2	38.5	24.8	9	28	15	25.2	24.8	38.5	2	1.406	0.000	R	15	38.5	4.473	6.854	8.260	8.264	0
1	22102501	2	Low	10.0	Vague	2	15	17	23	38.5	64.5	3.6	17	15	23	64.5	38.5	3.6	1	0.841	0.000	D	15	38.5	8.767	10.284	11.124	11.127	0
1	22102501	3	Low	10.0	Precise	1	9	16	2	25.2	27.9	4.1	16	9	2	27.9	25.2	4.1	1	1.446	0.000	D	9	25.2	11.632	13.310	14.756	14.759	0
1	22102501	4	Low	10.0	Vague	2	10	17	36	30.6	64.5	18.9	36	17	10	18.9	64.5	30.6	2	1.104	0.000	D	17	64.5	15.263	16.580	17.684	17.687	0
1	22102501	5	Low	10.0	Precise	1	18	17	11	53.3	64.5	18.6	17	11	18	64.5	18.6	53.3	2	0.849	0.000	L	17	64.5	18.191	19.059	19.908	19.913	0
1	22102501	6	Low	10.0	Vague	2	16	18	22	27.9	53.3	17.2	22	18	16	17.2	53.3	27.9	2	1.227	0.000	D	18	53.3	20.419	21.281	22.508	22.511	0
1	22102501	7	Low	10.0	Vague	2	9	16	22	25.2	27.9	17.2	22	9	16	17.2	25.2	27.9	3	0.674	0.000	L	22	17.2	23.014	24.569	25.244	25.246	0
1	22102501	8	Low	10.0	Precise	1	9	18	14	25.2	53.3	24.9	9	14	18	25.2	24.9	53.3	3	0.986	0.000	D	14	24.9	25.749	27.266	28.252	28.255	0
1	22102501	9	Low	10.0	Vague	2	16	15	23	27.9	38.5	3.6	15	16	23	38.5	27.9	3.6	2	0.771	0.001	L	15	38.5	28.758	29.490	30.260	30.262	0
1	22102501	10	Low	10.0	Vague	2	16	17	21	27.9	64.5	3.2	17	21	16	64.5	3.2	27.9	2	0.689	0.000	L	17	64.5	30.766	32.691	33.380	33.383	0
1	22102501	11	Low	10.0	Vague	2	9	10	28	25.2	30.6	24.8	10	28	9	30.6	24.8	25.2	1	1.245	0.000	R	9	25.2	33.886	34.591	35.836	35.839	0
1	22102501	12	Low	10.0	Vague	2	15	18	22	38.5	53.3	17.2	15	18	22	38.5	53.3	17.2	1	0.638	0.000	L	15	38.5	36.342	37.150	37.788	37.791	0
1	22102501	13	Low	10.0	Precise	1	10	15	2	30.6	38.5	4.1	2	10	15	4.1	30.6	38.5	2	0.529	0.001	R	15	38.5	38.294	39.300	39.828	39.831	0
1	22102501	14	Low	10.0	Precise	1	16	17	2	27.9	64.5	4.1	17	16	2	64.5	27.9	4.1	2	0.759	0.000	L	17	64.5	40.333	43.101	43.860	43.862	0
1	22102501	15	Low	10.0	Vague	2	15	17	22	38.5	64.5	17.2	22	17	15	17.2	64.5	38.5	1	0.729	0.001	R	15	38.5	44.366	47.355	48.084	48.087	0
1	22102501	16	Low	10.0	Precise	1	16	15	11	27.9	38.5	18.6	16	11	15	27.9	18.6	38.5	2	0.528	0.001	R	15	38.5	48.589	49.981	50.508	50.511	0
1	22102501	17	Low	10.0	Vague	2	10	17	32	30.6	64.5	23.0	32	17	10	23.0	64.5	30.6	3	1.313	0.000	L	32	23.0	51.014	52.691	54.004	54.007	0
1	22102501	18	Low	10.0	Precise	1	10	15	13	30.6	38.5	11.9	10	13	15	30.6	11.9	38.5	2	0.684	0.001	R	15	38.5	54.510	56.776	57.460	57.463	0
1	22102501	19	Low	10.0	Precise	1	15	17	2	38.5	64.5	4.1	17	15	2	64.5	38.5	4.1	2	0.736	0.001	L	17	64.5	57.965	59.804	60.540	60.543	0
1	22102501	20	Low	10.0	Vague	2	9	17	28	25.2	64.5	24.8	17	9	28	64.5	25.2	24.8	2	1.580	0.001	L	17	64.5	61.046	61.728	63.308	63.311	0
1	22102501	21	Low	10.0	Precise	1	10	15	11	30.6	38.5	18.6	11	15	10	18.6	38.5	30.6	2	0.718	0.000	D	15	38.5	63.814	64.566	65.284	65.287	0
1	22102501	22	Low	10.0	Vague	2	16	18	21	27.9	53.3	3.2	18	16	21	53.3	27.9	3.2	2	0.833	0.000	L	18	53.3	65.789	68.059	68.892	68.894	0
1	22102501	23	Low	10.0	Vague	2	9	17	21	25.2	64.5	3.2	9	21	17	25.2	3.2	64.5	2	0.565	0.000	R	17	64.5	69.397	70.463	71.028	71.031	0
1	22102501	24	Low	10.0	Vague	2	15	18	23	38.5	53.3	3.6	15	18	23	38.5	53.3	3.6	1	0.763	0.000	L	15	38.5	71.534	74.473	75.236	75.239	0
1	22102501	25	Low	10.0	Precise	1	16	15	2	27.9	38.5	4.1	16	2	15	27.9	4.1	38.5	2	0.641	0.000	R	15	38.5	75.742	76.875	77.516	77.519	0
1	22102501	26	Low	10.0	Vague	2	18	17	23	53.3	64.5	3.6	23	18	17	3.6	53.3	64.5	2	0.596	0.001	R	17	64.5	78.022	79.424	80.020	80.023	0
1	22102501	27	Low	10.0	Precise	1	15	18	4	38.5	53.3	14.2	18	4	15	53.3	14.2	38.5	1	1.076	0.000	R	15	38.5	80.526	83.265	84.340	84.343	0
1	22102501	28	Low	10.0	Vague	2	18	17	32	53.3	64.5	23.0	18	17	32	53.3	64.5	23.0	2	0.982	0.000	D	17	64.5	84.846	85.999	86.980	86.983	0
1	22102501	29	Low	10.0	Vague	2	10	18	28	30.6	53.3	24.8	10	18	28	30.6	53.3	24.8	2	1.050	0.001	D	18	53.3	87.485	88.355	89.404	89.407	0
1	22102501	30	Low	10.0	Vague	2	16	17	22	27.9	64.5	17.2	16	17	22	27.9	64.5	17.2	2	0.786	0.000	D	17	64.5	89.910	91.283	92.068	92.071	0
1	22102501	31	Low	10.0	Vague	2	9	15	21	25.2	38.5	3.2	21	15	9	3.2	38.5	25.2	2	0.780	0.001	D	15	38.5	92.573	94.672	95.452	95.455	0
1	22102501	32	Low	10.0	Precise	1	16	17	14	27.9	64.5	24.9	16	17	14	27.9	64.5	24.9	2	0.680	0.000	D	17	64.5	95.957	97.756	98.436	98.439	0
1	22102501	33	Low	10.0	Precise	1	10	15	14	30.6	38.5	24.9	14	10	15	24.9	30.6	38.5	2	0.668	0.000	R	15	38.5	98.941	101.664	102.332	102.334	0
1	22102501	34	Low	10.0	Vague	2	9	16	28	25.2	27.9	24.8	9	16	28	25.2	27.9	24.8	1	1.415	0.000	L	9	25.2	102.837	104.381	105.796	105.798	0
1	22102501	35	Low	10.0	Vague	2	9	18	21	25.2	53.3	3.2	18	9	21	53.3	25.2	3.2	2	0.975	0.000	L	18	53.3	106.301	109.293	110.268	110.271	0
1	22102501	36	Low	10.0	Vague	2	9	15	23	25.2	38.5	3.6	15	23	9	38.5	3.6	25.2	2	0.605	0.000	L	15	38.5	110.774	112.111	112.716	112.718	0
1	22102501	37	Low	10.0	Precise	1	15	18	11	38.5	53.3	18.6	11	15	18	18.6	38.5	53.3	1	0.571	0.000	D	15	38.5	113.221	116.041	116.612	116.615	0
1	22102501	38	Low	10.0	Vague	2	16	10	32	27.9	30.6	23.0	16	32	10	27.9	23.0	30.6	3	1.084	0.000	D	32	23.0	117.117	118.689	119.772	119.775	0
1	22102501	39	Low	10.0	Precise	1	9	16	6	25.2	27.9	3.3	9	16	6	25.2	27.9	3.3	1	0.807	0.000	L	9	25.2	120.277	123.109	123.916	123.919	0
1	22102501	40	Low	10.0	Precise	1	10	17	2	30.6	64.5	4.1	17	2	10	64.5	4.1	30.6	2	0.695	0.000	L	17	64.5	124.422	125.933	126.628	126.631	0
1	22102501	41	Low	10.0	Precise	1	10	18	13	30.6	53.3	11.9	13	18	10	11.9	53.3	30.6	2	0.763	0.000	D	18	53.3	127.133	129.529	130.292	130.294	0
1	22102501	42	Low	10.0	Vague	2	16	10	23	27.9	30.6	3.6	23	10	16	3.6	30.6	27.9	1	0.686	0.000	R	16	27.9	130.797	132.430	133.116	133.118	0
1	22102501	43	Low	10.0	Precise	1	9	18	2	25.2	53.3	4.1	9	2	18	25.2	4.1	53.3	1	0.710	0.000	L	9	25.2	133.622	135.039	135.748	135.751	0
1	22102501	44	Low	10.0	Vague	2	9	16	21	25.2	27.9	3.2	21	9	16	3.2	25.2	27.9	2	0.842	0.000	R	16	27.9	136.253	137.666	138.508	138.511	0
1	22102501	45	Low	10.0	Precise	1	16	10	6	27.9	30.6	3.3	10	16	6	30.6	27.9	3.3	2	0.907	0.000	L	10	30.6	139.014	140.657	141.564	141.567	0
1	22102501	46	Low	10.0	Vague	2	18	17	22	53.3	64.5	17.2	22	17	18	17.2	64.5	53.3	1	1.030	0.000	R	18	53.3	142.069	143.398	144.428	144.431	0
1	22102501	47	Low	10.0	Precise	1	16	18	6	27.9	53.3	3.3	16	18	6	27.9	53.3	3.3	2	1.038	0.000	D	18	53.3	144.933	146.846	147.884	147.887	0
1	22102501	48	Low	10.0	Precise	1	10	17	14	30.6	64.5	24.9	17	10	14	64.5	30.6	24.9	2	0.976	0.001	L	17	64.5	148.389	150.052	151.028	151.031	0
1	22102501	49	Low	10.0	Precise	1	9	17	13	25.2	64.5	11.9	9	13	17	25.2	11.9	64.5	2	0.683	0.000	R	17	64.5	151.534	152.369	153.052	153.055	0
1	22102501	50	Low	10.0	Precise	1	16	15	4	27.9	38.5	14.2	16	4	15	27.9	14.2	38.5	2	0.649	0.000	R	15	38.5	153.558	154.643	155.292	155.295	0
1	22102501	51	Low	10.0	Precise	1	9	15	2	25.2	38.5	4.1	15	2	9	38.5	4.1	25.2	2	0.650	0.000	L	15	38.5	155.798	156.306	156.956	156.959	0
1	22102501	52	Low	10.0	Vague	2	10	18	22	30.6	53.3	17.2	22	10	18	17.2	30.6	53.3	3	0.910	0.001	L	22	17.2	157.461	160.118	161.028	161.031	0
1	22102501	53	Low	10.0	Precise	1	9	10	2	25.2	30.6	4.1	2	10	9	4.1	30.6	25.2	1	0.678	0.001	R	9	25.2	161.534	162.454	163.132	163.135	0
1	22102501	54	Low	10.0	Vague	2	9	18	22	25.2	53.3	17.2	9	18	22	25.2	53.3	17.2	3	0.673	0.001	R	22	17.2	163.638	166.475	167.148	167.151	0
1	22102501	55	Low	10.0	Precise	1	10	15	6	30.6	38.5	3.3	10	6	15	30.6	3.3	38.5	2	0.577	0.001	R	15	38.5	167.654	169.988	170.565	170.567	0
1	22102501	56	Low	10.0	Precise	1	10	17	13	30.6	64.5	11.9	10	17	13	30.6	64.5	11.9	2	0.840	0.000	D	17	64.5	171.070	172.548	173.388	173.391	0
1	22102501	57	Low	10.0	Vague	2	16	17	23	27.9	64.5	3.6	23	17	16	3.6	64.5	27.9	2	0.669	0.001	D	17	64.5	173.894	174.671	175.340	175.343	0
1	22102501	58	Low	10.0	Vague	2	10	18	21	30.6	53.3	3.2	18	10	21	53.3	30.6	3.2	2	0.566	0.000	L	18	53.3	175.846	177.822	178.388	178.391	0
1	22102501	59	Low	10.0	Precise	1	10	17	6	30.6	64.5	3.3	10	6	17	30.6	3.3	64.5	2	0.585	0.000	R	17	64.5	178.893	181.467	182.052	182.055	0
1	22102501	60	Low	10.0	Precise	1	9	15	6	25.2	38.5	3.3	15	6	9	38.5	3.3	25.2	2	0.627	0.000	L	15	38.5	182.557	184.089	184.716	184.718	0
1	22102501	61	Low	10.0	Vague	2	10	18	23	30.6	53.3	3.6	18	10	23	53.3	30.6	3.6	2	0.557	0.000	L	18	53.3	190.957	193.591	194.148	194.151	0
1	22102501	62	Low	10.0	Vague	2	9	15	22	25.2	38.5	17.2	15	9	22	38.5	25.2	17.2	2	0.579	0.000	L	15	38.5	194.653	195.481	196.060	196.063	0
1	22102501	63	Low	10.0	Precise	1	9	10	14	25.2	30.6	24.9	14	9	10	24.9	25.2	30.6	3	0.875	0.000	L	14	24.9	196.566	199.185	200.060	200.063	0
1	22102501	64	Low	10.0	Vague	2	10	17	22	30.6	64.5	17.2	22	17	10	17.2	64.5	30.6	2	0.671	0.000	D	17	64.5	200.565	203.110	203.780	203.783	0
1	22102501	65	Low	10.0	Precise	1	9	16	4	25.2	27.9	14.2	9	16	4	25.2	27.9	14.2	1	0.779	0.001	L	9	25.2	204.285	207.066	207.844	207.847	0
1	22102501	66	Low	10.0	Vague	2	10	18	32	30.6	53.3	23.0	32	10	18	23.0	30.6	53.3	2	1.044	0.000	R	18	53.3	208.349	208.952	209.996	209.999	0
1	22102501	67	Low	10.0	Precise	1	15	17	11	38.5	64.5	18.6	11	15	17	18.6	38.5	64.5	2	0.629	0.001	R	17	64.5	210.501	211.824	212.452	212.455	0
1	22102501	68	Low	10.0	Precise	1	15	18	6	38.5	53.3	3.3	18	6	15	53.3	3.3	38.5	1	0.544	0.000	R	15	38.5	212.957	214.956	215.500	215.503	0
1	22102501	69	Low	10.0	Precise	1	9	17	2	25.2	64.5	4.1	2	9	17	4.1	25.2	64.5	1	0.814	0.000	D	9	25.2	216.006	217.983	218.796	218.799	0
1	22102501	70	Low	10.0	Vague	2	9	18	32	25.2	53.3	23.0	32	9	18	23.0	25.2	53.3	2	0.808	0.001	R	18	53.3	219.301	222.068	222.876	222.879	0
1	22102501	71	Low	10.0	Vague	2	10	17	28	30.6	64.5	24.8	28	17	10	24.8	64.5	30.6	3	1.252	0.000	L	28	24.8	223.381	224.776	226.028	226.030	0
1	22102501	72	Low	10.0	Vague	2	15	18	32	38.5	53.3	23.0	15	32	18	38.5	23.0	53.3	1	1.258	0.000	L	15	38.5	226.534	227.074	228.332	228.334	0
1	22102501	73	Low	10.0	Precise	1	15	18	2	38.5	53.3	4.1	2	15	18	4.1	38.5	53.3	1	0.929	0.000	D	15	38.5	228.837	230.339	231.268	231.271	0
1	22102501	74	Low	10.0	Vague	2	15	18	28	38.5	53.3	24.8	28	18	15	24.8	53.3	38.5	1	0.678	0.001	R	15	38.5	231.774	232.894	233.572	233.575	0
1	22102501	75	Low	10.0	Precise	1	9	10	6	25.2	30.6	3.3	6	10	9	3.3	30.6	25.2	1	1.105	0.001	R	9	25.2	234.078	235.083	236.188	236.191	0
1	22102501	76	Low	10.0	Precise	1	9	18	4	25.2	53.3	14.2	4	18	9	14.2	53.3	25.2	2	1.089	0.001	D	18	53.3	236.693	239.260	240.348	240.351	0
1	22102501	77	Low	10.0	Precise	1	16	15	14	27.9	38.5	24.9	16	15	14	27.9	38.5	24.9	3	0.703	0.000	R	14	24.9	240.853	242.789	243.492	243.494	0
1	22102501	78	Low	10.0	Precise	1	16	10	14	27.9	30.6	24.9	16	10	14	27.9	30.6	24.9	3	0.609	0.000	R	14	24.9	243.997	244.595	245.204	245.207	0
1	22102501	79	Low	10.0	Precise	1	18	17	4	53.3	64.5	14.2	17	4	18	64.5	14.2	53.3	2	1.290	0.000	L	17	64.5	245.710	248.186	249.476	249.478	0
1	22102501	80	Low	10.0	Precise	1	16	15	13	27.9	38.5	11.9	13	15	16	11.9	38.5	27.9	2	0.934	0.000	D	15	38.5	249.982	252.878	253.812	253.815	0
1	22102501	81	Low	10.0	Vague	2	18	17	36	53.3	64.5	18.9	17	18	36	64.5	53.3	18.9	2	1.353	0.000	L	17	64.5	254.317	255.363	256.716	256.719	0
1	22102501	82	Low	10.0	Precise	1	9	16	13	25.2	27.9	11.9	16	9	13	27.9	25.2	11.9	3	1.277	0.000	R	13	11.9	257.221	259.847	261.124	261.127	0
1	22102501	83	Low	10.0	Vague	2	15	17	32	38.5	64.5	23.0	15	17	32	38.5	64.5	23.0	1	0.942	0.001	L	15	38.5	261.629	262.262	263.204	263.207	0
1	22102501	84	Low	10.0	Vague	2	16	18	36	27.9	53.3	18.9	16	36	18	27.9	18.9	53.3	1	0.817	0.000	L	16	27.9	263.709	265.699	266.516	266.519	0
1	22102501	85	Low	10.0	Vague	2	16	17	36	27.9	64.5	18.9	16	36	17	27.9	18.9	64.5	2	1.143	0.000	R	17	64.5	267.021	268.461	269.604	269.607	0
1	22102501	86	Low	10.0	Precise	1	16	17	6	27.9	64.5	3.3	17	16	6	64.5	27.9	3.3	2	0.660	0.001	L	17	64.5	270.109	272.361	273.020	273.023	0
1	22102501	87	Low	10.0	Vague	2	10	15	21	30.6	38.5	3.2	15	10	21	38.5	30.6	3.2	2	0.586	0.000	L	15	38.5	273.526	276.451	277.036	277.038	0
1	22102501	88	Low	10.0	Precise	1	9	10	4	25.2	30.6	14.2	9	4	10	25.2	14.2	30.6	2	1.230	0.000	R	10	30.6	277.542	279.798	281.028	281.031	0
1	22102501	89	Low	10.0	Vague	2	18	17	28	53.3	64.5	24.8	18	17	28	53.3	64.5	24.8	1	0.737	0.000	L	18	53.3	281.534	282.747	283.484	283.487	0
1	22102501	90	Low	10.0	Vague	2	10	15	28	30.6	38.5	24.8	10	28	15	30.6	24.8	38.5	2	0.789	0.000	R	15	38.5	283.989	286.111	286.900	286.903	0
1	22102501	91	Low	10.0	Precise	1	10	17	4	30.6	64.5	14.2	4	17	10	14.2	64.5	30.6	2	0.645	0.001	D	17	64.5	287.406	290.055	290.700	290.703	0
1	22102501	92	Low	10.0	Vague	2	10	15	22	30.6	38.5	17.2	22	10	15	17.2	30.6	38.5	2	1.227	0.000	R	15	38.5	291.205	293.417	294.644	294.648	0
1	22102501	93	Low	10.0	Precise	1	15	17	6	38.5	64.5	3.3	17	6	15	64.5	3.3	38.5	1	0.635	0.000	R	15	38.5	295.150	295.961	296.596	296.599	0
1	22102501	94	Low	10.0	Vague	2	16	15	36	27.9	38.5	18.9	15	36	16	38.5	18.9	27.9	2	0.517	0.000	L	15	38.5	297.101	298.791	299.308	299.310	0
1	22102501	95	Low	10.0	Vague	2	9	17	22	25.2	64.5	17.2	22	9	17	17.2	25.2	64.5	2	1.120	0.000	R	17	64.5	299.814	300.996	302.116	302.119	0
1	22102501	96	Low	10.0	Vague	2	16	15	22	27.9	38.5	17.2	22	16	15	17.2	27.9	38.5	2	0.654	0.000	R	15	38.5	302.621	303.398	304.052	304.055	0
1	22102501	97	Low	10.0	Vague	2	10	17	21	30.6	64.5	3.2	21	17	10	3.2	64.5	30.6	2	0.907	0.000	D	17	64.5	304.557	306.857	307.764	307.767	0
1	22102501	98	Low	10.0	Precise	1	9	17	14	25.2	64.5	24.9	14	17	9	24.9	64.5	25.2	2	0.906	0.000	D	17	64.5	308.270	309.379	310.284	310.287	0
1	22102501	99	Low	10.0	Precise	1	10	18	4	30.6	53.3	14.2	4	18	10	14.2	53.3	30.6	2	1.194	0.001	D	18	53.3	310.790	312.947	314.140	314.143	0
1	22102501	100	Low	10.0	Vague	2	15	17	36	38.5	64.5	18.9	17	15	36	64.5	38.5	18.9	2	0.976	0.001	L	17	64.5	314.645	316.620	317.596	317.599	0
1	22102501	101	Low	10.0	Precise	1	10	18	14	30.6	53.3	24.9	10	18	14	30.6	53.3	24.9	2	0.552	0.000	D	18	53.3	318.102	320.692	321.244	321.247	0
1	22102501	102	Low	10.0	Vague	2	18	17	21	53.3	64.5	3.2	18	21	17	53.3	3.2	64.5	2	0.679	0.000	R	17	64.5	321.749	323.365	324.044	324.047	0
1	22102501	103	Low	10.0	Precise	1	16	10	13	27.9	30.6	11.9	13	16	10	11.9	27.9	30.6	1	1.519	0.000	D	16	27.9	324.549	325.558	327.076	327.079	0
1	22102501	104	Low	10.0	Vague	2	9	10	22	25.2	30.6	17.2	10	9	22	30.6	25.2	17.2	3	1.063	0.000	R	22	17.2	327.581	328.645	329.708	329.711	0
1	22102501	105	Low	10.0	Vague	2	16	17	28	27.9	64.5	24.8	17	16	28	64.5	27.9	24.8	2	0.940	0.001	L	17	64.5	330.214	331.064	332.004	332.007	0
1	22102501	106	Low	10.0	Precise	1	16	18	2	27.9	53.3	4.1	18	16	2	53.3	27.9	4.1	2	0.667	0.000	L	18	53.3	332.510	335.457	336.124	336.127	0
1	22102501	107	Low	10.0	Precise	1	16	10	11	27.9	30.6	18.6	11	10	16	18.6	30.6	27.9	3	0.810	0.000	L	11	18.6	336.629	339.411	340.220	340.223	0
1	22102501	108	Low	10.0	Vague	2	16	18	28	27.9	53.3	24.8	28	18	16	24.8	53.3	27.9	2	0.970	0.001	D	18	53.3	340.725	343.083	344.053	344.055	0
1	22102501	109	Low	10.0	Vague	2	9	16	23	25.2	27.9	3.6	23	16	9	3.6	27.9	25.2	1	1.256	0.000	R	9	25.2	344.559	345.101	346.356	346.359	0
1	22102501	110	Low	10.0	Precise	1	18	17	13	53.3	64.5	11.9	13	17	18	11.9	64.5	53.3	2	0.947	0.000	D	17	64.5	346.861	347.625	348.572	348.574	0
1	22102501	111	Low	10.0	Vague	2	16	10	28	27.9	30.6	24.8	16	10	28	27.9	30.6	24.8	1	1.311	0.001	L	16	27.9	349.077	351.221	352.532	352.535	0
1	22102501	112	Low	10.0	Precise	1	9	15	4	25.2	38.5	14.2	9	4	15	25.2	14.2	38.5	2	0.672	0.000	R	15	38.5	353.037	353.748	354.420	354.423	0
1	22102501	113	Low	10.0	Precise	1	10	17	11	30.6	64.5	18.6	11	17	10	18.6	64.5	30.6	2	0.717	0.000	D	17	64.5	354.926	356.167	356.884	356.887	0
1	22102501	114	Low	10.0	Vague	2	9	10	21	25.2	30.6	3.2	10	21	9	30.6	3.2	25.2	1	0.559	0.001	R	9	25.2	357.390	359.446	360.004	360.007	0
1	22102501	115	Low	10.0	Vague	2	16	10	22	27.9	30.6	17.2	10	16	22	30.6	27.9	17.2	3	0.653	0.001	R	22	17.2	360.510	362.080	362.732	362.735	0
1	22102501	116	Low	10.0	Vague	2	15	17	28	38.5	64.5	24.8	28	17	15	24.8	64.5	38.5	2	1.090	0.001	D	17	64.5	363.239	366.210	367.300	367.303	0
1	22102501	117	Low	10.0	Vague	2	16	15	32	27.9	38.5	23.0	32	15	16	23.0	38.5	27.9	3	0.746	0.000	L	32	23.0	367.805	369.698	370.444	370.447	0
1	22102501	118	Low	10.0	Precise	1	9	10	13	25.2	30.6	11.9	9	10	13	25.2	30.6	11.9	1	0.910	0.000	L	9	25.2	370.950	373.606	374.516	374.518	0
1	22102501	119	Low	10.0	Precise	1	16	10	4	27.9	30.6	14.2	10	16	4	30.6	27.9	14.2	3	1.297	0.000	R	4	14.2	375.022	376.043	377.340	377.343	0
1	22102501	120	Low	10.0	Vague	2	10	17	23	30.6	64.5	3.6	23	17	10	3.6	64.5	30.6	2	1.122	0.000	D	17	64.5	377.845	379.939	381.060	381.063	0
1	22102501	121	Low	10.0	Precise	1	16	17	11	27.9	64.5	18.6	16	11	17	27.9	18.6	64.5	2	0.604	0.000	R	17	64.5	386.421	388.216	388.820	388.823	0
1	22102501	122	Low	10.0	Precise	1	18	17	14	53.3	64.5	24.9	18	14	17	53.3	24.9	64.5	3	0.518	0.000	D	14	24.9	389.326	391.870	392.388	392.391	0
1	22102501	123	Low	10.0	Vague	2	9	17	23	25.2	64.5	3.6	23	17	9	3.6	64.5	25.2	2	0.595	0.001	D	17	64.5	392.893	395.482	396.076	396.079	0
1	22102501	124	Low	10.0	Vague	2	9	15	36	25.2	38.5	18.9	9	15	36	25.2	38.5	18.9	2	0.902	0.000	D	15	38.5	396.581	397.686	398.588	398.591	0
1	22102501	125	Low	10.0	Precise	1	16	18	13	27.9	53.3	11.9	16	13	18	27.9	11.9	53.3	2	0.865	0.000	R	18	53.3	399.094	400.115	400.980	400.983	0
1	22102501	126	Low	10.0	Precise	1	9	16	14	25.2	27.9	24.9	14	16	9	24.9	27.9	25.2	3	0.582	0.001	L	14	24.9	401.486	404.246	404.828	404.831	0
1	22102501	127	Low	10.0	Vague	2	16	18	32	27.9	53.3	23.0	16	18	32	27.9	53.3	23.0	3	0.786	0.001	R	32	23.0	405.333	408.114	408.900	408.903	0
1	22102501	128	Low	10.0	Vague	2	10	15	36	30.6	38.5	18.9	10	15	36	30.6	38.5	18.9	2	0.633	0.001	D	15	38.5	409.405	411.819	412.452	412.455	0
1	22102501	129	Low	10.0	Precise	1	9	16	11	25.2	27.9	18.6	9	11	16	25.2	18.6	27.9	3	0.651	0.000	D	11	18.6	412.957	414.481	415.132	415.135	0
1	22102501	130	Low	10.0	Precise	1	16	18	4	27.9	53.3	14.2	16	18	4	27.9	53.3	14.2	2	0.643	0.001	D	18	53.3	415.638	418.609	419.252	419.255	0
1	22102501	131	Low	10.0	Precise	1	9	10	11	25.2	30.6	18.6	11	10	9	18.6	30.6	25.2	3	0.553	0.000	L	11	18.6	419.757	422.491	423.044	423.047	0
1	22102501	132	Low	10.0	Vague	2	9	10	36	25.2	30.6	18.9	36	9	10	18.9	25.2	30.6	3	1.250	0.000	L	36	18.9	423.549	425.338	426.588	426.591	0
1	22102501	133	Low	10.0	Vague	2	9	18	36	25.2	53.3	18.9	36	9	18	18.9	25.2	53.3	1	0.579	0.000	D	9	25.2	427.094	427.593	428.172	428.174	0
1	22102501	134	Low	10.0	Vague	2	10	18	36	30.6	53.3	18.9	10	18	36	30.6	53.3	18.9	2	0.876	0.001	D	18	53.3	428.678	430.736	431.612	431.615	0
1	22102501	135	Low	10.0	Vague	2	9	17	36	25.2	64.5	18.9	17	36	9	64.5	18.9	25.2	2	0.722	0.000	L	17	64.5	432.118	434.338	435.060	435.062	0
1	22102501	136	Low	10.0	Precise	1	15	17	4	38.5	64.5	14.2	4	15	17	14.2	38.5	64.5	2	0.890	0.000	R	17	64.5	435.565	436.514	437.404	437.406	0
1	22102501	137	Low	10.0	Precise	1	15	18	13	38.5	53.3	11.9	13	15	18	11.9	38.5	53.3	1	0.639	0.000	D	15	38.5	437.909	438.821	439.460	439.463	0
1	22102501	138	Low	10.0	Vague	2	9	16	36	25.2	27.9	18.9	36	16	9	18.9	27.9	25.2	1	0.874	0.000	R	9	25.2	439.965	441.795	442.668	442.671	0
1	22102501	139	Low	10.0	Vague	2	15	17	21	38.5	64.5	3.2	21	15	17	3.2	38.5	64.5	1	0.900	0.000	D	15	38.5	443.174	445.696	446.596	446.599	0
1	22102501	140	Low	10.0	Vague	2	9	16	32	25.2	27.9	23.0	16	9	32	27.9	25.2	23.0	3	0.772	0.000	R	32	23.0	447.102	448.768	449.540	449.543	0
1	22102501	141	Low	10.0	Precise	1	16	17	13	27.9	64.5	11.9	13	16	17	11.9	27.9	64.5	2	0.627	0.000	R	17	64.5	450.046	452.097	452.724	452.726	0
1	22102501	142	Low	10.0	Vague	2	9	10	23	25.2	30.6	3.6	23	10	9	3.6	30.6	25.2	1	0.757	0.000	R	9	25.2	453.229	454.895	455.652	455.654	0
1	22102501	143	Low	10.0	Precise	1	9	17	11	25.2	64.5	18.6	9	11	17	25.2	18.6	64.5	2	0.747	0.000	R	17	64.5	456.158	457.185	457.932	457.935	0
1	22102501	144	Low	10.0	Precise	1	9	15	13	25.2	38.5	11.9	15	13	9	38.5	11.9	25.2	2	0.796	0.000	L	15	38.5	458.437	460.536	461.332	461.335	0
1	22102501	145	Low	10.0	Precise	1	15	18	14	38.5	53.3	24.9	18	15	14	53.3	38.5	24.9	2	0.772	0.000	L	18	53.3	461.838	462.952	463.724	463.727	0
1	22102501	146	Low	10.0	Precise	1	16	18	14	27.9	53.3	24.9	18	14	16	53.3	24.9	27.9	2	0.863	0.000	L	18	53.3	464.230	467.133	467.996	467.998	0
1	22102501	147	Low	10.0	Precise	1	10	18	2	30.6	53.3	4.1	2	10	18	4.1	30.6	53.3	2	0.648	0.000	R	18	53.3	468.502	469.780	470.428	470.431	0
1	22102501	148	Low	10.0	Vague	2	9	10	32	25.2	30.6	23.0	32	9	10	23.0	25.2	30.6	3	0.613	0.000	L	32	23.0	470.933	473.439	474.052	474.055	0
1	22102501	149	Low	10.0	Precise	1	15	17	14	38.5	64.5	24.9	14	17	15	24.9	64.5	38.5	2	0.690	0.000	D	17	64.5	474.558	475.762	476.452	476.455	0
1	22102501	150	Low	10.0	Precise	1	16	10	2	27.9	30.6	4.1	16	10	2	27.9	30.6	4.1	3	0.767	0.001	R	2	4.1	476.958	477.710	478.477	478.479	0
1	22102501	151	Low	10.0	Vague	2	9	18	28	25.2	53.3	24.8	28	9	18	24.8	25.2	53.3	2	1.066	0.000	R	18	53.3	478.982	481.586	482.652	482.655	0
1	22102501	152	Low	10.0	Precise	1	10	18	6	30.6	53.3	3.3	6	10	18	3.3	30.6	53.3	2	0.688	0.000	R	18	53.3	483.158	483.980	484.668	484.671	0
1	22102501	153	Low	10.0	Precise	1	10	18	11	30.6	53.3	18.6	18	11	10	53.3	18.6	30.6	2	0.782	0.000	L	18	53.3	485.173	485.814	486.596	486.599	0
1	22102501	154	Low	10.0	Vague	2	16	18	23	27.9	53.3	3.6	18	16	23	53.3	27.9	3.6	2	0.543	0.000	L	18	53.3	487.102	489.469	490.012	490.014	0
1	22102501	155	Low	10.0	Precise	1	9	17	6	25.2	64.5	3.3	17	9	6	64.5	25.2	3.3	2	0.671	0.001	L	17	64.5	490.517	491.821	492.492	492.495	0
1	22102501	156	Low	10.0	Vague	2	9	15	32	25.2	38.5	23.0	9	32	15	25.2	23.0	38.5	2	0.626	0.001	R	15	38.5	492.998	494.843	495.468	495.471	0
1	22102501	157	Low	10.0	Vague	2	9	17	32	25.2	64.5	23.0	9	32	17	25.2	23.0	64.5	2	0.664	0.000	R	17	64.5	495.973	497.316	497.980	497.983	0
1	22102501	158	Low	10.0	Precise	1	9	18	13	25.2	53.3	11.9	18	13	9	53.3	11.9	25.2	2	0.641	0.001	L	18	53.3	498.485	500.692	501.332	501.335	0
1	22102501	159	Low	10.0	Vague	2	10	15	32	30.6	38.5	23.0	10	32	15	30.6	23.0	38.5	2	0.572	0.000	R	15	38.5	501.838	503.768	504.340	504.343	0
1	22102501	160	Low	10.0	Precise	1	9	18	11	25.2	53.3	18.6	9	18	11	25.2	53.3	18.6	2	1.077	0.001	D	18	53.3	504.846	507.448	508.525	508.527	0
1	22102501	161	Low	10.0	Vague	2	15	18	36	38.5	53.3	18.9	18	36	15	53.3	18.9	38.5	1	0.635	0.000	R	15	38.5	509.030	511.450	512.084	512.087	0
1	22102501	162	Low	10.0	Precise	1	16	17	4	27.9	64.5	14.2	16	17	4	27.9	64.5	14.2	2	0.660	0.000	D	17	64.5	512.589	513.528	514.188	514.191	0
1	22102501	163	Low	10.0	Precise	1	9	15	14	25.2	38.5	24.9	15	14	9	38.5	24.9	25.2	2	0.640	0.000	L	15	38.5	514.693	516.116	516.756	516.759	0
1	22102501	164	Low	10.0	Vague	2	16	15	21	27.9	38.5	3.2	16	15	21	27.9	38.5	3.2	2	0.762	0.000	D	15	38.5	517.261	517.962	518.724	518.727	0
1	22102501	165	Low	10.0	Vague	2	15	18	21	38.5	53.3	3.2	18	21	15	53.3	3.2	38.5	1	0.571	0.000	R	15	38.5	519.230	520.121	520.692	520.695	0
1	22102501	166	Low	10.0	Precise	1	16	15	6	27.9	38.5	3.3	15	16	6	38.5	27.9	3.3	2	0.519	0.000	L	15	38.5	521.198	523.221	523.740	523.742	0
1	22102501	167	Low	10.0	Vague	2	16	10	36	27.9	30.6	18.9	36	10	16	18.9	30.6	27.9	3	0.608	0.000	L	36	18.9	524.245	526.453	527.060	527.063	0
1	22102501	168	Low	10.0	Precise	1	9	17	4	25.2	64.5	14.2	17	9	4	64.5	25.2	14.2	2	0.642	0.001	L	17	64.5	527.566	530.202	530.844	530.847	0
1	22102501	169	Low	10.0	Vague	2	10	15	23	30.6	38.5	3.6	15	10	23	38.5	30.6	3.6	2	0.616	0.000	L	15	38.5	531.349	531.916	532.532	532.535	0
1	22102501	170	Low	10.0	Precise	1	16	18	11	27.9	53.3	18.6	11	18	16	18.6	53.3	27.9	2	1.329	0.000	D	18	53.3	533.037	534.563	535.892	535.895	0
1	22102501	171	Low	10.0	Precise	1	9	18	6	25.2	53.3	3.3	18	9	6	53.3	25.2	3.3	1	0.634	0.000	D	9	25.2	536.398	538.555	539.188	539.191	0
1	22102501	172	Low	10.0	Vague	2	16	10	21	27.9	30.6	3.2	16	10	21	27.9	30.6	3.2	1	1.072	0.000	L	16	27.9	539.694	541.220	542.292	542.294	0
1	22102501	173	Low	10.0	Precise	1	9	15	11	25.2	38.5	18.6	9	15	11	25.2	38.5	18.6	2	0.698	0.001	D	15	38.5	542.798	544.994	545.692	545.695	0
1	22102501	174	Low	10.0	Vague	2	9	18	23	25.2	53.3	3.6	23	9	18	3.6	25.2	53.3	2	0.769	0.000	R	18	53.3	546.197	547.947	548.716	548.718	0
1	22102501	175	Low	10.0	Precise	1	15	17	13	38.5	64.5	11.9	15	13	17	38.5	11.9	64.5	2	0.884	0.000	R	17	64.5	549.222	551.272	552.156	552.158	0
1	22102501	176	Low	10.0	Precise	1	10	15	4	30.6	38.5	14.2	15	10	4	38.5	30.6	14.2	2	0.557	0.000	L	15	38.5	552.661	554.863	555.420	555.423	0
1	22102501	177	Low	10.0	Vague	2	16	17	32	27.9	64.5	23.0	16	32	17	27.9	23.0	64.5	2	0.881	0.000	R	17	64.5	555.925	556.547	557.428	557.431	0
1	22102501	178	Low	10.0	Precise	1	18	17	6	53.3	64.5	3.3	18	17	6	53.3	64.5	3.3	2	0.962	0.000	D	17	64.5	557.934	559.330	560.292	560.295	0
1	22102501	179	Low	10.0	Precise	1	18	17	2	53.3	64.5	4.1	2	17	18	4.1	64.5	53.3	1	0.532	0.000	R	18	53.3	560.797	563.336	563.868	563.871	0
1	22102501	180	Low	10.0	Vague	2	16	15	28	27.9	38.5	24.8	28	15	16	24.8	38.5	27.9	2	0.653	0.000	D	15	38.5	564.373	566.119	566.772	566.775	0
1	22102501	181	High	1.5	Precise	1	15	18	1	38.5	53.3	3.4	18	1	15	53.3	3.4	38.5	1	0.442	0.001	R	15	38.5	580.401	581.674	582.116	582.119	0
1	22102501	182	High	1.5	Precise	1	9	15	8	25.2	38.5	20.5	15	8	9	38.5	20.5	25.2	2	0.632	0.000	L	15	38.5	582.622	583.540	584.172	584.175	0
1	22102501	183	High	1.5	Precise	1	16	15	7	27.9	38.5	4.9	16	7	15	27.9	4.9	38.5	2	0.543	0.000	R	15	38.5	584.677	585.845	586.388	586.391	0
1	22102501	184	High	1.5	Precise	1	18	17	3	53.3	64.5	2.8	18	17	3	53.3	64.5	2.8	2	0.502	0.000	D	17	64.5	586.894	588.878	589.380	589.383	0
1	22102501	185	High	1.5	Precise	1	15	17	1	38.5	64.5	3.4	17	1	15	64.5	3.4	38.5	1	0.487	0.000	R	15	38.5	589.885	591.526	592.012	592.015	0
1	22102501	186	High	1.5	Vague	2	10	18	24	30.6	53.3	2.6	24	18	10	2.6	53.3	30.6	2	0.642	0.000	D	18	53.3	592.517	593.395	594.036	594.039	0
1	22102501	187	High	1.5	Vague	2	9	10	24	25.2	30.6	2.6	10	9	24	30.6	25.2	2.6	2	0.500	0.000	L	10	30.6	594.541	596.112	596.612	596.615	0
1	22102501	188	High	1.5	Vague	2	9	16	20	25.2	27.9	3.2	20	9	16	3.2	25.2	27.9	1	0.578	0.001	D	9	25.2	597.117	599.778	600.356	600.359	0
1	22102501	189	High	1.5	Vague	2	10	17	24	30.6	64.5	2.6	10	24	17	30.6	2.6	64.5	2	0.698	0.001	R	17	64.5	600.861	603.394	604.092	604.095	0
1	22102501	190	High	1.5	Precise	1	16	18	1	27.9	53.3	3.4	18	1	16	53.3	3.4	27.9	3	0.692	0.000	D	1	3.4	604.598	605.176	605.868	605.871	0
1	22102501	191	High	1.5	Vague	2	16	10	25	27.9	30.6	17.4	16	25	10	27.9	17.4	30.6	1	0.888	0.000	L	16	27.9	606.374	608.980	609.868	609.871	0
1	22102501	192	High	1.5	Vague	2	9	15	24	25.2	38.5	2.6	15	24	9	38.5	2.6	25.2	2	0.661	0.000	L	15	38.5	610.374	612.263	612.924	612.927	0
1	22102501	193	High	1.5	Vague	2	9	10	20	25.2	30.6	3.2	20	10	9	3.2	30.6	25.2	1	0.604	0.001	R	9	25.2	613.430	615.896	616.500	616.503	0
1	22102501	194	High	1.5	Vague	2	16	18	25	27.9	53.3	17.4	18	16	25	53.3	27.9	17.4	2	0.515	0.000	L	18	53.3	617.005	618.577	619.092	619.095	0
1	22102501	195	High	1.5	Vague	2	16	15	24	27.9	38.5	2.6	16	15	24	27.9	38.5	2.6	2	0.782	0.001	D	15	38.5	619.597	620.974	621.756	621.759	0
1	22102501	196	High	1.5	Precise	1	10	18	8	30.6	53.3	20.5	18	10	8	53.3	30.6	20.5	3	0.513	0.000	R	8	20.5	622.261	624.611	625.124	625.127	0
1	22102501	197	High	1.5	Precise	1	9	10	1	25.2	30.6	3.4	1	9	10	3.4	25.2	30.6	1	0.585	0.000	D	9	25.2	625.630	627.475	628.060	628.063	0
1	22102501	198	High	1.5	Precise	1	18	17	7	53.3	64.5	4.9	17	18	7	64.5	53.3	4.9	2	0.681	0.001	L	17	64.5	628.565	630.108	630.788	630.791	0
1	22102501	199	High	1.5	Vague	2	16	10	20	27.9	30.6	3.2	16	10	20	27.9	30.6	3.2	1	0.615	0.000	L	16	27.9	631.293	634.238	634.852	634.855	0
1	22102501	200	High	1.5	Vague	2	10	18	19	30.6	53.3	3.7	10	18	19	30.6	53.3	3.7	2	0.639	0.000	D	18	53.3	635.358	635.958	636.596	636.599	0
1	22102501	201	High	1.5	Precise	1	15	17	5	38.5	64.5	13.0	17	5	15	64.5	13.0	38.5	1	0.482	0.000	R	15	38.5	637.102	639.626	640.108	640.111	0
1	22102501	202	High	1.5	Vague	2	16	15	19	27.9	38.5	3.7	19	15	16	3.7	38.5	27.9	2	0.689	0.000	D	15	38.5	640.614	641.883	642.572	642.575	0
1	22102501	203	High	1.5	Vague	2	16	15	20	27.9	38.5	3.2	20	15	16	3.2	38.5	27.9	2	0.517	0.000	D	15	38.5	643.077	645.944	646.460	646.463	0
1	22102501	204	High	1.5	Precise	1	10	15	1	30.6	38.5	3.4	15	1	10	38.5	3.4	30.6	2	0.504	0.000	L	15	38.5	646.965	648.708	649.212	649.214	0
1	22102501	205	High	1.5	Vague	2	9	17	25	25.2	64.5	17.4	25	17	9	17.4	64.5	25.2	2	0.602	0.000	D	17	64.5	649.717	650.586	651.188	651.191	0
1	22102501	206	High	1.5	Vague	2	9	18	24	25.2	53.3	2.6	24	18	9	2.6	53.3	25.2	1	0.397	0.000	R	9	25.2	651.693	654.279	654.676	654.679	0
1	22102501	207	High	1.5	Vague	2	10	15	24	30.6	38.5	2.6	10	24	15	30.6	2.6	38.5	2	0.536	0.000	R	15	38.5	655.181	658.084	658.620	658.623	0
1	22102501	208	High	1.5	Vague	2	9	16	30	25.2	27.9	19.8	30	16	9	19.8	27.9	25.2	1	0.653	0.000	R	9	25.2	659.126	660.736	661.388	661.391	0
1	22102501	209	High	1.5	Precise	1	16	15	8	27.9	38.5	20.5	8	16	15	20.5	27.9	38.5	2	0.579	0.000	R	15	38.5	661.893	663.953	664.532	664.535	0
1	22102501	210	High	1.5	Precise	1	18	17	5	53.3	64.5	13.0	5	17	18	13.0	64.5	53.3	2	0.799	0.000	D	17	64.5	665.037	665.821	666.620	666.623	0
1	22102501	211	High	1.5	Vague	2	10	17	25	30.6	64.5	17.4	25	17	10	17.4	64.5	30.6	2	0.676	0.000	D	17	64.5	667.125	669.536	670.212	670.215	0
1	22102501	212	High	1.5	Vague	2	10	18	27	30.6	53.3	23.8	18	10	27	53.3	30.6	23.8	2	0.507	0.000	L	18	53.3	670.718	672.753	673.260	673.263	0
1	22102501	213	High	1.5	Vague	2	18	17	27	53.3	64.5	23.8	27	18	17	23.8	53.3	64.5	1	0.707	0.001	D	18	53.3	673.766	675.529	676.236	676.239	0
1	22102501	214	High	1.5	Precise	1	10	15	7	30.6	38.5	4.9	7	15	10	4.9	38.5	30.6	2	0.714	0.000	D	15	38.5	676.741	679.554	680.268	680.271	0
1	22102501	215	High	1.5	Precise	1	9	15	3	25.2	38.5	2.8	9	3	15	25.2	2.8	38.5	2	0.582	0.000	R	15	38.5	680.773	682.918	683.500	683.503	0
1	22102501	216	High	1.5	Vague	2	15	18	19	38.5	53.3	3.7	15	18	19	38.5	53.3	3.7	1	0.583	0.000	L	15	38.5	684.006	686.437	687.020	687.023	0
1	22102501	217	High	1.5	Vague	2	16	10	24	27.9	30.6	2.6	10	16	24	30.6	27.9	2.6	1	1.045	0.001	D	16	27.9	687.526	688.367	689.412	689.415	0
1	22102501	218	High	1.5	Precise	1	16	10	1	27.9	30.6	3.4	10	1	16	30.6	3.4	27.9	1	0.944	0.000	R	16	27.9	689.919	690.501	691.444	691.447	0
1	22102501	219	High	1.5	Vague	2	9	16	25	25.2	27.9	17.4	25	9	16	17.4	25.2	27.9	2	0.585	0.000	R	16	27.9	691.949	692.843	693.428	693.431	0
1	22102501	220	High	1.5	Vague	2	16	17	24	27.9	64.5	2.6	16	17	24	27.9	64.5	2.6	2	0.640	0.000	D	17	64.5	693.934	696.428	697.068	697.071	0
1	22102501	221	High	1.5	Vague	2	16	17	30	27.9	64.5	19.8	30	16	17	19.8	27.9	64.5	2	0.510	0.000	R	17	64.5	697.573	698.950	699.460	699.463	0
1	22102501	222	High	1.5	Vague	2	15	17	25	38.5	64.5	17.4	25	17	15	17.4	64.5	38.5	1	0.606	0.000	R	15	38.5	699.966	701.942	702.548	702.550	0
1	22102501	223	High	1.5	Vague	2	16	17	20	27.9	64.5	3.2	17	16	20	64.5	27.9	3.2	1	0.841	0.000	D	16	27.9	703.054	703.652	704.492	704.495	0
1	22102501	224	High	1.5	Vague	2	18	17	30	53.3	64.5	19.8	17	30	18	64.5	19.8	53.3	2	0.621	0.000	L	17	64.5	704.997	705.615	706.236	706.239	0
1	22102501	225	High	1.5	Vague	2	9	16	27	25.2	27.9	23.8	27	16	9	23.8	27.9	25.2	1	0.514	0.001	R	9	25.2	706.741	708.179	708.692	708.695	0
1	22102501	226	High	1.5	Vague	2	10	18	25	30.6	53.3	17.4	10	25	18	30.6	17.4	53.3	2	0.543	0.001	R	18	53.3	709.197	709.837	710.380	710.383	0
1	22102501	227	High	1.5	Precise	1	16	15	3	27.9	38.5	2.8	15	3	16	38.5	2.8	27.9	2	0.484	0.000	L	15	38.5	710.886	713.832	714.316	714.319	0
1	22102501	228	High	1.5	Vague	2	9	10	19	25.2	30.6	3.7	19	10	9	3.7	30.6	25.2	1	0.532	0.000	R	9	25.2	714.821	716.576	717.108	717.111	0
1	22102501	229	High	1.5	Vague	2	9	18	19	25.2	53.3	3.7	9	18	19	25.2	53.3	3.7	1	0.818	0.000	L	9	25.2	717.613	719.466	720.284	720.287	0
1	22102501	230	High	1.5	Vague	2	18	17	24	53.3	64.5	2.6	24	17	18	2.6	64.5	53.3	2	0.548	0.000	D	17	64.5	720.789	721.448	721.996	721.999	0
1	22102501	231	High	1.5	Precise	1	9	17	5	25.2	64.5	13.0	17	5	9	64.5	13.0	25.2	2	0.610	0.000	L	17	64.5	722.502	725.410	726.020	726.023	0
1	22102501	232	High	1.5	Precise	1	10	18	3	30.6	53.3	2.8	18	3	10	53.3	2.8	30.6	2	0.657	0.000	L	18	53.3	726.526	728.491	729.148	729.151	0
1	22102501	233	High	1.5	Precise	1	16	10	8	27.9	30.6	20.5	10	16	8	30.6	27.9	20.5	1	1.199	0.000	D	16	27.9	729.653	731.653	732.852	732.854	0
1	22102501	234	High	1.5	Precise	1	10	18	5	30.6	53.3	13.0	10	18	5	30.6	53.3	13.0	2	0.653	0.000	D	18	53.3	733.357	735.711	736.364	736.367	0
1	22102501	235	High	1.5	Vague	2	15	17	19	38.5	64.5	3.7	15	19	17	38.5	3.7	64.5	1	0.546	0.001	L	15	38.5	736.869	739.378	739.924	739.928	0
1	22102501	236	High	1.5	Vague	2	15	17	20	38.5	64.5	3.2	15	20	17	38.5	3.2	64.5	2	0.699	0.001	R	17	64.5	740.431	741.825	742.524	742.527	0
1	22102501	237	High	1.5	Precise	1	10	17	1	30.6	64.5	3.4	17	10	1	64.5	30.6	3.4	2	0.479	0.000	L	17	64.5	743.029	744.462	744.940	744.943	0
1	22102501	238	High	1.5	Vague	2	15	17	27	38.5	64.5	23.8	27	15	17	23.8	38.5	64.5	2	0.550	0.000	R	17	64.5	745.445	746.102	746.652	746.655	0
1	22102501	239	High	1.5	Precise	1	9	16	1	25.2	27.9	3.4	16	1	9	27.9	3.4	25.2	1	0.595	0.000	R	9	25.2	747.158	747.985	748.580	748.583	0
1	22102501	240	High	1.5	Precise	1	9	15	1	25.2	38.5	3.4	9	1	15	25.2	3.4	38.5	1	0.485	0.000	L	9	25.2	749.085	750.943	751.428	751.431	0
1	22102501	241	High	1.5	Precise	1	9	16	8	25.2	27.9	20.5	16	8	9	27.9	20.5	25.2	1	0.587	0.000	R	9	25.2	757.368	759.625	760.212	760.216	0
1	22102501	242	High	1.5	Vague	2	15	18	30	38.5	53.3	19.8	30	15	18	19.8	38.5	53.3	2	0.802	0.001	R	18	53.3	760.719	761.522	762.325	762.327	0
1	22102501	243	High	1.5	Vague	2	16	17	19	27.9	64.5	3.7	19	16	17	3.7	27.9	64.5	2	0.717	0.000	R	17	64.5	762.830	763.775	764.492	764.495	0
1	22102501	244	High	1.5	Precise	1	9	10	12	25.2	30.6	16.8	9	12	10	25.2	16.8	30.6	1	0.581	0.000	L	9	25.2	764.998	767.840	768.420	768.423	0
1	22102501	245	High	1.5	Precise	1	10	15	3	30.6	38.5	2.8	3	15	10	2.8	38.5	30.6	2	0.570	0.000	D	15	38.5	768.926	771.466	772.036	772.039	0
1	22102501	246	High	1.5	Vague	2	16	18	27	27.9	53.3	23.8	16	18	27	27.9	53.3	23.8	2	0.593	0.000	D	18	53.3	772.542	774.483	775.076	775.079	0
1	22102501	247	High	1.5	Precise	1	18	17	1	53.3	64.5	3.4	17	1	18	64.5	3.4	53.3	2	0.616	0.000	L	17	64.5	775.582	777.484	778.100	778.103	0
1	22102501	248	High	1.5	Precise	1	16	15	5	27.9	38.5	13.0	15	5	16	38.5	13.0	27.9	2	0.654	0.000	L	15	38.5	778.606	779.302	779.956	779.958	0
1	22102501	249	High	1.5	Precise	1	10	15	12	30.6	38.5	16.8	15	10	12	38.5	30.6	16.8	2	0.528	0.001	L	15	38.5	780.461	782.597	783.124	783.127	0
1	22102501	250	High	1.5	Precise	1	16	10	5	27.9	30.6	13.0	5	10	16	13.0	30.6	27.9	1	0.827	0.000	R	16	27.9	783.629	784.170	784.996	784.999	0
1	22102501	251	High	1.5	Precise	1	10	17	12	30.6	64.5	16.8	17	10	12	64.5	30.6	16.8	2	0.684	0.000	L	17	64.5	785.502	786.297	786.980	786.983	0
1	22102501	252	High	1.5	Vague	2	9	18	27	25.2	53.3	23.8	18	9	27	53.3	25.2	23.8	1	0.510	0.001	D	9	25.2	787.486	788.687	789.196	789.199	0
1	22102501	253	High	1.5	Vague	2	16	18	19	27.9	53.3	3.7	19	16	18	3.7	27.9	53.3	2	0.515	0.001	R	18	53.3	789.701	792.033	792.548	792.551	0
1	22102501	254	High	1.5	Precise	1	16	15	1	27.9	38.5	3.4	1	15	16	3.4	38.5	27.9	2	0.590	0.000	D	15	38.5	793.054	794.102	794.692	794.695	0
1	22102501	255	High	1.5	Precise	1	18	17	12	53.3	64.5	16.8	12	18	17	16.8	53.3	64.5	1	0.639	0.000	D	18	53.3	795.198	797.677	798.316	798.319	0
1	22102501	256	High	1.5	Vague	2	15	18	20	38.5	53.3	3.2	15	20	18	38.5	3.2	53.3	1	0.610	0.000	L	15	38.5	798.821	801.482	802.092	802.095	0
1	22102501	257	High	1.5	Precise	1	9	16	12	25.2	27.9	16.8	12	16	9	16.8	27.9	25.2	1	0.793	0.001	R	9	25.2	802.598	805.435	806.228	806.231	0
1	22102501	258	High	1.5	Precise	1	16	10	3	27.9	30.6	2.8	10	3	16	30.6	2.8	27.9	1	0.607	0.000	R	16	27.9	806.734	809.374	809.980	809.983	0
1	22102501	259	High	1.5	Precise	1	9	17	3	25.2	64.5	2.8	3	17	9	2.8	64.5	25.2	2	0.686	0.000	D	17	64.5	810.486	813.350	814.036	814.039	0
1	22102501	260	High	1.5	Precise	1	18	17	8	53.3	64.5	20.5	17	18	8	64.5	53.3	20.5	2	0.649	0.001	L	17	64.5	814.542	815.732	816.380	816.383	0
1	22102501	261	High	1.5	Precise	1	16	18	3	27.9	53.3	2.8	3	18	16	2.8	53.3	27.9	2	0.725	0.001	D	18	53.3	816.886	819.744	820.469	820.471	0
1	22102501	262	High	1.5	Precise	1	10	17	7	30.6	64.5	4.9	10	17	7	30.6	64.5	4.9	2	0.686	0.001	D	17	64.5	820.974	822.207	822.893	822.895	0
1	22102501	263	High	1.5	Vague	2	10	17	20	30.6	64.5	3.2	20	17	10	3.2	64.5	30.6	2	0.599	0.000	D	17	64.5	823.398	825.517	826.116	826.119	0
1	22102501	264	High	1.5	Precise	1	16	17	3	27.9	64.5	2.8	17	3	16	64.5	2.8	27.9	2	0.690	0.000	L	17	64.5	826.621	827.386	828.076	828.079	0
1	22102501	265	High	1.5	Precise	1	10	17	3	30.6	64.5	2.8	3	10	17	2.8	30.6	64.5	2	0.505	0.001	R	17	64.5	828.581	831.452	831.956	831.959	0
1	22102501	266	High	1.5	Precise	1	10	17	5	30.6	64.5	13.0	17	10	5	64.5	30.6	13.0	2	0.744	0.000	L	17	64.5	832.462	833.069	833.812	833.815	0
1	22102501	267	High	1.5	Vague	2	16	10	19	27.9	30.6	3.7	19	10	16	3.7	30.6	27.9	1	0.686	0.000	R	16	27.9	834.317	836.326	837.012	837.015	0
1	22102501	268	High	1.5	Vague	2	15	18	27	38.5	53.3	23.8	27	15	18	23.8	38.5	53.3	2	0.505	0.000	R	18	53.3	837.518	839.667	840.172	840.175	0
1	22102501	269	High	1.5	Precise	1	9	18	8	25.2	53.3	20.5	9	8	18	25.2	20.5	53.3	2	0.607	0.001	R	18	53.3	840.678	843.462	844.068	844.071	0
1	22102501	270	High	1.5	Vague	2	9	16	24	25.2	27.9	2.6	16	9	24	27.9	25.2	2.6	2	0.680	0.000	L	16	27.9	844.573	846.596	847.276	847.279	0
1	22102501	271	High	1.5	Vague	2	9	17	19	25.2	64.5	3.7	19	17	9	3.7	64.5	25.2	2	0.590	0.000	D	17	64.5	847.781	849.374	849.964	849.967	0
1	22102501	272	High	1.5	Vague	2	9	17	27	25.2	64.5	23.8	9	17	27	25.2	64.5	23.8	2	0.524	0.000	D	17	64.5	850.470	853.001	853.524	853.527	0
1	22102501	273	High	1.5	Precise	1	9	10	7	25.2	30.6	4.9	10	7	9	30.6	4.9	25.2	1	1.093	0.000	R	9	25.2	854.030	855.544	856.636	856.639	0
1	22102501	274	High	1.5	Vague	2	9	17	30	25.2	64.5	19.8	30	9	17	19.8	25.2	64.5	2	0.534	0.000	R	17	64.5	857.142	859.454	859.988	859.990	0
1	22102501	275	High	1.5	Precise	1	9	18	12	25.2	53.3	16.8	9	12	18	25.2	16.8	53.3	2	0.910	0.000	R	18	53.3	860.494	862.615	863.524	863.527	0
1	22102501	276	High	1.5	Precise	1	9	18	1	25.2	53.3	3.4	9	18	1	25.2	53.3	3.4	2	0.619	0.001	D	18	53.3	864.030	865.154	865.773	865.775	0
1	22102501	277	High	1.5	Vague	2	18	17	19	53.3	64.5	3.7	18	19	17	53.3	3.7	64.5	2	0.613	0.000	R	17	64.5	866.277	868.583	869.196	869.199	0
1	22102501	278	High	1.5	Vague	2	16	10	27	27.9	30.6	23.8	16	10	27	27.9	30.6	23.8	1	0.826	0.000	L	16	27.9	869.701	871.715	872.540	872.543	0
1	22102501	279	High	1.5	Vague	2	16	15	25	27.9	38.5	17.4	16	15	25	27.9	38.5	17.4	2	0.826	0.000	D	15	38.5	873.046	873.939	874.764	874.768	0
1	22102501	280	High	1.5	Precise	1	16	18	12	27.9	53.3	16.8	18	16	12	53.3	27.9	16.8	2	1.216	0.000	L	18	53.3	875.270	877.700	878.916	878.919	0
1	22102501	281	High	1.5	Precise	1	9	10	8	25.2	30.6	20.5	10	9	8	30.6	25.2	20.5	1	0.892	0.000	D	9	25.2	879.421	881.152	882.044	882.047	0
1	22102501	282	High	1.5	Vague	2	9	17	20	25.2	64.5	3.2	20	17	9	3.2	64.5	25.2	2	0.874	0.000	D	17	64.5	882.550	883.387	884.260	884.263	0
1	22102501	283	High	1.5	Vague	2	9	10	27	25.2	30.6	23.8	9	27	10	25.2	23.8	30.6	1	0.515	0.001	L	9	25.2	884.766	887.234	887.749	887.751	0
1	22102501	284	High	1.5	Precise	1	16	18	5	27.9	53.3	13.0	16	18	5	27.9	53.3	13.0	1	0.838	0.000	L	16	27.9	888.254	889.238	890.076	890.079	0
1	22102501	285	High	1.5	Vague	2	18	17	25	53.3	64.5	17.4	18	25	17	53.3	17.4	64.5	1	0.706	0.001	L	18	53.3	890.581	892.970	893.676	893.679	0
1	22102501	286	High	1.5	Vague	2	9	17	24	25.2	64.5	2.6	9	24	17	25.2	2.6	64.5	2	0.556	0.000	R	17	64.5	894.182	896.641	897.196	897.199	0
1	22102501	287	High	1.5	Vague	2	9	10	30	25.2	30.6	19.8	9	10	30	25.2	30.6	19.8	1	0.563	0.000	L	9	25.2	897.701	898.617	899.180	899.183	0
1	22102501	288	High	1.5	Precise	1	16	10	12	27.9	30.6	16.8	10	12	16	30.6	16.8	27.9	3	0.979	0.000	D	12	16.8	899.685	900.954	901.932	901.935	0
1	22102501	289	High	1.5	Vague	2	9	18	30	25.2	53.3	19.8	18	9	30	53.3	25.2	19.8	2	0.875	0.000	L	18	53.3	902.437	904.097	904.972	904.975	0
1	22102501	290	High	1.5	Vague	2	10	18	30	30.6	53.3	19.8	10	30	18	30.6	19.8	53.3	2	0.589	0.000	R	18	53.3	905.478	907.087	907.676	907.679	0
1	22102501	291	High	1.5	Precise	1	9	15	12	25.2	38.5	16.8	12	9	15	16.8	25.2	38.5	2	0.593	0.000	R	15	38.5	908.181	908.883	909.476	909.479	0
1	22102501	292	High	1.5	Precise	1	9	18	5	25.2	53.3	13.0	5	9	18	13.0	25.2	53.3	1	0.695	0.000	D	9	25.2	909.981	910.622	911.316	911.319	0
1	22102501	293	High	1.5	Vague	2	9	15	25	25.2	38.5	17.4	15	25	9	38.5	17.4	25.2	2	0.532	0.000	L	15	38.5	911.821	913.448	913.980	913.983	0
1	22102501	294	High	1.5	Vague	2	9	18	25	25.2	53.3	17.4	18	9	25	53.3	25.2	17.4	1	0.864	0.001	D	9	25.2	914.485	917.373	918.237	918.239	0
1	22102501	295	High	1.5	Precise	1	16	18	8	27.9	53.3	20.5	8	18	16	20.5	53.3	27.9	2	0.686	0.000	D	18	53.3	918.742	921.023	921.708	921.711	0
1	22102501	296	High	1.5	Vague	2	10	15	19	30.6	38.5	3.7	19	15	10	3.7	38.5	30.6	2	0.637	0.001	D	15	38.5	922.213	924.216	924.853	924.855	0
1	22102501	297	High	1.5	Precise	1	15	17	12	38.5	64.5	16.8	12	17	15	16.8	64.5	38.5	1	0.610	0.000	R	15	38.5	925.358	927.234	927.844	927.847	0
1	22102501	298	High	1.5	Precise	1	16	17	8	27.9	64.5	20.5	17	8	16	64.5	20.5	27.9	2	0.752	0.000	L	17	64.5	928.350	930.860	931.612	931.615	0
1	22102501	299	High	1.5	Precise	1	9	18	7	25.2	53.3	4.9	18	9	7	53.3	25.2	4.9	2	0.664	0.000	L	18	53.3	932.117	933.804	934.468	934.471	0
1	22102501	300	High	1.5	Precise	1	9	17	12	25.2	64.5	16.8	9	17	12	25.2	64.5	16.8	2	0.690	0.001	D	17	64.5	934.973	935.675	936.364	936.367	0
1	22102501	301	High	1.5	Vague	2	15	18	25	38.5	53.3	17.4	18	25	15	53.3	17.4	38.5	1	0.640	0.000	R	15	38.5	942.614	945.412	946.052	946.055	0
1	22102501	302	High	1.5	Precise	1	15	17	8	38.5	64.5	20.5	8	17	15	20.5	64.5	38.5	1	0.523	0.001	R	15	38.5	946.558	949.537	950.060	950.063	0
1	22102501	303	High	1.5	Precise	1	9	15	7	25.2	38.5	4.9	15	9	7	38.5	25.2	4.9	2	0.606	0.000	L	15	38.5	950.565	952.710	953.316	953.319	0
1	22102501	304	High	1.5	Precise	1	9	17	1	25.2	64.5	3.4	9	17	1	25.2	64.5	3.4	2	0.720	0.000	D	17	64.5	953.821	954.900	955.621	955.623	0
1	22102501	305	High	1.5	Precise	1	15	17	3	38.5	64.5	2.8	3	17	15	2.8	64.5	38.5	1	0.778	0.000	R	15	38.5	956.126	957.867	958.644	958.647	0
1	22102501	306	High	1.5	Vague	2	9	10	25	25.2	30.6	17.4	10	25	9	30.6	17.4	25.2	1	0.799	0.000	R	9	25.2	959.150	960.829	961.628	961.631	0
1	22102501	307	High	1.5	Precise	1	16	17	12	27.9	64.5	16.8	16	12	17	27.9	16.8	64.5	2	0.590	0.000	R	17	64.5	962.133	964.446	965.036	965.039	0
1	22102501	308	High	1.5	Vague	2	16	18	30	27.9	53.3	19.8	30	18	16	19.8	53.3	27.9	2	0.849	0.001	D	18	53.3	965.542	967.035	967.884	967.887	0
1	22102501	309	High	1.5	Precise	1	10	15	8	30.6	38.5	20.5	8	10	15	20.5	30.6	38.5	2	0.602	0.001	R	15	38.5	968.390	970.194	970.796	970.799	0
1	22102501	310	High	1.5	Vague	2	10	15	25	30.6	38.5	17.4	25	10	15	17.4	30.6	38.5	2	0.721	0.001	R	15	38.5	971.301	971.820	972.540	972.543	0
1	22102501	311	High	1.5	Vague	2	15	17	24	38.5	64.5	2.6	15	24	17	38.5	2.6	64.5	1	0.568	0.001	L	15	38.5	973.046	974.668	975.236	975.239	0
1	22102501	312	High	1.5	Precise	1	15	18	12	38.5	53.3	16.8	18	15	12	53.3	38.5	16.8	1	0.532	0.001	D	15	38.5	975.741	978.649	979.181	979.183	0
1	22102501	313	High	1.5	Vague	2	10	15	30	30.6	38.5	19.8	15	30	10	38.5	19.8	30.6	3	0.505	0.000	D	30	19.8	979.686	981.731	982.236	982.239	0
1	22102501	314	High	1.5	Vague	2	9	15	19	25.2	38.5	3.7	15	9	19	38.5	25.2	3.7	2	0.622	0.000	L	15	38.5	982.741	984.926	985.548	985.550	0
1	22102501	315	High	1.5	Vague	2	9	15	20	25.2	38.5	3.2	15	20	9	38.5	3.2	25.2	2	0.494	0.000	L	15	38.5	986.053	987.030	987.524	987.527	0
1	22102501	316	High	1.5	Precise	1	9	16	7	25.2	27.9	4.9	7	9	16	4.9	25.2	27.9	1	0.889	0.000	D	9	25.2	988.030	990.468	991.356	991.359	0
1	22102501	317	High	1.5	Vague	2	9	16	19	25.2	27.9	3.7	16	19	9	27.9	3.7	25.2	2	0.686	0.001	L	16	27.9	991.862	992.463	993.148	993.151	0
1	22102501	318	High	1.5	Precise	1	10	15	5	30.6	38.5	13.0	15	10	5	38.5	30.6	13.0	2	0.533	0.000	L	15	38.5	993.653	994.816	995.348	995.351	0
1	22102501	319	High	1.5	Precise	1	16	10	7	27.9	30.6	4.9	16	7	10	27.9	4.9	30.6	1	0.540	0.000	L	16	27.9	995.854	998.561	999.100	999.103	0
1	22102501	320	High	1.5	Vague	2	15	18	24	38.5	53.3	2.6	18	24	15	53.3	2.6	38.5	1	0.534	0.000	R	15	38.5	999.606	1001.486	1002.020	1002.023	0
1	22102501	321	High	1.5	Precise	1	9	17	7	25.2	64.5	4.9	17	9	7	64.5	25.2	4.9	2	0.575	0.000	L	17	64.5	1002.526	1003.637	1004.212	1004.215	0
1	22102501	322	High	1.5	Precise	1	15	18	5	38.5	53.3	13.0	18	15	5	53.3	38.5	13.0	1	0.978	0.001	D	15	38.5	1004.718	1005.714	1006.692	1006.695	0
1	22102501	323	High	1.5	Vague	2	10	15	27	30.6	38.5	23.8	15	27	10	38.5	23.8	30.6	2	0.497	0.000	L	15	38.5	1007.197	1010.155	1010.652	1010.655	0
1	22102501	324	High	1.5	Precise	1	16	17	5	27.9	64.5	13.0	5	17	16	13.0	64.5	27.9	2	0.921	0.001	D	17	64.5	1011.157	1013.476	1014.397	1014.399	0
1	22102501	325	High	1.5	Vague	2	16	18	20	27.9	53.3	3.2	18	16	20	53.3	27.9	3.2	2	0.664	0.001	L	18	53.3	1014.902	1017.124	1017.789	1017.791	0
1	22102501	326	High	1.5	Vague	2	16	17	27	27.9	64.5	23.8	17	27	16	64.5	23.8	27.9	2	0.516	0.000	L	17	64.5	1018.293	1019.208	1019.724	1019.727	0
1	22102501	327	High	1.5	Vague	2	10	17	19	30.6	64.5	3.7	19	17	10	3.7	64.5	30.6	2	0.531	0.000	D	17	64.5	1020.230	1020.881	1021.412	1021.415	0
1	22102501	328	High	1.5	Vague	2	10	15	20	30.6	38.5	3.2	10	15	20	30.6	38.5	3.2	2	0.548	0.000	D	15	38.5	1021.918	1023.593	1024.141	1024.143	0
1	22102501	329	High	1.5	Vague	2	16	18	24	27.9	53.3	2.6	18	24	16	53.3	2.6	27.9	2	0.740	0.000	L	18	53.3	1024.645	1026.128	1026.868	1026.871	0
1	22102501	330	High	1.5	Vague	2	9	15	27	25.2	38.5	23.8	27	15	9	23.8	38.5	25.2	2	0.809	0.000	D	15	38.5	1027.373	1029.371	1030.180	1030.183	0
1	22102501	331	High	1.5	Vague	2	16	10	30	27.9	30.6	19.8	16	10	30	27.9	30.6	19.8	1	1.023	0.000	L	16	27.9	1030.685	1032.709	1033.732	1033.735	0
1	22102501	332	High	1.5	Precise	1	15	18	8	38.5	53.3	20.5	15	8	18	38.5	20.5	53.3	1	0.616	0.000	L	15	38.5	1034.238	1036.365	1036.980	1036.983	0
1	22102501	333	High	1.5	Precise	1	10	18	7	30.6	53.3	4.9	10	18	7	30.6	53.3	4.9	2	1.101	0.000	D	18	53.3	1037.485	1040.263	1041.364	1041.367	0
1	22102501	334	High	1.5	Vague	2	9	18	20	25.2	53.3	3.2	18	20	9	53.3	3.2	25.2	2	0.563	0.000	L	18	53.3	1041.869	1042.945	1043.508	1043.511	0
1	22102501	335	High	1.5	Precise	1	16	18	7	27.9	53.3	4.9	16	18	7	27.9	53.3	4.9	1	0.904	0.001	L	16	27.9	1044.014	1045.492	1046.396	1046.399	0
1	22102501	336	High	1.5	Precise	1	15	18	7	38.5	53.3	4.9	18	7	15	53.3	4.9	38.5	2	0.702	0.000	L	18	53.3	1046.901	1048.806	1049.508	1049.511	0
1	22102501	337	High	1.5	Vague	2	10	17	27	30.6	64.5	23.8	17	27	10	64.5	23.8	30.6	2	0.635	0.000	L	17	64.5	1050.014	1052.002	1052.636	1052.639	0
1	22102501	338	High	1.5	Precise	1	9	17	8	25.2	64.5	20.5	9	8	17	25.2	20.5	64.5	2	0.794	0.001	R	17	64.5	1053.142	1054.939	1055.733	1055.735	0
1	22102501	339	High	1.5	Precise	1	10	18	1	30.6	53.3	3.4	10	1	18	30.6	3.4	53.3	2	0.696	0.001	R	18	53.3	1056.238	1058.349	1059.044	1059.047	0
1	22102501	340	High	1.5	Precise	1	15	18	3	38.5	53.3	2.8	18	3	15	53.3	2.8	38.5	1	0.678	0.001	R	15	38.5	1059.550	1061.798	1062.477	1062.479	0
1	22102501	341	High	1.5	Precise	1	9	15	5	25.2	38.5	13.0	15	9	5	38.5	25.2	13.0	2	0.562	0.000	L	15	38.5	1062.982	1065.587	1066.148	1066.151	0
1	22102501	342	High	1.5	Precise	1	16	15	12	27.9	38.5	16.8	16	12	15	27.9	16.8	38.5	2	0.508	0.000	R	15	38.5	1066.653	1068.393	1068.900	1068.903	0
1	22102501	343	High	1.5	Vague	2	15	17	30	38.5	64.5	19.8	30	17	15	19.8	64.5	38.5	1	0.719	0.001	R	15	38.5	1069.406	1071.189	1071.908	1071.911	0
1	22102501	344	High	1.5	Precise	1	9	10	5	25.2	30.6	13.0	5	10	9	13.0	30.6	25.2	2	1.076	0.000	D	10	30.6	1072.414	1074.224	1075.301	1075.303	0
1	22102501	345	High	1.5	Precise	1	10	18	12	30.6	53.3	16.8	12	18	10	16.8	53.3	30.6	3	0.599	0.000	L	12	16.8	1075.807	1078.718	1079.316	1079.319	0
1	22102501	346	High	1.5	Vague	2	16	17	25	27.9	64.5	17.4	25	17	16	17.4	64.5	27.9	2	0.831	0.000	D	17	64.5	1079.822	1081.470	1082.301	1082.303	0
1	22102501	347	High	1.5	Precise	1	16	17	7	27.9	64.5	4.9	7	17	16	4.9	64.5	27.9	2	0.573	0.000	D	17	64.5	1082.805	1083.976	1084.548	1084.551	0
1	22102501	348	High	1.5	Precise	1	16	17	1	27.9	64.5	3.4	17	16	1	64.5	27.9	3.4	2	0.643	0.001	L	17	64.5	1085.053	1086.810	1087.453	1087.455	0
1	22102501	349	High	1.5	Vague	2	10	18	20	30.6	53.3	3.2	20	10	18	3.2	30.6	53.3	2	0.835	0.000	R	18	53.3	1087.957	1089.769	1090.604	1090.607	0
1	22102501	350	High	1.5	Precise	1	15	17	7	38.5	64.5	4.9	17	15	7	64.5	38.5	4.9	2	0.745	0.000	L	17	64.5	1091.109	1092.787	1093.532	1093.536	0
1	22102501	351	High	1.5	Precise	1	10	17	8	30.6	64.5	20.5	8	10	17	20.5	30.6	64.5	2	0.762	0.000	R	17	64.5	1094.039	1096.866	1097.628	1097.631	0
1	22102501	352	High	1.5	Precise	1	9	10	3	25.2	30.6	2.8	3	10	9	2.8	30.6	25.2	1	1.112	0.000	R	9	25.2	1098.134	1100.845	1101.956	1101.959	0
1	22102501	353	High	1.5	Vague	2	18	17	20	53.3	64.5	3.2	20	17	18	3.2	64.5	53.3	2	0.619	0.000	D	17	64.5	1102.461	1103.953	1104.572	1104.575	0
1	22102501	354	High	1.5	Precise	1	9	16	3	25.2	27.9	2.8	3	16	9	2.8	27.9	25.2	3	0.793	0.000	L	3	2.8	1105.078	1106.596	1107.388	1107.391	0
1	22102501	355	High	1.5	Precise	1	9	16	5	25.2	27.9	13.0	9	16	5	25.2	27.9	13.0	1	0.659	0.000	L	9	25.2	1107.893	1109.081	1109.740	1109.743	0
1	22102501	356	High	1.5	Vague	2	16	15	27	27.9	38.5	23.8	15	27	16	38.5	23.8	27.9	2	0.536	0.000	L	15	38.5	1110.246	1111.236	1111.772	1111.775	0
1	22102501	357	High	1.5	Vague	2	16	15	30	27.9	38.5	19.8	15	16	30	38.5	27.9	19.8	2	0.646	0.001	L	15	38.5	1112.278	1112.831	1113.477	1113.479	0
1	22102501	358	High	1.5	Vague	2	10	17	30	30.6	64.5	19.8	30	17	10	19.8	64.5	30.6	2	0.637	0.000	D	17	64.5	1113.981	1115.792	1116.428	1116.431	0
1	22102501	359	High	1.5	Precise	1	9	18	3	25.2	53.3	2.8	9	18	3	25.2	53.3	2.8	1	0.523	0.001	L	9	25.2	1116.933	1118.946	1119.469	1119.471	0
1	22102501	360	High	1.5	Vague	2	9	15	30	25.2	38.5	19.8	30	9	15	19.8	25.2	38.5	2	0.745	0.000	R	15	38.5	1119.974	1122.371	1123.116	1123.119	0
