Group	subID	trial	TimePressure	TimeConstraint	Vagueness	Vaguenesscode	ID1	ID2	ID3	V1	V2	V3	ID_left	ID_middle	ID_right	Bid_left	Bid_middle	Bid_right	chosenItem	RT	RTvariance	chosenPosition	chosenID	chosenValue	fixation_time	option_time	choice_time	feedback_time	timeout
1	22102502	1	High	1.5	Vague	2	12	17	22	9.5	50.1	3.5	22	12	17	3.5	9.5	50.1	2	1.053	0.000	R	17	50.1	3.474	4.166	5.219	5.223	0
1	22102502	2	High	1.5	Vague	2	10	18	24	10.3	32.0	1.4	24	18	10	1.4	32.0	10.3	2	1.180	0.001	D	18	32.0	5.729	8.711	9.892	9.895	0
1	22102502	3	High	1.5	Vague	2	12	10	27	9.5	10.3	2.5	10	27	12	10.3	2.5	9.5	1	1.217	0.001	R	12	9.5	10.402	11.450	12.668	12.671	0
1	22102502	4	High	1.5	Vague	2	10	17	23	10.3	50.1	0.9	17	10	23	50.1	10.3	0.9	2	0.495	0.001	L	17	50.1	13.175	15.061	15.556	15.559	0
1	22102502	5	High	1.5	Precise	1	15	10	3	6.7	10.3	1.4	10	15	3	10.3	6.7	1.4	2	1.090	0.001	L	10	10.3	16.066	17.010	18.100	18.105	0
1	22102502	6	High	1.5	Precise	1	18	17	6	32.0	50.1	0.8	18	6	17	32.0	0.8	50.1	2	0.795	0.000	R	17	50.1	18.610	19.185	19.979	19.982	0
1	22102502	7	High	1.5	Vague	2	9	10	27	9.7	10.3	2.5	9	10	27	9.7	10.3	2.5	1	1.179	0.001	L	9	9.7	20.486	21.232	22.412	22.414	0
1	22102502	8	High	1.5	Precise	1	15	18	5	6.7	32.0	2.8	15	5	18	6.7	2.8	32.0	2	1.470	0.001	R	18	32.0	22.917	24.469	25.940	25.942	0
1	22102502	9	High	1.5	Vague	2	12	9	26	9.5	9.7	1.9	26	12	9	1.9	9.5	9.7	2	1.340	0.000	R	9	9.7	26.444	27.727	29.067	29.070	0
1	22102502	10	High	1.5	Vague	2	12	18	20	9.5	32.0	0.7	12	20	18	9.5	0.7	32.0	2	0.932	0.000	R	18	32.0	29.573	30.600	31.532	31.534	0
1	22102502	11	High	1.5	Precise	1	15	18	3	6.7	32.0	1.4	15	3	18	6.7	1.4	32.0	2	1.338	0.000	R	18	32.0	32.036	33.618	34.955	34.958	0
1	22102502	12	High	1.5	Vague	2	9	10	26	9.7	10.3	1.9	26	10	9	1.9	10.3	9.7	1	0.809	0.000	R	9	9.7	35.460	36.315	37.124	37.126	0
1	22102502	13	High	1.5	Precise	1	12	18	6	9.5	32.0	0.8	6	12	18	0.8	9.5	32.0	2	0.655	0.000	R	18	32.0	37.629	40.372	41.028	41.030	0
1	22102502	14	High	1.5	Vague	2	12	18	24	9.5	32.0	1.4	12	24	18	9.5	1.4	32.0	2	0.605	0.000	R	18	32.0	41.533	43.647	44.252	44.254	0
1	22102502	15	High	1.5	Precise	1	15	12	5	6.7	9.5	2.8	5	15	12	2.8	6.7	9.5	2	1.416	0.001	R	12	9.5	44.757	45.435	46.852	46.854	0
1	22102502	16	High	1.5	Vague	2	15	18	26	6.7	32.0	1.9	26	18	15	1.9	32.0	6.7	2	0.945	0.001	D	18	32.0	47.357	49.347	50.292	50.295	0
1	22102502	17	High	1.5	Precise	1	15	12	3	6.7	9.5	1.4	3	15	12	1.4	6.7	9.5	2	0.839	0.001	R	12	9.5	50.797	52.069	52.908	52.910	0
1	22102502	18	High	1.5	Precise	1	15	17	6	6.7	50.1	0.8	17	6	15	50.1	0.8	6.7	2	0.670	0.000	L	17	50.1	53.413	55.677	56.347	56.350	0
1	22102502	19	High	1.5	Precise	1	15	12	1	6.7	9.5	1.4	12	15	1	9.5	6.7	1.4	NaN	NaN	NaN	NaN	NaN	NaN	56.853	57.960	NaN	59.450	1
1	22102502	20	High	1.5	Precise	1	9	10	3	9.7	10.3	1.4	3	10	9	1.4	10.3	9.7	1	0.654	0.000	R	9	9.7	61.454	63.054	63.707	63.712	0
1	22102502	21	High	1.5	Precise	1	9	10	8	9.7	10.3	5.4	9	8	10	9.7	5.4	10.3	1	0.764	0.001	L	9	9.7	64.214	66.128	66.892	66.895	0
1	22102502	22	High	1.5	Precise	1	15	9	14	6.7	9.7	2.1	9	14	15	9.7	2.1	6.7	2	0.659	0.001	L	9	9.7	67.399	68.256	68.916	68.918	0
1	22102502	23	High	1.5	Precise	1	9	18	14	9.7	32.0	2.1	14	9	18	2.1	9.7	32.0	2	0.578	0.001	R	18	32.0	69.422	69.993	70.572	70.574	0
1	22102502	24	High	1.5	Precise	1	12	9	8	9.5	9.7	5.4	8	9	12	5.4	9.7	9.5	1	0.973	0.000	R	12	9.5	71.078	73.670	74.643	74.646	0
1	22102502	25	High	1.5	Precise	1	10	18	8	10.3	32.0	5.4	10	8	18	10.3	5.4	32.0	2	0.611	0.000	R	18	32.0	75.149	77.200	77.811	77.814	0
1	22102502	26	High	1.5	Vague	2	18	17	26	32.0	50.1	1.9	17	26	18	50.1	1.9	32.0	1	0.447	0.000	R	18	32.0	78.316	80.773	81.220	81.222	0
1	22102502	27	High	1.5	Precise	1	9	17	5	9.7	50.1	2.8	9	5	17	9.7	2.8	50.1	2	0.551	0.001	R	17	50.1	81.725	84.261	84.812	84.814	0
1	22102502	28	High	1.5	Precise	1	9	17	6	9.7	50.1	0.8	9	6	17	9.7	0.8	50.1	2	0.378	0.000	R	17	50.1	85.316	87.561	87.939	87.942	0
1	22102502	29	High	1.5	Vague	2	10	17	24	10.3	50.1	1.4	24	17	10	1.4	50.1	10.3	2	0.531	0.001	D	17	50.1	88.444	91.232	91.764	91.767	0
1	22102502	30	High	1.5	Vague	2	15	18	20	6.7	32.0	0.7	20	15	18	0.7	6.7	32.0	2	0.546	0.001	R	18	32.0	92.270	94.618	95.164	95.166	0
1	22102502	31	High	1.5	Vague	2	9	18	27	9.7	32.0	2.5	18	9	27	32.0	9.7	2.5	2	0.569	0.001	L	18	32.0	95.669	96.747	97.316	97.318	0
1	22102502	32	High	1.5	Precise	1	9	18	5	9.7	32.0	2.8	9	18	5	9.7	32.0	2.8	2	0.613	0.000	D	18	32.0	97.820	99.231	99.844	99.846	0
1	22102502	33	High	1.5	Vague	2	12	10	23	9.5	10.3	0.9	12	23	10	9.5	0.9	10.3	2	0.807	0.000	R	10	10.3	100.349	102.124	102.932	102.934	0
1	22102502	34	High	1.5	Vague	2	15	17	23	6.7	50.1	0.9	17	23	15	50.1	0.9	6.7	2	0.614	0.001	L	17	50.1	103.436	104.054	104.668	104.670	0
1	22102502	35	High	1.5	Precise	1	15	17	1	6.7	50.1	1.4	1	17	15	1.4	50.1	6.7	2	0.533	0.000	D	17	50.1	105.173	108.015	108.548	108.550	0
1	22102502	36	High	1.5	Precise	1	12	17	6	9.5	50.1	0.8	6	17	12	0.8	50.1	9.5	2	0.456	0.001	D	17	50.1	109.053	110.436	110.892	110.894	0
1	22102502	37	High	1.5	Precise	1	12	10	14	9.5	10.3	2.1	14	12	10	2.1	9.5	10.3	1	1.070	0.000	D	12	9.5	111.397	114.374	115.443	115.446	0
1	22102502	38	High	1.5	Precise	1	12	17	14	9.5	50.1	2.1	12	17	14	9.5	50.1	2.1	3	0.594	0.001	R	14	2.1	115.949	117.674	118.268	118.270	0
1	22102502	39	High	1.5	Precise	1	15	18	8	6.7	32.0	5.4	15	8	18	6.7	5.4	32.0	2	0.852	0.000	R	18	32.0	118.773	120.063	120.915	120.918	0
1	22102502	40	High	1.5	Precise	1	12	9	6	9.5	9.7	0.8	12	9	6	9.5	9.7	0.8	2	0.775	0.001	D	9	9.7	121.421	123.380	124.156	124.158	0
1	22102502	41	High	1.5	Precise	1	9	17	1	9.7	50.1	1.4	17	9	1	50.1	9.7	1.4	2	0.468	0.001	L	17	50.1	124.661	126.607	127.076	127.078	0
1	22102502	42	High	1.5	Precise	1	9	10	1	9.7	10.3	1.4	10	1	9	10.3	1.4	9.7	1	0.541	0.000	R	9	9.7	127.581	130.167	130.708	130.710	0
1	22102502	43	High	1.5	Vague	2	12	17	20	9.5	50.1	0.7	17	20	12	50.1	0.7	9.5	2	0.548	0.001	L	17	50.1	131.212	132.776	133.324	133.326	0
1	22102502	44	High	1.5	Vague	2	12	10	20	9.5	10.3	0.7	12	10	20	9.5	10.3	0.7	2	0.936	0.001	D	10	10.3	133.829	135.836	136.772	136.775	0
1	22102502	45	High	1.5	Vague	2	15	12	24	6.7	9.5	1.4	24	15	12	1.4	6.7	9.5	1	0.864	0.001	D	15	6.7	137.278	139.404	140.268	140.271	0
1	22102502	46	High	1.5	Precise	1	15	17	14	6.7	50.1	2.1	17	14	15	50.1	2.1	6.7	2	0.501	0.001	L	17	50.1	140.773	143.319	143.820	143.822	0
1	22102502	47	High	1.5	Precise	1	12	10	3	9.5	10.3	1.4	12	10	3	9.5	10.3	1.4	1	0.887	0.001	L	12	9.5	144.324	146.053	146.940	146.942	0
1	22102502	48	High	1.5	Vague	2	10	17	26	10.3	50.1	1.9	17	26	10	50.1	1.9	10.3	2	0.663	0.000	L	17	50.1	147.446	150.053	150.715	150.718	0
1	22102502	49	High	1.5	Precise	1	15	9	5	6.7	9.7	2.8	5	9	15	2.8	9.7	6.7	3	0.922	0.001	L	5	2.8	151.220	152.770	153.692	153.694	0
1	22102502	50	High	1.5	Vague	2	15	18	24	6.7	32.0	1.4	18	24	15	32.0	1.4	6.7	2	0.702	0.001	L	18	32.0	154.197	155.806	156.508	156.511	0
1	22102502	51	High	1.5	Precise	1	12	9	3	9.5	9.7	1.4	12	9	3	9.5	9.7	1.4	2	0.638	0.000	D	9	9.7	157.015	158.973	159.612	159.614	0
1	22102502	52	High	1.5	Precise	1	15	12	14	6.7	9.5	2.1	12	14	15	9.5	2.1	6.7	3	0.801	0.000	D	14	2.1	160.118	160.947	161.748	161.750	0
1	22102502	53	High	1.5	Vague	2	9	17	26	9.7	50.1	1.9	17	26	9	50.1	1.9	9.7	2	0.513	0.000	L	17	50.1	162.254	163.178	163.692	163.694	0
1	22102502	54	High	1.5	Precise	1	10	17	1	10.3	50.1	1.4	1	17	10	1.4	50.1	10.3	2	0.547	0.001	D	17	50.1	164.197	164.848	165.396	165.398	0
1	22102502	55	High	1.5	Vague	2	12	9	20	9.5	9.7	0.7	20	9	12	0.7	9.7	9.5	2	0.615	0.000	D	9	9.7	165.901	167.932	168.548	168.550	0
1	22102502	56	High	1.5	Vague	2	12	18	27	9.5	32.0	2.5	12	18	27	9.5	32.0	2.5	2	0.514	0.000	D	18	32.0	169.053	169.898	170.412	170.414	0
1	22102502	57	High	1.5	Precise	1	18	17	5	32.0	50.1	2.8	5	18	17	2.8	32.0	50.1	2	0.524	0.000	R	17	50.1	170.917	173.856	174.380	174.382	0
1	22102502	58	High	1.5	Vague	2	12	17	26	9.5	50.1	1.9	17	26	12	50.1	1.9	9.5	2	0.630	0.000	L	17	50.1	174.885	176.877	177.507	177.510	0
1	22102502	59	High	1.5	Vague	2	12	18	22	9.5	32.0	3.5	12	22	18	9.5	3.5	32.0	2	0.479	0.001	R	18	32.0	178.013	178.548	179.028	179.030	0
1	22102502	60	High	1.5	Precise	1	15	17	5	6.7	50.1	2.8	17	15	5	50.1	6.7	2.8	2	0.464	0.001	L	17	50.1	179.533	180.260	180.724	180.726	0
1	22102502	61	High	1.5	Precise	1	12	10	8	9.5	10.3	5.4	8	12	10	5.4	9.5	10.3	3	0.795	0.001	L	8	5.4	186.036	187.529	188.324	188.327	0
1	22102502	62	High	1.5	Vague	2	15	10	27	6.7	10.3	2.5	10	27	15	10.3	2.5	6.7	2	0.672	0.001	L	10	10.3	188.830	191.540	192.212	192.214	0
1	22102502	63	High	1.5	Vague	2	15	9	20	6.7	9.7	0.7	20	15	9	0.7	6.7	9.7	2	0.641	0.000	R	9	9.7	192.717	195.035	195.675	195.678	0
1	22102502	64	High	1.5	Precise	1	15	12	6	6.7	9.5	0.8	15	12	6	6.7	9.5	0.8	1	0.951	0.001	L	15	6.7	196.182	197.965	198.916	198.918	0
1	22102502	65	High	1.5	Precise	1	9	17	8	9.7	50.1	5.4	9	8	17	9.7	5.4	50.1	2	0.428	0.000	R	17	50.1	199.421	202.255	202.683	202.686	0
1	22102502	66	High	1.5	Vague	2	9	17	22	9.7	50.1	3.5	22	9	17	3.5	9.7	50.1	2	0.436	0.000	R	17	50.1	203.188	205.440	205.876	205.878	0
1	22102502	67	High	1.5	Precise	1	12	17	1	9.5	50.1	1.4	17	12	1	50.1	9.5	1.4	2	0.450	0.001	L	17	50.1	206.381	208.338	208.788	208.790	0
1	22102502	68	High	1.5	Precise	1	10	18	14	10.3	32.0	2.1	10	14	18	10.3	2.1	32.0	2	0.529	0.000	R	18	32.0	209.293	210.347	210.876	210.878	0
1	22102502	69	High	1.5	Precise	1	9	17	3	9.7	50.1	1.4	3	9	17	1.4	9.7	50.1	2	0.447	0.001	R	17	50.1	211.381	212.157	212.604	212.606	0
1	22102502	70	High	1.5	Vague	2	10	18	23	10.3	32.0	0.9	10	18	23	10.3	32.0	0.9	2	0.571	0.001	D	18	32.0	213.109	214.529	215.100	215.102	0
1	22102502	71	High	1.5	Vague	2	15	17	26	6.7	50.1	1.9	26	17	15	1.9	50.1	6.7	2	0.427	0.001	D	17	50.1	215.606	216.489	216.916	216.918	0
1	22102502	72	High	1.5	Precise	1	15	9	3	6.7	9.7	1.4	9	15	3	9.7	6.7	1.4	2	0.612	0.000	L	9	9.7	217.422	218.991	219.604	219.606	0
1	22102502	73	High	1.5	Vague	2	15	9	27	6.7	9.7	2.5	27	15	9	2.5	6.7	9.7	2	0.508	0.001	R	9	9.7	220.108	222.224	222.732	222.734	0
1	22102502	74	High	1.5	Precise	1	9	10	14	9.7	10.3	2.1	9	10	14	9.7	10.3	2.1	1	0.555	0.000	L	9	9.7	223.238	224.272	224.828	224.830	0
1	22102502	75	High	1.5	Precise	1	18	17	1	32.0	50.1	1.4	1	18	17	1.4	32.0	50.1	2	0.431	0.001	R	17	50.1	225.332	227.469	227.900	227.902	0
1	22102502	76	High	1.5	Precise	1	12	17	8	9.5	50.1	5.4	12	8	17	9.5	5.4	50.1	2	0.475	0.000	R	17	50.1	228.404	229.225	229.700	229.702	0
1	22102502	77	High	1.5	Precise	1	10	18	6	10.3	32.0	0.8	6	10	18	0.8	10.3	32.0	2	0.473	0.000	R	18	32.0	230.204	233.179	233.652	233.654	0
1	22102502	78	High	1.5	Vague	2	18	17	24	32.0	50.1	1.4	17	24	18	50.1	1.4	32.0	1	0.405	0.000	R	18	32.0	234.156	235.919	236.324	236.326	0
1	22102502	79	High	1.5	Vague	2	9	17	27	9.7	50.1	2.5	17	27	9	50.1	2.5	9.7	2	0.390	0.000	L	17	50.1	236.829	238.222	238.612	238.614	0
1	22102502	80	High	1.5	Vague	2	15	9	24	6.7	9.7	1.4	9	24	15	9.7	1.4	6.7	2	0.603	0.001	L	9	9.7	239.118	239.897	240.500	240.502	0
1	22102502	81	High	1.5	Precise	1	9	10	5	9.7	10.3	2.8	5	10	9	2.8	10.3	9.7	3	0.501	0.000	L	5	2.8	241.005	242.838	243.340	243.342	0
1	22102502	82	High	1.5	Precise	1	9	17	14	9.7	50.1	2.1	9	17	14	9.7	50.1	2.1	2	0.569	0.001	D	17	50.1	243.845	246.083	246.652	246.654	0
1	22102502	83	High	1.5	Precise	1	10	18	3	10.3	32.0	1.4	10	3	18	10.3	1.4	32.0	2	0.495	0.000	R	18	32.0	247.157	247.941	248.436	248.438	0
1	22102502	84	High	1.5	Vague	2	12	17	27	9.5	50.1	2.5	27	12	17	2.5	9.5	50.1	2	0.450	0.001	R	17	50.1	248.941	251.634	252.084	252.086	0
1	22102502	85	High	1.5	Vague	2	12	9	24	9.5	9.7	1.4	24	9	12	1.4	9.7	9.5	2	0.660	0.000	D	9	9.7	252.589	255.352	256.012	256.014	0
1	22102502	86	High	1.5	Precise	1	12	10	6	9.5	10.3	0.8	10	12	6	10.3	9.5	0.8	2	0.836	0.001	L	10	10.3	256.517	257.600	258.436	258.438	0
1	22102502	87	High	1.5	Vague	2	15	18	22	6.7	32.0	3.5	18	15	22	32.0	6.7	3.5	2	0.525	0.001	L	18	32.0	258.941	261.223	261.748	261.750	0
1	22102502	88	High	1.5	Vague	2	10	18	26	10.3	32.0	1.9	10	18	26	10.3	32.0	1.9	3	0.539	0.000	R	26	1.9	262.253	264.193	264.732	264.734	0
1	22102502	89	High	1.5	Precise	1	10	17	5	10.3	50.1	2.8	17	5	10	50.1	2.8	10.3	2	0.579	0.001	L	17	50.1	265.238	265.913	266.492	266.494	0
1	22102502	90	High	1.5	Vague	2	15	12	22	6.7	9.5	3.5	22	12	15	3.5	9.5	6.7	2	1.135	0.001	D	12	9.5	266.998	268.381	269.516	269.518	0
1	22102502	91	High	1.5	Vague	2	15	17	20	6.7	50.1	0.7	15	17	20	6.7	50.1	0.7	2	0.686	0.000	D	17	50.1	270.022	272.406	273.092	273.094	0
1	22102502	92	High	1.5	Vague	2	10	18	20	10.3	32.0	0.7	10	18	20	10.3	32.0	0.7	2	0.542	0.001	D	18	32.0	273.596	274.445	274.988	274.991	0
1	22102502	93	High	1.5	Precise	1	18	17	8	32.0	50.1	5.4	17	18	8	50.1	32.0	5.4	2	0.497	0.001	L	17	50.1	275.493	277.203	277.700	277.702	0
1	22102502	94	High	1.5	Vague	2	15	12	26	6.7	9.5	1.9	12	26	15	9.5	1.9	6.7	3	0.981	0.000	D	26	1.9	278.206	279.863	280.844	280.847	0
1	22102502	95	High	1.5	Vague	2	12	17	24	9.5	50.1	1.4	24	17	12	1.4	50.1	9.5	2	0.596	0.001	D	17	50.1	281.350	283.448	284.044	284.046	0
1	22102502	96	High	1.5	Precise	1	12	9	14	9.5	9.7	2.1	9	14	12	9.7	2.1	9.5	2	0.664	0.000	L	9	9.7	284.550	287.459	288.124	288.126	0
1	22102502	97	High	1.5	Precise	1	12	18	3	9.5	32.0	1.4	3	12	18	1.4	9.5	32.0	2	0.585	0.000	R	18	32.0	288.629	290.115	290.700	290.702	0
1	22102502	98	High	1.5	Vague	2	9	18	22	9.7	32.0	3.5	9	22	18	9.7	3.5	32.0	2	0.442	0.000	R	18	32.0	291.205	291.714	292.156	292.158	0
1	22102502	99	High	1.5	Precise	1	12	17	5	9.5	50.1	2.8	5	17	12	2.8	50.1	9.5	2	0.545	0.000	D	17	50.1	292.661	294.004	294.548	294.550	0
1	22102502	100	High	1.5	Vague	2	12	10	24	9.5	10.3	1.4	24	10	12	1.4	10.3	9.5	1	0.624	0.001	R	12	9.5	295.054	296.436	297.060	297.062	0
1	22102502	101	High	1.5	Vague	2	15	12	20	6.7	9.5	0.7	20	12	15	0.7	9.5	6.7	2	0.978	0.001	D	12	9.5	297.566	300.274	301.252	301.254	0
1	22102502	102	High	1.5	Precise	1	18	17	14	32.0	50.1	2.1	17	14	18	50.1	2.1	32.0	2	0.508	0.000	L	17	50.1	301.758	303.071	303.580	303.582	0
1	22102502	103	High	1.5	Vague	2	12	9	27	9.5	9.7	2.5	27	12	9	2.5	9.5	9.7	2	0.598	0.001	R	9	9.7	304.085	305.518	306.116	306.118	0
1	22102502	104	High	1.5	Vague	2	10	17	22	10.3	50.1	3.5	10	17	22	10.3	50.1	3.5	2	0.511	0.000	D	17	50.1	306.622	309.613	310.124	310.126	0
1	22102502	105	High	1.5	Precise	1	12	18	1	9.5	32.0	1.4	12	18	1	9.5	32.0	1.4	2	0.621	0.001	D	18	32.0	310.629	311.911	312.532	312.534	0
1	22102502	106	High	1.5	Vague	2	9	17	23	9.7	50.1	0.9	9	23	17	9.7	0.9	50.1	2	0.534	0.001	R	17	50.1	313.038	313.678	314.212	314.215	0
1	22102502	107	High	1.5	Vague	2	15	17	24	6.7	50.1	1.4	15	17	24	6.7	50.1	1.4	2	0.481	0.001	D	17	50.1	314.717	317.627	318.108	318.110	0
1	22102502	108	High	1.5	Vague	2	12	10	26	9.5	10.3	1.9	26	12	10	1.9	9.5	10.3	3	0.981	0.001	L	26	1.9	318.614	321.583	322.564	322.566	0
1	22102502	109	High	1.5	Vague	2	12	9	22	9.5	9.7	3.5	22	9	12	3.5	9.7	9.5	2	0.638	0.001	D	9	9.7	323.069	325.126	325.764	325.766	0
1	22102502	110	High	1.5	Precise	1	10	17	3	10.3	50.1	1.4	3	17	10	1.4	50.1	10.3	2	0.500	0.001	D	17	50.1	326.269	329.240	329.740	329.742	0
1	22102502	111	High	1.5	Vague	2	15	9	22	6.7	9.7	3.5	15	9	22	6.7	9.7	3.5	2	0.686	0.001	D	9	9.7	330.245	332.758	333.444	333.447	0
1	22102502	112	High	1.5	Vague	2	9	18	26	9.7	32.0	1.9	9	26	18	9.7	1.9	32.0	2	0.767	0.000	R	18	32.0	333.949	335.909	336.676	336.678	0
1	22102502	113	High	1.5	Vague	2	15	10	20	6.7	10.3	0.7	10	15	20	10.3	6.7	0.7	2	1.174	0.000	L	10	10.3	337.180	340.061	341.236	341.238	0
1	22102502	114	High	1.5	Vague	2	15	10	23	6.7	10.3	0.9	23	10	15	0.9	10.3	6.7	1	0.476	0.001	R	15	6.7	341.741	343.977	344.452	344.455	0
1	22102502	115	High	1.5	Precise	1	15	9	8	6.7	9.7	5.4	9	15	8	9.7	6.7	5.4	2	0.831	0.000	L	9	9.7	344.957	347.852	348.684	348.686	0
1	22102502	116	High	1.5	Vague	2	15	10	22	6.7	10.3	3.5	22	10	15	3.5	10.3	6.7	1	0.965	0.000	R	15	6.7	349.190	351.775	352.740	352.742	0
1	22102502	117	High	1.5	Precise	1	15	18	1	6.7	32.0	1.4	18	15	1	32.0	6.7	1.4	2	0.953	0.001	L	18	32.0	353.245	354.235	355.188	355.191	0
1	22102502	118	High	1.5	Precise	1	18	17	3	32.0	50.1	1.4	17	3	18	50.1	1.4	32.0	2	0.494	0.000	L	17	50.1	355.694	357.045	357.540	357.542	0
1	22102502	119	High	1.5	Vague	2	9	17	20	9.7	50.1	0.7	9	17	20	9.7	50.1	0.7	1	0.639	0.000	L	9	9.7	358.045	359.212	359.852	359.854	0
1	22102502	120	High	1.5	Precise	1	12	9	1	9.5	9.7	1.4	12	9	1	9.5	9.7	1.4	2	0.740	0.001	D	9	9.7	360.357	361.864	362.604	362.607	0
1	22102502	121	High	1.5	Precise	1	10	18	1	10.3	32.0	1.4	10	1	18	10.3	1.4	32.0	2	0.792	0.001	R	18	32.0	368.186	369.565	370.356	370.358	0
1	22102502	122	High	1.5	Precise	1	12	18	8	9.5	32.0	5.4	12	18	8	9.5	32.0	5.4	2	0.953	0.001	D	18	32.0	370.861	371.603	372.556	372.558	0
1	22102502	123	High	1.5	Vague	2	15	10	26	6.7	10.3	1.9	10	15	26	10.3	6.7	1.9	3	0.621	0.001	R	26	1.9	373.062	373.839	374.460	374.463	0
1	22102502	124	High	1.5	Precise	1	15	17	8	6.7	50.1	5.4	17	8	15	50.1	5.4	6.7	2	0.516	0.001	L	17	50.1	374.966	375.584	376.100	376.103	0
1	22102502	125	High	1.5	Precise	1	12	18	14	9.5	32.0	2.1	14	18	12	2.1	32.0	9.5	2	0.683	0.000	D	18	32.0	376.606	379.497	380.180	380.182	0
1	22102502	126	High	1.5	Vague	2	10	18	27	10.3	32.0	2.5	10	27	18	10.3	2.5	32.0	2	0.565	0.001	R	18	32.0	380.686	381.679	382.244	382.247	0
1	22102502	127	High	1.5	Vague	2	12	18	23	9.5	32.0	0.9	23	18	12	0.9	32.0	9.5	2	0.537	0.001	D	18	32.0	382.749	383.619	384.156	384.159	0
1	22102502	128	High	1.5	Vague	2	15	17	22	6.7	50.1	3.5	15	22	17	6.7	3.5	50.1	2	0.519	0.000	R	17	50.1	384.661	386.989	387.508	387.510	0
1	22102502	129	High	1.5	Vague	2	12	9	23	9.5	9.7	0.9	23	9	12	0.9	9.7	9.5	2	0.554	0.001	D	9	9.7	388.014	390.506	391.060	391.062	0
1	22102502	130	High	1.5	Precise	1	9	18	1	9.7	32.0	1.4	1	18	9	1.4	32.0	9.7	2	0.573	0.000	D	18	32.0	391.565	392.127	392.700	392.702	0
1	22102502	131	High	1.5	Vague	2	9	18	24	9.7	32.0	1.4	9	24	18	9.7	1.4	32.0	2	0.791	0.001	R	18	32.0	393.206	395.557	396.348	396.351	0
1	22102502	132	High	1.5	Precise	1	15	12	8	6.7	9.5	5.4	12	8	15	9.5	5.4	6.7	2	1.227	0.000	L	12	9.5	396.854	399.696	400.924	400.926	0
1	22102502	133	High	1.5	Vague	2	18	17	22	32.0	50.1	3.5	22	17	18	3.5	50.1	32.0	2	0.632	0.001	D	17	50.1	401.429	402.476	403.108	403.111	0
1	22102502	134	High	1.5	Precise	1	12	10	1	9.5	10.3	1.4	10	12	1	10.3	9.5	1.4	2	0.564	0.001	L	10	10.3	403.613	404.800	405.364	405.367	0
1	22102502	135	High	1.5	Vague	2	12	10	22	9.5	10.3	3.5	12	10	22	9.5	10.3	3.5	3	0.858	0.001	R	22	3.5	405.870	408.370	409.228	409.230	0
1	22102502	136	High	1.5	Precise	1	12	10	5	9.5	10.3	2.8	12	5	10	9.5	2.8	10.3	2	0.648	0.001	R	10	10.3	409.734	411.284	411.932	411.935	0
1	22102502	137	High	1.5	Precise	1	12	9	5	9.5	9.7	2.8	9	12	5	9.7	9.5	2.8	2	0.791	0.000	L	9	9.7	412.437	415.117	415.908	415.911	0
1	22102502	138	High	1.5	Vague	2	15	9	23	6.7	9.7	0.9	15	23	9	6.7	0.9	9.7	2	0.891	0.001	R	9	9.7	416.413	417.953	418.844	418.847	0
1	22102502	139	High	1.5	Vague	2	18	17	23	32.0	50.1	0.9	17	23	18	50.1	0.9	32.0	2	0.520	0.000	L	17	50.1	419.350	421.853	422.372	422.374	0
1	22102502	140	High	1.5	Vague	2	15	10	24	6.7	10.3	1.4	15	10	24	6.7	10.3	1.4	2	1.192	0.001	D	10	10.3	422.878	423.372	424.564	424.567	0
1	22102502	141	High	1.5	Precise	1	15	18	14	6.7	32.0	2.1	18	14	15	32.0	2.1	6.7	2	0.584	0.000	L	18	32.0	425.070	426.636	427.220	427.222	0
1	22102502	142	High	1.5	Vague	2	15	17	27	6.7	50.1	2.5	27	15	17	2.5	6.7	50.1	2	0.475	0.001	R	17	50.1	427.725	429.409	429.884	429.887	0
1	22102502	143	High	1.5	Vague	2	9	10	22	9.7	10.3	3.5	10	22	9	10.3	3.5	9.7	2	1.002	0.001	L	10	10.3	430.390	431.898	432.900	432.903	0
1	22102502	144	High	1.5	Vague	2	12	17	23	9.5	50.1	0.9	17	12	23	50.1	9.5	0.9	2	0.525	0.000	L	17	50.1	433.406	435.295	435.820	435.822	0
1	22102502	145	High	1.5	Vague	2	15	18	27	6.7	32.0	2.5	15	27	18	6.7	2.5	32.0	1	0.998	0.001	L	15	6.7	436.325	438.406	439.404	439.407	0
1	22102502	146	High	1.5	Vague	2	18	17	27	32.0	50.1	2.5	18	27	17	32.0	2.5	50.1	2	0.666	0.000	R	17	50.1	439.909	442.451	443.116	443.119	0
1	22102502	147	High	1.5	Precise	1	9	18	6	9.7	32.0	0.8	6	9	18	0.8	9.7	32.0	2	0.807	0.001	R	18	32.0	443.621	444.661	445.468	445.470	0
1	22102502	148	High	1.5	Precise	1	9	18	8	9.7	32.0	5.4	18	8	9	32.0	5.4	9.7	2	0.801	0.001	L	18	32.0	445.974	446.803	447.604	447.607	0
1	22102502	149	High	1.5	Vague	2	9	10	23	9.7	10.3	0.9	23	10	9	0.9	10.3	9.7	1	0.502	0.001	R	9	9.7	448.109	451.006	451.508	451.511	0
1	22102502	150	High	1.5	Precise	1	9	10	6	9.7	10.3	0.8	9	10	6	9.7	10.3	0.8	2	0.624	0.001	D	10	10.3	452.014	453.364	453.988	453.990	0
1	22102502	151	High	1.5	Precise	1	10	17	14	10.3	50.1	2.1	17	10	14	50.1	10.3	2.1	2	0.662	0.000	L	17	50.1	454.494	457.061	457.724	457.726	0
1	22102502	152	High	1.5	Vague	2	15	9	26	6.7	9.7	1.9	15	9	26	6.7	9.7	1.9	2	1.065	0.001	D	9	9.7	458.230	459.820	460.884	460.887	0
1	22102502	153	High	1.5	Precise	1	15	10	5	6.7	10.3	2.8	5	15	10	2.8	6.7	10.3	2	0.638	0.001	R	10	10.3	461.389	462.310	462.948	462.951	0
1	22102502	154	High	1.5	Vague	2	12	18	26	9.5	32.0	1.9	18	26	12	32.0	1.9	9.5	2	0.805	0.000	L	18	32.0	463.454	464.951	465.756	465.758	0
1	22102502	155	High	1.5	Vague	2	9	10	24	9.7	10.3	1.4	9	10	24	9.7	10.3	1.4	1	0.603	0.001	L	9	9.7	466.261	468.841	469.444	469.447	0
1	22102502	156	High	1.5	Precise	1	10	18	5	10.3	32.0	2.8	10	18	5	10.3	32.0	2.8	2	0.753	0.000	D	18	32.0	469.950	471.748	472.500	472.503	0
1	22102502	157	High	1.5	Precise	1	15	9	6	6.7	9.7	0.8	9	6	15	9.7	0.8	6.7	2	0.562	0.001	L	9	9.7	473.006	475.642	476.204	476.206	0
1	22102502	158	High	1.5	Vague	2	10	17	20	10.3	50.1	0.7	10	20	17	10.3	0.7	50.1	2	0.476	0.001	R	17	50.1	476.709	478.817	479.292	479.295	0
1	22102502	159	High	1.5	Vague	2	10	18	22	10.3	32.0	3.5	18	22	10	32.0	3.5	10.3	2	0.634	0.000	L	18	32.0	479.798	481.162	481.796	481.798	0
1	22102502	160	High	1.5	Vague	2	9	17	24	9.7	50.1	1.4	9	17	24	9.7	50.1	1.4	2	0.552	0.001	D	17	50.1	482.300	484.437	484.988	484.991	0
1	22102502	161	High	1.5	Precise	1	10	17	8	10.3	50.1	5.4	17	10	8	50.1	10.3	5.4	2	0.555	0.001	L	17	50.1	485.494	486.394	486.948	486.950	0
1	22102502	162	High	1.5	Vague	2	15	12	27	6.7	9.5	2.5	15	12	27	6.7	9.5	2.5	1	0.776	0.000	L	15	6.7	487.453	490.444	491.220	491.222	0
1	22102502	163	High	1.5	Precise	1	12	17	3	9.5	50.1	1.4	17	3	12	50.1	1.4	9.5	2	0.450	0.001	L	17	50.1	491.725	492.803	493.252	493.255	0
1	22102502	164	High	1.5	Precise	1	15	10	14	6.7	10.3	2.1	14	15	10	2.1	6.7	10.3	2	1.080	0.001	R	10	10.3	493.758	495.996	497.076	497.078	0
1	22102502	165	High	1.5	Vague	2	10	17	27	10.3	50.1	2.5	27	17	10	2.5	50.1	10.3	2	0.656	0.000	D	17	50.1	497.581	499.732	500.388	500.390	0
1	22102502	166	High	1.5	Vague	2	9	10	20	9.7	10.3	0.7	20	9	10	0.7	9.7	10.3	2	0.508	0.001	R	10	10.3	500.893	503.345	503.852	503.855	0
1	22102502	167	High	1.5	Precise	1	10	17	6	10.3	50.1	0.8	10	17	6	10.3	50.1	0.8	1	0.543	0.001	L	10	10.3	504.358	507.349	507.892	507.895	0
1	22102502	168	High	1.5	Precise	1	12	18	5	9.5	32.0	2.8	18	5	12	32.0	2.8	9.5	2	0.696	0.001	L	18	32.0	508.399	509.780	510.476	510.479	0
1	22102502	169	High	1.5	Precise	1	15	17	3	6.7	50.1	1.4	17	15	3	50.1	6.7	1.4	2	0.456	0.000	L	17	50.1	510.982	512.412	512.868	512.870	0
1	22102502	170	High	1.5	Vague	2	15	18	23	6.7	32.0	0.9	15	18	23	6.7	32.0	0.9	2	0.714	0.000	D	18	32.0	513.373	516.362	517.076	517.078	0
1	22102502	171	High	1.5	Precise	1	15	9	1	6.7	9.7	1.4	9	15	1	9.7	6.7	1.4	2	0.532	0.000	L	9	9.7	517.581	519.496	520.028	520.030	0
1	22102502	172	High	1.5	Precise	1	9	18	3	9.7	32.0	1.4	9	3	18	9.7	1.4	32.0	1	0.586	0.001	L	9	9.7	520.534	521.571	522.156	522.159	0
1	22102502	173	High	1.5	Precise	1	15	18	6	6.7	32.0	0.8	15	18	6	6.7	32.0	0.8	2	0.762	0.001	D	18	32.0	522.661	524.394	525.156	525.159	0
1	22102502	174	High	1.5	Precise	1	15	10	8	6.7	10.3	5.4	8	15	10	5.4	6.7	10.3	2	0.718	0.001	R	10	10.3	525.662	528.534	529.252	529.255	0
1	22102502	175	High	1.5	Vague	2	15	12	23	6.7	9.5	0.9	12	23	15	9.5	0.9	6.7	2	1.296	0.001	L	12	9.5	529.758	530.309	531.604	531.607	0
1	22102502	176	High	1.5	Vague	2	9	18	23	9.7	32.0	0.9	18	23	9	32.0	0.9	9.7	2	0.866	0.000	L	18	32.0	532.109	532.682	533.548	533.550	0
1	22102502	177	High	1.5	Vague	2	9	18	20	9.7	32.0	0.7	9	18	20	9.7	32.0	0.7	2	0.645	0.001	D	18	32.0	534.054	535.304	535.948	535.951	0
1	22102502	178	High	1.5	Precise	1	15	10	6	6.7	10.3	0.8	15	10	6	6.7	10.3	0.8	2	0.992	0.001	D	10	10.3	536.453	539.069	540.060	540.063	0
1	22102502	179	High	1.5	Vague	2	18	17	20	32.0	50.1	0.7	17	18	20	50.1	32.0	0.7	2	0.551	0.000	L	17	50.1	540.566	542.053	542.604	542.607	0
1	22102502	180	High	1.5	Precise	1	15	10	1	6.7	10.3	1.4	15	1	10	6.7	1.4	10.3	2	0.860	0.001	R	10	10.3	543.109	544.320	545.180	545.183	0
1	22102502	181	Low	10.0	Vague	2	15	18	21	6.7	32.0	0.9	21	18	15	0.9	32.0	6.7	2	1.381	0.001	D	18	32.0	558.242	560.551	561.932	561.935	0
1	22102502	182	Low	10.0	Vague	2	15	18	19	6.7	32.0	0.8	19	15	18	0.8	6.7	32.0	2	0.887	0.001	R	18	32.0	562.439	565.422	566.308	566.311	0
1	22102502	183	Low	10.0	Precise	1	15	18	4	6.7	32.0	1.4	4	15	18	1.4	6.7	32.0	2	0.781	0.001	R	18	32.0	566.814	568.768	569.548	569.551	0
1	22102502	184	Low	10.0	Precise	1	10	18	2	10.3	32.0	0.7	10	2	18	10.3	0.7	32.0	2	0.553	0.000	R	18	32.0	570.054	571.203	571.756	571.759	0
1	22102502	185	Low	10.0	Vague	2	9	18	21	9.7	32.0	0.9	21	18	9	0.9	32.0	9.7	2	0.573	0.001	D	18	32.0	572.262	573.576	574.148	574.151	0
1	22102502	186	Low	10.0	Precise	1	12	17	16	9.5	50.1	4.2	17	12	16	50.1	9.5	4.2	2	0.730	0.000	L	17	50.1	574.653	575.762	576.492	576.494	0
1	22102502	187	Low	10.0	Vague	2	9	10	32	9.7	10.3	2.5	32	9	10	2.5	9.7	10.3	2	2.163	0.000	R	10	10.3	576.997	577.593	579.756	579.758	0
1	22102502	188	Low	10.0	Vague	2	12	18	32	9.5	32.0	2.5	18	32	12	32.0	2.5	9.5	2	0.931	0.001	L	18	32.0	580.261	582.945	583.876	583.879	0
1	22102502	189	Low	10.0	Precise	1	12	9	11	9.5	9.7	1.0	9	12	11	9.7	9.5	1.0	2	1.484	0.000	L	9	9.7	584.381	587.232	588.716	588.719	0
1	22102502	190	Low	10.0	Precise	1	15	17	2	6.7	50.1	0.7	17	15	2	50.1	6.7	0.7	2	0.544	0.001	L	17	50.1	589.221	591.836	592.380	592.383	0
1	22102502	191	Low	10.0	Vague	2	12	10	28	9.5	10.3	4.3	10	28	12	10.3	4.3	9.5	2	0.871	0.001	L	10	10.3	592.886	594.893	595.764	595.767	0
1	22102502	192	Low	10.0	Vague	2	10	18	19	10.3	32.0	0.8	10	19	18	10.3	0.8	32.0	2	2.125	0.000	R	18	32.0	596.270	599.030	601.156	601.158	0
1	22102502	193	Low	10.0	Vague	2	10	17	21	10.3	50.1	0.9	21	10	17	0.9	10.3	50.1	2	0.932	0.001	R	17	50.1	601.662	602.952	603.884	603.887	0
1	22102502	194	Low	10.0	Precise	1	15	12	11	6.7	9.5	1.0	12	11	15	9.5	1.0	6.7	1	3.512	0.000	R	15	6.7	604.390	605.292	608.804	608.807	0
1	22102502	195	Low	10.0	Precise	1	9	18	13	9.7	32.0	2.6	18	9	13	32.0	9.7	2.6	2	0.910	0.001	L	18	32.0	609.310	611.182	612.092	612.095	0
1	22102502	196	Low	10.0	Precise	1	12	18	2	9.5	32.0	0.7	18	2	12	32.0	0.7	9.5	2	0.613	0.000	L	18	32.0	612.598	613.535	614.148	614.151	0
1	22102502	197	Low	10.0	Precise	1	10	18	13	10.3	32.0	2.6	18	13	10	32.0	2.6	10.3	2	1.207	0.000	L	18	32.0	614.654	616.453	617.660	617.663	0
1	22102502	198	Low	10.0	Vague	2	10	18	25	10.3	32.0	1.5	18	25	10	32.0	1.5	10.3	2	0.614	0.000	L	18	32.0	618.166	619.350	619.964	619.967	0
1	22102502	199	Low	10.0	Precise	1	10	18	11	10.3	32.0	1.0	18	10	11	32.0	10.3	1.0	2	0.728	0.001	L	18	32.0	620.469	622.260	622.988	622.991	0
1	22102502	200	Low	10.0	Precise	1	15	10	13	6.7	10.3	2.6	15	10	13	6.7	10.3	2.6	2	1.243	0.001	D	10	10.3	623.493	624.930	626.173	626.175	0
1	22102502	201	Low	10.0	Vague	2	18	17	31	32.0	50.1	3.4	17	31	18	50.1	3.4	32.0	2	0.539	0.000	L	17	50.1	626.677	628.721	629.260	629.263	0
1	22102502	202	Low	10.0	Precise	1	9	17	2	9.7	50.1	0.7	2	17	9	0.7	50.1	9.7	2	0.633	0.001	D	17	50.1	629.765	632.156	632.788	632.791	0
1	22102502	203	Low	10.0	Vague	2	15	12	32	6.7	9.5	2.5	32	15	12	2.5	6.7	9.5	1	2.520	0.001	D	15	6.7	633.293	635.284	637.805	637.807	0
1	22102502	204	Low	10.0	Precise	1	10	18	4	10.3	32.0	1.4	10	18	4	10.3	32.0	1.4	2	1.021	0.001	D	18	32.0	638.310	639.383	640.405	640.407	0
1	22102502	205	Low	10.0	Precise	1	15	18	7	6.7	32.0	2.1	18	7	15	32.0	2.1	6.7	2	0.819	0.001	L	18	32.0	640.909	642.241	643.060	643.063	0
1	22102502	206	Low	10.0	Vague	2	12	18	28	9.5	32.0	4.3	12	18	28	9.5	32.0	4.3	2	0.904	0.000	D	18	32.0	643.566	646.181	647.084	647.087	0
1	22102502	207	Low	10.0	Precise	1	12	17	11	9.5	50.1	1.0	11	17	12	1.0	50.1	9.5	2	0.852	0.001	D	17	50.1	647.590	648.569	649.421	649.423	0
1	22102502	208	Low	10.0	Vague	2	18	17	19	32.0	50.1	0.8	18	19	17	32.0	0.8	50.1	2	0.734	0.000	R	17	50.1	649.926	650.895	651.628	651.631	0
1	22102502	209	Low	10.0	Precise	1	15	12	2	6.7	9.5	0.7	12	2	15	9.5	0.7	6.7	1	1.522	0.000	R	15	6.7	652.134	654.786	656.308	656.310	0
1	22102502	210	Low	10.0	Precise	1	10	17	13	10.3	50.1	2.6	10	17	13	10.3	50.1	2.6	2	0.672	0.001	D	17	50.1	656.814	658.053	658.724	658.727	0
1	22102502	211	Low	10.0	Precise	1	12	9	2	9.5	9.7	0.7	9	2	12	9.7	0.7	9.5	2	0.926	0.000	L	9	9.7	659.230	660.511	661.436	661.439	0
1	22102502	212	Low	10.0	Precise	1	10	17	2	10.3	50.1	0.7	10	2	17	10.3	0.7	50.1	2	0.533	0.001	R	17	50.1	661.942	663.007	663.541	663.543	0
1	22102502	213	Low	10.0	Vague	2	18	17	32	32.0	50.1	2.5	17	32	18	50.1	2.5	32.0	2	0.550	0.001	L	17	50.1	664.046	665.950	666.500	666.503	0
1	22102502	214	Low	10.0	Precise	1	15	17	7	6.7	50.1	2.1	17	7	15	50.1	2.1	6.7	2	0.516	0.000	L	17	50.1	667.005	669.137	669.652	669.655	0
1	22102502	215	Low	10.0	Precise	1	10	18	7	10.3	32.0	2.1	18	10	7	32.0	10.3	2.1	2	0.708	0.001	L	18	32.0	670.157	672.089	672.797	672.799	0
1	22102502	216	Low	10.0	Vague	2	15	17	25	6.7	50.1	1.5	15	25	17	6.7	1.5	50.1	2	0.535	0.000	R	17	50.1	673.302	675.645	676.180	676.183	0
1	22102502	217	Low	10.0	Precise	1	18	17	4	32.0	50.1	1.4	18	4	17	32.0	1.4	50.1	2	0.540	0.001	R	17	50.1	676.686	679.585	680.125	680.127	0
1	22102502	218	Low	10.0	Vague	2	12	17	25	9.5	50.1	1.5	12	25	17	9.5	1.5	50.1	2	0.813	0.001	R	17	50.1	680.629	681.279	682.093	682.095	0
1	22102502	219	Low	10.0	Precise	1	12	17	2	9.5	50.1	0.7	12	2	17	9.5	0.7	50.1	2	0.443	0.001	R	17	50.1	682.598	685.201	685.645	685.647	0
1	22102502	220	Low	10.0	Vague	2	15	12	21	6.7	9.5	0.9	15	12	21	6.7	9.5	0.9	1	1.485	0.000	L	15	6.7	686.150	688.279	689.764	689.767	0
1	22102502	221	Low	10.0	Precise	1	9	17	11	9.7	50.1	1.0	11	9	17	1.0	9.7	50.1	2	0.461	0.000	R	17	50.1	690.270	692.432	692.892	692.895	0
1	22102502	222	Low	10.0	Precise	1	9	17	13	9.7	50.1	2.6	17	13	9	50.1	2.6	9.7	2	0.467	0.000	L	17	50.1	693.398	696.185	696.652	696.655	0
1	22102502	223	Low	10.0	Vague	2	12	9	21	9.5	9.7	0.9	9	12	21	9.7	9.5	0.9	2	0.744	0.001	L	9	9.7	697.157	698.516	699.260	699.263	0
1	22102502	224	Low	10.0	Vague	2	9	10	21	9.7	10.3	0.9	10	21	9	10.3	0.9	9.7	1	0.619	0.001	R	9	9.7	699.765	701.081	701.700	701.703	0
1	22102502	225	Low	10.0	Precise	1	9	17	16	9.7	50.1	4.2	17	16	9	50.1	4.2	9.7	2	0.676	0.000	L	17	50.1	702.205	703.864	704.540	704.543	0
1	22102502	226	Low	10.0	Precise	1	10	17	11	10.3	50.1	1.0	10	17	11	10.3	50.1	1.0	2	0.830	0.001	D	17	50.1	705.045	706.815	707.645	707.647	0
1	22102502	227	Low	10.0	Precise	1	12	9	4	9.5	9.7	1.4	9	12	4	9.7	9.5	1.4	2	0.608	0.001	L	9	9.7	708.150	709.885	710.493	710.495	0
1	22102502	228	Low	10.0	Precise	1	12	9	13	9.5	9.7	2.6	12	9	13	9.5	9.7	2.6	2	1.764	0.001	D	9	9.7	710.998	713.449	715.213	715.215	0
1	22102502	229	Low	10.0	Precise	1	15	10	11	6.7	10.3	1.0	15	10	11	6.7	10.3	1.0	2	1.057	0.000	D	10	10.3	715.717	717.699	718.756	718.759	0
1	22102502	230	Low	10.0	Vague	2	12	18	25	9.5	32.0	1.5	25	18	12	1.5	32.0	9.5	2	0.774	0.000	D	18	32.0	719.261	720.502	721.276	721.279	0
1	22102502	231	Low	10.0	Vague	2	15	18	31	6.7	32.0	3.4	18	15	31	32.0	6.7	3.4	2	0.965	0.001	L	18	32.0	721.781	722.976	723.941	723.943	0
1	22102502	232	Low	10.0	Precise	1	9	10	7	9.7	10.3	2.1	10	9	7	10.3	9.7	2.1	2	1.263	0.000	L	10	10.3	724.446	725.725	726.988	726.991	0
1	22102502	233	Low	10.0	Vague	2	9	17	25	9.7	50.1	1.5	25	9	17	1.5	9.7	50.1	2	0.675	0.001	R	17	50.1	727.493	730.209	730.885	730.887	0
1	22102502	234	Low	10.0	Vague	2	12	9	19	9.5	9.7	0.8	12	9	19	9.5	9.7	0.8	2	0.862	0.001	D	9	9.7	731.390	734.142	735.005	735.007	0
1	22102502	235	Low	10.0	Vague	2	12	10	19	9.5	10.3	0.8	12	19	10	9.5	0.8	10.3	2	0.645	0.001	R	10	10.3	735.510	736.520	737.165	737.167	0
1	22102502	236	Low	10.0	Vague	2	9	18	31	9.7	32.0	3.4	9	31	18	9.7	3.4	32.0	2	0.881	0.001	R	18	32.0	737.670	740.379	741.261	741.263	0
1	22102502	237	Low	10.0	Vague	2	15	9	21	6.7	9.7	0.9	9	21	15	9.7	0.9	6.7	2	0.729	0.001	L	9	9.7	741.767	743.987	744.717	744.719	0
1	22102502	238	Low	10.0	Precise	1	10	17	7	10.3	50.1	2.1	17	10	7	50.1	10.3	2.1	2	0.513	0.000	L	17	50.1	745.221	746.564	747.077	747.079	0
1	22102502	239	Low	10.0	Precise	1	18	17	13	32.0	50.1	2.6	13	18	17	2.6	32.0	50.1	2	0.497	0.001	R	17	50.1	747.581	748.396	748.893	748.895	0
1	22102502	240	Low	10.0	Precise	1	9	18	2	9.7	32.0	0.7	18	2	9	32.0	0.7	9.7	2	1.097	0.001	L	18	32.0	749.398	751.979	753.076	753.079	0
1	22102502	241	Low	10.0	Precise	1	15	9	2	6.7	9.7	0.7	15	9	2	6.7	9.7	0.7	2	1.934	0.000	D	9	9.7	757.607	758.310	760.245	760.247	0
1	22102502	242	Low	10.0	Vague	2	15	17	31	6.7	50.1	3.4	17	31	15	50.1	3.4	6.7	2	0.578	0.001	L	17	50.1	760.750	762.963	763.541	763.543	0
1	22102502	243	Low	10.0	Precise	1	12	18	16	9.5	32.0	4.2	12	16	18	9.5	4.2	32.0	2	0.620	0.001	R	18	32.0	764.046	765.864	766.485	766.487	0
1	22102502	244	Low	10.0	Vague	2	12	18	31	9.5	32.0	3.4	12	18	31	9.5	32.0	3.4	2	0.729	0.001	D	18	32.0	766.989	769.980	770.709	770.711	0
1	22102502	245	Low	10.0	Vague	2	12	9	25	9.5	9.7	1.5	9	12	25	9.7	9.5	1.5	2	0.604	0.000	L	9	9.7	771.213	773.056	773.660	773.663	0
1	22102502	246	Low	10.0	Precise	1	9	10	11	9.7	10.3	1.0	10	11	9	10.3	1.0	9.7	2	1.023	0.001	L	10	10.3	774.165	774.789	775.813	775.815	0
1	22102502	247	Low	10.0	Precise	1	12	17	13	9.5	50.1	2.6	12	13	17	9.5	2.6	50.1	2	0.517	0.000	R	17	50.1	776.317	777.488	778.004	778.007	0
1	22102502	248	Low	10.0	Precise	1	15	18	11	6.7	32.0	1.0	15	11	18	6.7	1.0	32.0	2	0.964	0.001	R	18	32.0	778.510	781.353	782.317	782.319	0
1	22102502	249	Low	10.0	Vague	2	12	10	31	9.5	10.3	3.4	10	31	12	10.3	3.4	9.5	2	0.793	0.000	L	10	10.3	782.822	783.387	784.180	784.183	0
1	22102502	250	Low	10.0	Vague	2	15	12	28	6.7	9.5	4.3	12	15	28	9.5	6.7	4.3	1	1.457	0.001	D	15	6.7	784.686	787.451	788.909	788.911	0
1	22102502	251	Low	10.0	Vague	2	9	10	31	9.7	10.3	3.4	31	10	9	3.4	10.3	9.7	2	1.037	0.001	D	10	10.3	789.414	792.336	793.373	793.375	0
1	22102502	252	Low	10.0	Vague	2	15	17	28	6.7	50.1	4.3	15	28	17	6.7	4.3	50.1	2	0.521	0.001	R	17	50.1	793.878	795.123	795.645	795.647	0
1	22102502	253	Low	10.0	Precise	1	15	10	16	6.7	10.3	4.2	10	15	16	10.3	6.7	4.2	2	0.832	0.000	L	10	10.3	796.150	797.860	798.692	798.695	0
1	22102502	254	Low	10.0	Precise	1	15	9	4	6.7	9.7	1.4	4	9	15	1.4	9.7	6.7	2	2.027	0.001	D	9	9.7	799.197	800.473	802.501	802.503	0
1	22102502	255	Low	10.0	Precise	1	12	18	13	9.5	32.0	2.6	12	13	18	9.5	2.6	32.0	2	0.743	0.001	R	18	32.0	803.006	803.949	804.693	804.695	0
1	22102502	256	Low	10.0	Vague	2	15	10	25	6.7	10.3	1.5	25	15	10	1.5	6.7	10.3	2	0.883	0.001	R	10	10.3	805.197	806.010	806.893	806.895	0
1	22102502	257	Low	10.0	Vague	2	9	10	28	9.7	10.3	4.3	10	28	9	10.3	4.3	9.7	2	0.852	0.001	L	10	10.3	807.398	809.057	809.909	809.911	0
1	22102502	258	Low	10.0	Precise	1	15	9	7	6.7	9.7	2.1	9	7	15	9.7	2.1	6.7	2	1.656	0.001	L	9	9.7	810.414	813.269	814.925	814.927	0
1	22102502	259	Low	10.0	Vague	2	10	17	32	10.3	50.1	2.5	32	17	10	2.5	50.1	10.3	2	1.341	0.001	D	17	50.1	815.430	817.767	819.109	819.111	0
1	22102502	260	Low	10.0	Vague	2	10	18	32	10.3	32.0	2.5	32	18	10	2.5	32.0	10.3	1	0.735	0.000	R	10	10.3	819.614	820.581	821.316	821.319	0
1	22102502	261	Low	10.0	Precise	1	15	10	4	6.7	10.3	1.4	10	15	4	10.3	6.7	1.4	2	0.756	0.000	L	10	10.3	821.821	823.056	823.812	823.815	0
1	22102502	262	Low	10.0	Precise	1	15	10	2	6.7	10.3	0.7	2	15	10	0.7	6.7	10.3	2	1.200	0.001	R	10	10.3	824.318	826.525	827.725	827.727	0
1	22102502	263	Low	10.0	Precise	1	18	17	16	32.0	50.1	4.2	18	16	17	32.0	4.2	50.1	2	0.645	0.000	R	17	50.1	828.229	829.055	829.700	829.703	0
1	22102502	264	Low	10.0	Vague	2	9	18	19	9.7	32.0	0.8	18	9	19	32.0	9.7	0.8	2	0.695	0.001	L	18	32.0	830.205	831.798	832.493	832.495	0
1	22102502	265	Low	10.0	Precise	1	9	10	4	9.7	10.3	1.4	4	9	10	1.4	9.7	10.3	2	0.717	0.001	R	10	10.3	832.997	834.856	835.573	835.575	0
1	22102502	266	Low	10.0	Vague	2	15	9	19	6.7	9.7	0.8	9	19	15	9.7	0.8	6.7	2	0.941	0.000	L	9	9.7	836.078	836.680	837.621	837.623	0
1	22102502	267	Low	10.0	Precise	1	12	10	7	9.5	10.3	2.1	12	7	10	9.5	2.1	10.3	2	0.693	0.001	R	10	10.3	838.126	839.560	840.253	840.255	0
1	22102502	268	Low	10.0	Precise	1	12	10	16	9.5	10.3	4.2	12	16	10	9.5	4.2	10.3	2	0.505	0.001	R	10	10.3	840.758	841.523	842.029	842.031	0
1	22102502	269	Low	10.0	Vague	2	15	10	19	6.7	10.3	0.8	15	19	10	6.7	0.8	10.3	2	0.630	0.001	R	10	10.3	842.534	844.887	845.517	845.519	0
1	22102502	270	Low	10.0	Precise	1	15	12	16	6.7	9.5	4.2	12	15	16	9.5	6.7	4.2	1	2.731	0.000	D	15	6.7	846.022	847.834	850.565	850.567	0
1	22102502	271	Low	10.0	Vague	2	15	10	28	6.7	10.3	4.3	28	10	15	4.3	10.3	6.7	2	0.949	0.001	D	10	10.3	851.070	853.472	854.421	854.423	0
1	22102502	272	Low	10.0	Precise	1	15	17	4	6.7	50.1	1.4	17	4	15	50.1	1.4	6.7	2	0.564	0.000	L	17	50.1	854.926	856.136	856.700	856.704	0
1	22102502	273	Low	10.0	Vague	2	12	9	28	9.5	9.7	4.3	12	28	9	9.5	4.3	9.7	2	1.787	0.000	R	9	9.7	857.206	858.602	860.389	860.391	0
1	22102502	274	Low	10.0	Vague	2	9	10	25	9.7	10.3	1.5	25	9	10	1.5	9.7	10.3	2	0.634	0.000	R	10	10.3	860.894	862.931	863.564	863.567	0
1	22102502	275	Low	10.0	Precise	1	10	17	4	10.3	50.1	1.4	17	4	10	50.1	1.4	10.3	2	0.666	0.000	L	17	50.1	864.069	865.123	865.789	865.791	0
1	22102502	276	Low	10.0	Precise	1	18	17	7	32.0	50.1	2.1	7	17	18	2.1	50.1	32.0	2	0.676	0.000	D	17	50.1	866.293	867.433	868.109	868.111	0
1	22102502	277	Low	10.0	Vague	2	15	10	31	6.7	10.3	3.4	15	31	10	6.7	3.4	10.3	2	0.652	0.000	R	10	10.3	868.614	871.376	872.028	872.031	0
1	22102502	278	Low	10.0	Vague	2	15	17	21	6.7	50.1	0.9	17	21	15	50.1	0.9	6.7	2	0.543	0.001	L	17	50.1	872.534	873.406	873.949	873.951	0
1	22102502	279	Low	10.0	Precise	1	9	10	2	9.7	10.3	0.7	9	2	10	9.7	0.7	10.3	2	0.876	0.000	R	10	10.3	874.454	876.544	877.420	877.423	0
1	22102502	280	Low	10.0	Vague	2	9	18	25	9.7	32.0	1.5	18	25	9	32.0	1.5	9.7	2	0.976	0.001	L	18	32.0	877.926	880.077	881.053	881.056	0
1	22102502	281	Low	10.0	Vague	2	15	18	32	6.7	32.0	2.5	18	15	32	32.0	6.7	2.5	2	0.726	0.001	L	18	32.0	881.559	883.127	883.853	883.855	0
1	22102502	282	Low	10.0	Precise	1	15	18	2	6.7	32.0	0.7	15	2	18	6.7	0.7	32.0	2	0.556	0.000	R	18	32.0	884.357	887.192	887.748	887.751	0
1	22102502	283	Low	10.0	Vague	2	9	17	28	9.7	50.1	4.3	28	9	17	4.3	9.7	50.1	2	0.554	0.000	R	17	50.1	888.254	890.042	890.596	890.599	0
1	22102502	284	Low	10.0	Precise	1	15	17	16	6.7	50.1	4.2	15	17	16	6.7	50.1	4.2	2	0.600	0.001	D	17	50.1	891.102	892.061	892.661	892.663	0
1	22102502	285	Low	10.0	Precise	1	9	17	7	9.7	50.1	2.1	17	7	9	50.1	2.1	9.7	2	0.478	0.000	L	17	50.1	893.167	895.998	896.477	896.479	0
1	22102502	286	Low	10.0	Vague	2	9	17	19	9.7	50.1	0.8	9	19	17	9.7	0.8	50.1	2	0.530	0.001	R	17	50.1	896.981	899.834	900.365	900.367	0
1	22102502	287	Low	10.0	Precise	1	9	18	16	9.7	32.0	4.2	18	9	16	32.0	9.7	4.2	2	0.638	0.000	L	18	32.0	900.870	901.494	902.133	902.135	0
1	22102502	288	Low	10.0	Vague	2	18	17	25	32.0	50.1	1.5	18	17	25	32.0	50.1	1.5	2	0.674	0.000	D	17	50.1	902.638	903.426	904.101	904.103	0
1	22102502	289	Low	10.0	Precise	1	9	18	4	9.7	32.0	1.4	18	4	9	32.0	1.4	9.7	2	0.574	0.000	L	18	32.0	904.607	905.303	905.876	905.879	0
1	22102502	290	Low	10.0	Vague	2	10	17	31	10.3	50.1	3.4	17	31	10	50.1	3.4	10.3	2	0.468	0.001	L	17	50.1	906.382	907.016	907.485	907.487	0
1	22102502	291	Low	10.0	Vague	2	15	18	25	6.7	32.0	1.5	25	15	18	1.5	6.7	32.0	2	0.487	0.001	R	18	32.0	907.990	909.182	909.669	909.671	0
1	22102502	292	Low	10.0	Vague	2	9	10	19	9.7	10.3	0.8	9	10	19	9.7	10.3	0.8	1	0.607	0.000	L	9	9.7	910.175	912.853	913.460	913.463	0
1	22102502	293	Low	10.0	Precise	1	9	18	11	9.7	32.0	1.0	9	18	11	9.7	32.0	1.0	1	0.707	0.000	L	9	9.7	913.966	915.673	916.380	916.383	0
1	22102502	294	Low	10.0	Precise	1	15	10	7	6.7	10.3	2.1	15	7	10	6.7	2.1	10.3	2	1.096	0.000	R	10	10.3	916.886	918.052	919.148	919.151	0
1	22102502	295	Low	10.0	Vague	2	10	17	28	10.3	50.1	4.3	28	10	17	4.3	10.3	50.1	2	0.656	0.000	R	17	50.1	919.654	922.124	922.780	922.783	0
1	22102502	296	Low	10.0	Precise	1	15	12	7	6.7	9.5	2.1	7	15	12	2.1	6.7	9.5	1	1.695	0.000	D	15	6.7	923.286	925.246	926.940	926.943	0
1	22102502	297	Low	10.0	Vague	2	10	18	21	10.3	32.0	0.9	10	21	18	10.3	0.9	32.0	2	0.696	0.001	R	18	32.0	927.446	929.381	930.077	930.079	0
1	22102502	298	Low	10.0	Precise	1	12	18	11	9.5	32.0	1.0	18	11	12	32.0	1.0	9.5	2	0.823	0.001	L	18	32.0	930.582	933.014	933.837	933.839	0
1	22102502	299	Low	10.0	Precise	1	15	12	4	6.7	9.5	1.4	15	12	4	6.7	9.5	1.4	1	1.552	0.000	L	15	6.7	934.341	936.725	938.277	938.279	0
1	22102502	300	Low	10.0	Precise	1	9	10	16	9.7	10.3	4.2	16	10	9	4.2	10.3	9.7	2	0.901	0.001	D	10	10.3	938.781	940.904	941.805	941.807	0
1	22102502	301	Low	10.0	Vague	2	12	17	28	9.5	50.1	4.3	28	12	17	4.3	9.5	50.1	2	0.585	0.000	R	17	50.1	948.023	949.843	950.429	950.431	0
1	22102502	302	Low	10.0	Vague	2	12	17	21	9.5	50.1	0.9	17	12	21	50.1	9.5	0.9	2	0.539	0.001	L	17	50.1	950.935	952.994	953.533	953.535	0
1	22102502	303	Low	10.0	Precise	1	15	9	13	6.7	9.7	2.6	13	9	15	2.6	9.7	6.7	2	1.246	0.000	D	9	9.7	954.038	956.887	958.133	958.135	0
1	22102502	304	Low	10.0	Precise	1	9	17	4	9.7	50.1	1.4	4	9	17	1.4	9.7	50.1	2	1.053	0.001	R	17	50.1	958.638	959.136	960.189	960.191	0
1	22102502	305	Low	10.0	Vague	2	15	9	28	6.7	9.7	4.3	15	28	9	6.7	4.3	9.7	2	1.491	0.001	R	9	9.7	960.694	961.394	962.885	962.887	0
1	22102502	306	Low	10.0	Precise	1	12	9	7	9.5	9.7	2.1	7	12	9	2.1	9.5	9.7	2	0.612	0.000	R	9	9.7	963.390	965.113	965.725	965.727	0
1	22102502	307	Low	10.0	Vague	2	15	18	28	6.7	32.0	4.3	28	18	15	4.3	32.0	6.7	2	0.840	0.001	D	18	32.0	966.230	968.300	969.141	969.143	0
1	22102502	308	Low	10.0	Vague	2	12	17	31	9.5	50.1	3.4	17	12	31	50.1	9.5	3.4	2	0.495	0.000	L	17	50.1	969.646	970.757	971.252	971.256	0
1	22102502	309	Low	10.0	Precise	1	12	18	4	9.5	32.0	1.4	12	18	4	9.5	32.0	1.4	2	0.776	0.001	D	18	32.0	971.758	972.989	973.765	973.767	0
1	22102502	310	Low	10.0	Vague	2	12	10	21	9.5	10.3	0.9	12	10	21	9.5	10.3	0.9	2	0.985	0.000	D	10	10.3	974.269	975.044	976.029	976.031	0
1	22102502	311	Low	10.0	Precise	1	15	9	16	6.7	9.7	4.2	15	9	16	6.7	9.7	4.2	2	0.937	0.001	D	9	9.7	976.534	978.180	979.117	979.119	0
1	22102502	312	Low	10.0	Precise	1	15	17	13	6.7	50.1	2.6	13	15	17	2.6	6.7	50.1	2	0.961	0.001	R	17	50.1	979.622	980.532	981.493	981.495	0
1	22102502	313	Low	10.0	Vague	2	9	17	32	9.7	50.1	2.5	9	17	32	9.7	50.1	2.5	2	0.622	0.000	D	17	50.1	981.998	983.806	984.429	984.431	0
1	22102502	314	Low	10.0	Precise	1	10	18	16	10.3	32.0	4.2	10	16	18	10.3	4.2	32.0	2	0.490	0.001	R	18	32.0	984.934	987.394	987.885	987.887	0
1	22102502	315	Low	10.0	Precise	1	12	10	13	9.5	10.3	2.6	12	10	13	9.5	10.3	2.6	2	0.707	0.000	D	10	10.3	988.389	990.746	991.453	991.455	0
1	22102502	316	Low	10.0	Vague	2	15	10	21	6.7	10.3	0.9	21	10	15	0.9	10.3	6.7	2	0.820	0.001	D	10	10.3	991.958	994.065	994.885	994.887	0
1	22102502	317	Low	10.0	Precise	1	15	17	11	6.7	50.1	1.0	11	17	15	1.0	50.1	6.7	2	0.543	0.000	D	17	50.1	995.391	995.966	996.509	996.511	0
1	22102502	318	Low	10.0	Vague	2	9	17	31	9.7	50.1	3.4	9	31	17	9.7	3.4	50.1	2	0.660	0.001	R	17	50.1	997.014	997.649	998.309	998.311	0
1	22102502	319	Low	10.0	Vague	2	15	17	19	6.7	50.1	0.8	15	19	17	6.7	0.8	50.1	2	0.641	0.000	R	17	50.1	998.814	1001.715	1002.357	1002.359	0
1	22102502	320	Low	10.0	Precise	1	15	12	13	6.7	9.5	2.6	13	15	12	2.6	6.7	9.5	1	1.386	0.000	D	15	6.7	1002.862	1005.227	1006.613	1006.615	0
1	22102502	321	Low	10.0	Vague	2	12	18	19	9.5	32.0	0.8	19	18	12	0.8	32.0	9.5	2	0.635	0.001	D	18	32.0	1007.118	1009.666	1010.301	1010.303	0
1	22102502	322	Low	10.0	Precise	1	12	10	2	9.5	10.3	0.7	2	10	12	0.7	10.3	9.5	2	0.621	0.001	D	10	10.3	1010.806	1012.224	1012.845	1012.847	0
1	22102502	323	Low	10.0	Precise	1	12	10	11	9.5	10.3	1.0	12	11	10	9.5	1.0	10.3	2	1.057	0.001	R	10	10.3	1013.350	1015.964	1017.021	1017.023	0
1	22102502	324	Low	10.0	Precise	1	15	18	13	6.7	32.0	2.6	13	15	18	2.6	6.7	32.0	2	0.635	0.001	R	18	32.0	1017.526	1018.346	1018.981	1018.983	0
1	22102502	325	Low	10.0	Precise	1	9	10	13	9.7	10.3	2.6	13	9	10	2.6	9.7	10.3	2	0.680	0.000	R	10	10.3	1019.486	1020.100	1020.781	1020.783	0
1	22102502	326	Low	10.0	Vague	2	15	10	32	6.7	10.3	2.5	10	15	32	10.3	6.7	2.5	2	1.287	0.001	L	10	10.3	1021.286	1022.390	1023.677	1023.679	0
1	22102502	327	Low	10.0	Vague	2	15	17	32	6.7	50.1	2.5	32	15	17	2.5	6.7	50.1	2	0.465	0.001	R	17	50.1	1024.182	1026.451	1026.917	1026.919	0
1	22102502	328	Low	10.0	Vague	2	12	18	21	9.5	32.0	0.9	21	18	12	0.9	32.0	9.5	2	0.665	0.000	D	18	32.0	1027.422	1028.636	1029.301	1029.303	0
1	22102502	329	Low	10.0	Vague	2	12	9	31	9.5	9.7	3.4	31	12	9	3.4	9.5	9.7	2	0.805	0.000	R	9	9.7	1029.807	1030.848	1031.653	1031.655	0
1	22102502	330	Low	10.0	Vague	2	15	12	19	6.7	9.5	0.8	15	19	12	6.7	0.8	9.5	1	2.038	0.000	L	15	6.7	1032.159	1032.951	1034.989	1034.991	0
1	22102502	331	Low	10.0	Precise	1	12	9	16	9.5	9.7	4.2	9	16	12	9.7	4.2	9.5	2	0.681	0.001	L	9	9.7	1035.493	1037.756	1038.437	1038.439	0
1	22102502	332	Low	10.0	Vague	2	15	12	31	6.7	9.5	3.4	12	31	15	9.5	3.4	6.7	1	1.317	0.000	R	15	6.7	1038.942	1040.936	1042.253	1042.255	0
1	22102502	333	Low	10.0	Vague	2	12	10	25	9.5	10.3	1.5	10	25	12	10.3	1.5	9.5	2	0.727	0.000	L	10	10.3	1042.757	1045.710	1046.437	1046.439	0
1	22102502	334	Low	10.0	Vague	2	12	17	32	9.5	50.1	2.5	12	32	17	9.5	2.5	50.1	2	0.502	0.001	R	17	50.1	1046.943	1049.503	1050.005	1050.007	0
1	22102502	335	Low	10.0	Vague	2	10	17	25	10.3	50.1	1.5	10	25	17	10.3	1.5	50.1	2	0.521	0.000	R	17	50.1	1050.509	1052.676	1053.197	1053.199	0
1	22102502	336	Low	10.0	Precise	1	12	10	4	9.5	10.3	1.4	10	4	12	10.3	1.4	9.5	2	0.819	0.001	L	10	10.3	1053.701	1056.498	1057.317	1057.319	0
1	22102502	337	Low	10.0	Vague	2	18	17	28	32.0	50.1	4.3	18	28	17	32.0	4.3	50.1	2	0.459	0.001	R	17	50.1	1057.822	1059.890	1060.349	1060.352	0
1	22102502	338	Low	10.0	Precise	1	10	17	16	10.3	50.1	4.2	16	17	10	4.2	50.1	10.3	2	0.649	0.001	D	17	50.1	1060.854	1062.668	1063.317	1063.319	0
1	22102502	339	Low	10.0	Precise	1	9	18	7	9.7	32.0	2.1	7	9	18	2.1	9.7	32.0	2	0.549	0.000	R	18	32.0	1063.822	1065.688	1066.237	1066.239	0
1	22102502	340	Low	10.0	Vague	2	9	17	21	9.7	50.1	0.9	9	21	17	9.7	0.9	50.1	2	0.636	0.000	R	17	50.1	1066.742	1068.993	1069.629	1069.631	0
1	22102502	341	Low	10.0	Vague	2	12	9	32	9.5	9.7	2.5	32	12	9	2.5	9.5	9.7	2	1.460	0.000	R	9	9.7	1070.133	1071.473	1072.933	1072.935	0
1	22102502	342	Low	10.0	Vague	2	12	10	32	9.5	10.3	2.5	12	32	10	9.5	2.5	10.3	2	1.277	0.001	R	10	10.3	1073.437	1075.056	1076.333	1076.335	0
1	22102502	343	Low	10.0	Precise	1	12	17	4	9.5	50.1	1.4	12	4	17	9.5	1.4	50.1	2	0.435	0.001	R	17	50.1	1076.839	1079.826	1080.261	1080.263	0
1	22102502	344	Low	10.0	Vague	2	15	9	25	6.7	9.7	1.5	9	15	25	9.7	6.7	1.5	2	0.674	0.001	L	9	9.7	1080.766	1083.683	1084.357	1084.359	0
1	22102502	345	Low	10.0	Precise	1	18	17	11	32.0	50.1	1.0	18	17	11	32.0	50.1	1.0	1	0.723	0.001	L	18	32.0	1084.862	1087.330	1088.053	1088.055	0
1	22102502	346	Low	10.0	Vague	2	12	17	19	9.5	50.1	0.8	12	19	17	9.5	0.8	50.1	2	0.451	0.001	R	17	50.1	1088.558	1090.666	1091.117	1091.119	0
1	22102502	347	Low	10.0	Precise	1	15	9	11	6.7	9.7	1.0	15	9	11	6.7	9.7	1.0	2	1.043	0.001	D	9	9.7	1091.622	1093.730	1094.773	1094.775	0
1	22102502	348	Low	10.0	Vague	2	9	18	32	9.7	32.0	2.5	32	9	18	2.5	9.7	32.0	2	0.590	0.000	R	18	32.0	1095.278	1098.063	1098.653	1098.655	0
1	22102502	349	Low	10.0	Vague	2	15	9	31	6.7	9.7	3.4	9	15	31	9.7	6.7	3.4	2	1.075	0.001	L	9	9.7	1099.158	1101.466	1102.541	1102.543	0
1	22102502	350	Low	10.0	Vague	2	10	17	19	10.3	50.1	0.8	10	19	17	10.3	0.8	50.1	2	0.545	0.001	R	17	50.1	1103.047	1103.588	1104.133	1104.135	0
1	22102502	351	Low	10.0	Vague	2	9	18	28	9.7	32.0	4.3	18	9	28	32.0	9.7	4.3	2	0.877	0.001	L	18	32.0	1104.639	1106.472	1107.349	1107.352	0
1	22102502	352	Low	10.0	Precise	1	15	18	16	6.7	32.0	4.2	15	18	16	6.7	32.0	4.2	2	0.717	0.001	D	18	32.0	1107.854	1109.432	1110.149	1110.151	0
1	22102502	353	Low	10.0	Vague	2	10	18	31	10.3	32.0	3.4	31	10	18	3.4	10.3	32.0	2	0.572	0.001	R	18	32.0	1110.654	1111.545	1112.117	1112.119	0
1	22102502	354	Low	10.0	Vague	2	10	18	28	10.3	32.0	4.3	18	10	28	32.0	10.3	4.3	2	0.532	0.000	L	18	32.0	1112.623	1113.745	1114.277	1114.279	0
1	22102502	355	Low	10.0	Precise	1	12	17	7	9.5	50.1	2.1	7	12	17	2.1	9.5	50.1	2	0.540	0.001	R	17	50.1	1114.782	1117.665	1118.205	1118.207	0
1	22102502	356	Low	10.0	Precise	1	18	17	2	32.0	50.1	0.7	18	2	17	32.0	0.7	50.1	2	0.579	0.001	R	17	50.1	1118.711	1120.106	1120.685	1120.687	0
1	22102502	357	Low	10.0	Vague	2	15	12	25	6.7	9.5	1.5	12	25	15	9.5	1.5	6.7	1	2.618	0.001	R	15	6.7	1121.190	1122.467	1125.085	1125.087	0
1	22102502	358	Low	10.0	Vague	2	15	9	32	6.7	9.7	2.5	9	32	15	9.7	2.5	6.7	2	1.158	0.000	L	9	9.7	1125.590	1127.967	1129.125	1129.127	0
1	22102502	359	Low	10.0	Precise	1	12	18	7	9.5	32.0	2.1	18	12	7	32.0	9.5	2.1	2	0.624	0.000	L	18	32.0	1129.631	1130.604	1131.229	1131.231	0
1	22102502	360	Low	10.0	Vague	2	18	17	21	32.0	50.1	0.9	21	17	18	0.9	50.1	32.0	2	0.865	0.001	D	17	50.1	1131.735	1133.028	1133.893	1133.895	0
