Group	subID	trial	TimePressure	TimeConstraint	Vagueness	Vaguenesscode	ID1	ID2	ID3	V1	V2	V3	ID_left	ID_middle	ID_right	Bid_left	Bid_middle	Bid_right	chosenItem	RT	RTvariance	chosenPosition	chosenID	chosenValue	fixation_time	option_time	choice_time	feedback_time	timeout
2	22110306	1	High	1.5	Precise	1	21	29	25	1.6	10.5	0.0	29	25	21	10.5	0.0	1.6	2	0.828	0.001	L	29	10.5	12.059	14.011	14.839	14.843	0
2	22110306	2	High	1.5	Vague	2	27	29	14	3.0	10.5	3.4	29	27	14	10.5	3.0	3.4	NaN	NaN	NaN	NaN	NaN	NaN	15.348	17.900	NaN	19.390	1
2	22110306	3	High	1.5	Vague	2	26	27	5	0.0	3.0	0.0	26	5	27	0.0	0.0	3.0	NaN	NaN	NaN	NaN	NaN	NaN	21.394	23.293	NaN	24.779	1
2	22110306	4	High	1.5	Precise	1	27	29	30	3.0	10.5	0.0	29	30	27	10.5	0.0	3.0	3	0.984	0.001	D	30	0.0	26.784	27.704	28.687	28.690	0
2	22110306	5	High	1.5	Precise	1	26	20	35	0.0	4.7	0.0	35	20	26	0.0	4.7	0.0	1	1.337	0.001	R	26	0.0	29.195	30.166	31.503	31.508	0
2	22110306	6	High	1.5	Precise	1	21	34	35	1.6	10.4	0.0	35	21	34	0.0	1.6	10.4	1	1.011	0.001	D	21	1.6	32.013	33.316	34.327	34.330	0
2	22110306	7	High	1.5	Precise	1	21	29	35	1.6	10.5	0.0	21	29	35	1.6	10.5	0.0	2	0.835	0.001	D	29	10.5	34.833	37.068	37.903	37.906	0
2	22110306	8	High	1.5	Precise	1	20	29	30	4.7	10.5	0.0	30	20	29	0.0	4.7	10.5	1	1.223	0.001	D	20	4.7	38.409	39.912	41.135	41.138	0
2	22110306	9	High	1.5	Vague	2	26	27	10	0.0	3.0	0.0	10	26	27	0.0	0.0	3.0	1	1.288	0.001	D	26	0.0	41.641	43.320	44.607	44.610	0
2	22110306	10	High	1.5	Vague	2	21	29	8	1.6	10.5	5.9	8	21	29	5.9	1.6	10.5	2	1.363	0.001	R	29	10.5	45.112	46.628	47.991	47.993	0
2	22110306	11	High	1.5	Vague	2	26	29	6	0.0	10.5	0.0	29	6	26	10.5	0.0	0.0	NaN	NaN	NaN	NaN	NaN	NaN	48.496	51.007	NaN	52.494	1
2	22110306	12	High	1.5	Vague	2	21	34	14	1.6	10.4	3.4	34	14	21	10.4	3.4	1.6	1	0.932	0.000	R	21	1.6	54.498	57.018	57.951	57.955	0
2	22110306	13	High	1.5	Precise	1	26	34	32	0.0	10.4	0.0	26	32	34	0.0	0.0	10.4	3	1.223	0.001	D	32	0.0	58.459	58.993	60.215	60.218	0
2	22110306	14	High	1.5	Precise	1	34	29	32	10.4	10.5	0.0	29	32	34	10.5	0.0	10.4	NaN	NaN	NaN	NaN	NaN	NaN	60.721	63.453	NaN	64.940	1
2	22110306	15	High	1.5	Precise	1	26	34	35	0.0	10.4	0.0	26	34	35	0.0	10.4	0.0	2	0.851	0.001	D	34	10.4	66.943	68.468	69.319	69.322	0
2	22110306	16	High	1.5	Precise	1	27	29	23	3.0	10.5	0.0	29	23	27	10.5	0.0	3.0	3	0.854	0.001	D	23	0.0	69.825	71.217	72.071	72.074	0
2	22110306	17	High	1.5	Vague	2	27	34	10	3.0	10.4	0.0	10	27	34	0.0	3.0	10.4	2	0.710	0.000	R	34	10.4	72.576	75.201	75.911	75.913	0
2	22110306	18	High	1.5	Vague	2	21	20	10	1.6	4.7	0.0	10	21	20	0.0	1.6	4.7	NaN	NaN	NaN	NaN	NaN	NaN	76.416	78.042	NaN	79.530	1
2	22110306	19	High	1.5	Vague	2	21	34	10	1.6	10.4	0.0	10	34	21	0.0	10.4	1.6	1	0.795	0.001	R	21	1.6	81.534	82.620	83.415	83.417	0
2	22110306	20	High	1.5	Vague	2	27	34	5	3.0	10.4	0.0	27	5	34	3.0	0.0	10.4	1	0.706	0.000	L	27	3.0	83.921	84.973	85.679	85.682	0
2	22110306	21	High	1.5	Precise	1	27	34	32	3.0	10.4	0.0	27	32	34	3.0	0.0	10.4	3	0.896	0.001	D	32	0.0	86.184	88.447	89.343	89.346	0
2	22110306	22	High	1.5	Precise	1	26	27	35	0.0	3.0	0.0	27	35	26	3.0	0.0	0.0	2	1.058	0.001	L	27	3.0	89.848	90.486	91.543	91.546	0
2	22110306	23	High	1.5	Vague	2	20	34	6	4.7	10.4	0.0	34	20	6	10.4	4.7	0.0	1	0.930	0.001	D	20	4.7	92.048	92.565	93.495	93.498	0
2	22110306	24	High	1.5	Precise	1	26	29	23	0.0	10.5	0.0	23	26	29	0.0	0.0	10.5	3	0.753	0.000	L	23	0.0	94.002	94.703	95.455	95.458	0
2	22110306	25	High	1.5	Precise	1	26	34	25	0.0	10.4	0.0	34	25	26	10.4	0.0	0.0	3	1.261	0.000	D	25	0.0	95.961	96.466	97.727	97.730	0
2	22110306	26	High	1.5	Precise	1	26	21	25	0.0	1.6	0.0	25	26	21	0.0	0.0	1.6	2	0.890	0.000	R	21	1.6	98.233	99.677	100.567	100.569	0
2	22110306	27	High	1.5	Precise	1	20	34	35	4.7	10.4	0.0	20	35	34	4.7	0.0	10.4	1	1.079	0.001	L	20	4.7	101.073	103.000	104.079	104.082	0
2	22110306	28	High	1.5	Precise	1	20	34	19	4.7	10.4	0.0	20	19	34	4.7	0.0	10.4	1	0.609	0.001	L	20	4.7	104.585	106.390	106.999	107.002	0
2	22110306	29	High	1.5	Vague	2	27	34	1	3.0	10.4	0.0	1	27	34	0.0	3.0	10.4	3	1.113	0.000	L	1	0.0	107.504	110.318	111.431	111.433	0
2	22110306	30	High	1.5	Precise	1	26	21	32	0.0	1.6	0.0	26	21	32	0.0	1.6	0.0	2	1.222	0.001	D	21	1.6	111.936	114.193	115.415	115.417	0
2	22110306	31	High	1.5	Precise	1	21	34	30	1.6	10.4	0.0	34	30	21	10.4	0.0	1.6	NaN	NaN	NaN	NaN	NaN	NaN	115.920	116.457	NaN	117.943	1
2	22110306	32	High	1.5	Vague	2	20	29	8	4.7	10.5	5.9	8	20	29	5.9	4.7	10.5	2	0.954	0.000	R	29	10.5	119.947	120.453	121.407	121.409	0
2	22110306	33	High	1.5	Precise	1	21	27	35	1.6	3.0	0.0	27	21	35	3.0	1.6	0.0	NaN	NaN	NaN	NaN	NaN	NaN	121.912	122.977	NaN	124.464	1
2	22110306	34	High	1.5	Vague	2	21	20	14	1.6	4.7	3.4	14	21	20	3.4	1.6	4.7	2	0.793	0.000	R	20	4.7	126.468	127.934	128.727	128.729	0
2	22110306	35	High	1.5	Precise	1	27	34	25	3.0	10.4	0.0	25	34	27	0.0	10.4	3.0	3	0.995	0.000	L	25	0.0	129.232	131.812	132.807	132.809	0
2	22110306	36	High	1.5	Precise	1	34	29	25	10.4	10.5	0.0	29	25	34	10.5	0.0	10.4	2	0.796	0.000	L	29	10.5	133.312	135.922	136.719	136.721	0
2	22110306	37	High	1.5	Vague	2	20	34	5	4.7	10.4	0.0	5	20	34	0.0	4.7	10.4	1	0.580	0.001	D	20	4.7	137.224	139.835	140.415	140.417	0
2	22110306	38	High	1.5	Precise	1	20	29	35	4.7	10.5	0.0	35	29	20	0.0	10.5	4.7	1	0.612	0.000	R	20	4.7	140.920	143.043	143.655	143.658	0
2	22110306	39	High	1.5	Vague	2	20	34	10	4.7	10.4	0.0	20	10	34	4.7	0.0	10.4	1	0.684	0.001	L	20	4.7	144.161	146.947	147.631	147.633	0
2	22110306	40	High	1.5	Vague	2	21	27	14	1.6	3.0	3.4	27	14	21	3.0	3.4	1.6	2	0.616	0.000	L	27	3.0	148.136	150.471	151.087	151.090	0
2	22110306	41	High	1.5	Precise	1	34	29	19	10.4	10.5	0.0	29	34	19	10.5	10.4	0.0	3	1.012	0.000	R	19	0.0	151.592	152.322	153.335	153.337	0
2	22110306	42	High	1.5	Vague	2	26	27	1	0.0	3.0	0.0	27	1	26	3.0	0.0	0.0	3	0.858	0.001	D	1	0.0	153.840	155.237	156.095	156.097	0
2	22110306	43	High	1.5	Precise	1	21	20	19	1.6	4.7	0.0	19	20	21	0.0	4.7	1.6	2	0.968	0.001	D	20	4.7	156.601	158.431	159.399	159.401	0
2	22110306	44	High	1.5	Precise	1	27	20	23	3.0	4.7	0.0	27	20	23	3.0	4.7	0.0	1	0.929	0.001	L	27	3.0	159.904	161.422	162.351	162.354	0
2	22110306	45	High	1.5	Precise	1	27	34	23	3.0	10.4	0.0	27	34	23	3.0	10.4	0.0	3	0.564	0.000	R	23	0.0	162.857	165.811	166.375	166.377	0
2	22110306	46	High	1.5	Vague	2	26	20	1	0.0	4.7	0.0	20	26	1	4.7	0.0	0.0	2	0.747	0.001	L	20	4.7	166.880	167.748	168.495	168.497	0
2	22110306	47	High	1.5	Vague	2	27	20	10	3.0	4.7	0.0	20	10	27	4.7	0.0	3.0	2	1.249	0.000	L	20	4.7	169.000	170.598	171.847	171.849	0
2	22110306	48	High	1.5	Vague	2	26	21	8	0.0	1.6	5.9	26	8	21	0.0	5.9	1.6	2	0.835	0.001	R	21	1.6	172.352	173.052	173.887	173.889	0
2	22110306	49	High	1.5	Precise	1	21	29	30	1.6	10.5	0.0	21	29	30	1.6	10.5	0.0	1	0.933	0.000	L	21	1.6	174.393	176.369	177.303	177.305	0
2	22110306	50	High	1.5	Precise	1	20	34	25	4.7	10.4	0.0	20	34	25	4.7	10.4	0.0	3	0.763	0.000	R	25	0.0	177.808	179.564	180.327	180.329	0
2	22110306	51	High	1.5	Precise	1	26	34	23	0.0	10.4	0.0	26	34	23	0.0	10.4	0.0	3	0.601	0.000	R	23	0.0	180.833	182.710	183.311	183.314	0
2	22110306	52	High	1.5	Precise	1	26	21	19	0.0	1.6	0.0	26	19	21	0.0	0.0	1.6	2	0.697	0.001	R	21	1.6	183.816	186.263	186.959	186.961	0
2	22110306	53	High	1.5	Vague	2	20	29	14	4.7	10.5	3.4	14	29	20	3.4	10.5	4.7	1	0.616	0.001	R	20	4.7	187.464	189.351	189.967	189.970	0
2	22110306	54	High	1.5	Vague	2	26	20	8	0.0	4.7	5.9	8	20	26	5.9	4.7	0.0	2	0.983	0.000	D	20	4.7	190.473	191.936	192.919	192.921	0
2	22110306	55	High	1.5	Vague	2	21	29	1	1.6	10.5	0.0	1	21	29	0.0	1.6	10.5	NaN	NaN	NaN	NaN	NaN	NaN	193.424	194.112	NaN	195.599	1
2	22110306	56	High	1.5	Precise	1	21	20	23	1.6	4.7	0.0	21	23	20	1.6	0.0	4.7	3	0.576	0.000	D	23	0.0	197.602	199.567	200.143	200.145	0
2	22110306	57	High	1.5	Vague	2	27	34	8	3.0	10.4	5.9	27	34	8	3.0	10.4	5.9	NaN	NaN	NaN	NaN	NaN	NaN	200.647	201.519	NaN	203.006	1
2	22110306	58	High	1.5	Vague	2	21	27	1	1.6	3.0	0.0	1	27	21	0.0	3.0	1.6	3	0.708	0.001	L	1	0.0	205.008	205.843	206.551	206.554	0
2	22110306	59	High	1.5	Vague	2	26	21	1	0.0	1.6	0.0	26	1	21	0.0	0.0	1.6	2	0.743	0.001	R	21	1.6	207.056	208.176	208.919	208.921	0
2	22110306	60	High	1.5	Precise	1	26	29	32	0.0	10.5	0.0	29	26	32	10.5	0.0	0.0	2	0.827	0.001	L	29	10.5	209.424	212.084	212.911	212.913	0
2	22110306	61	High	1.5	Precise	1	21	34	25	1.6	10.4	0.0	34	25	21	10.4	0.0	1.6	1	0.754	0.001	R	21	1.6	219.717	220.301	221.055	221.057	0
2	22110306	62	High	1.5	Precise	1	26	34	30	0.0	10.4	0.0	26	34	30	0.0	10.4	0.0	3	0.840	0.000	R	30	0.0	221.561	222.230	223.071	223.074	0
2	22110306	63	High	1.5	Vague	2	21	34	6	1.6	10.4	0.0	6	34	21	0.0	10.4	1.6	1	0.735	0.001	R	21	1.6	223.577	224.696	225.431	225.433	0
2	22110306	64	High	1.5	Vague	2	26	27	6	0.0	3.0	0.0	27	6	26	3.0	0.0	0.0	3	0.924	0.001	D	6	0.0	225.936	228.267	229.191	229.193	0
2	22110306	65	High	1.5	Precise	1	27	34	30	3.0	10.4	0.0	30	34	27	0.0	10.4	3.0	1	0.738	0.000	R	27	3.0	229.697	232.501	233.239	233.241	0
2	22110306	66	High	1.5	Precise	1	27	29	19	3.0	10.5	0.0	19	29	27	0.0	10.5	3.0	1	0.695	0.000	R	27	3.0	233.744	235.888	236.583	236.585	0
2	22110306	67	High	1.5	Vague	2	27	29	8	3.0	10.5	5.9	29	27	8	10.5	3.0	5.9	3	1.362	0.001	R	8	5.9	237.088	239.013	240.375	240.378	0
2	22110306	68	High	1.5	Vague	2	20	34	14	4.7	10.4	3.4	14	34	20	3.4	10.4	4.7	1	0.835	0.000	R	20	4.7	240.880	243.123	243.959	243.961	0
2	22110306	69	High	1.5	Precise	1	26	34	19	0.0	10.4	0.0	26	19	34	0.0	0.0	10.4	3	0.794	0.001	D	19	0.0	244.464	246.325	247.119	247.121	0
2	22110306	70	High	1.5	Precise	1	20	29	25	4.7	10.5	0.0	29	25	20	10.5	0.0	4.7	1	0.885	0.001	R	20	4.7	247.624	249.426	250.311	250.313	0
2	22110306	71	High	1.5	Vague	2	21	34	1	1.6	10.4	0.0	34	21	1	10.4	1.6	0.0	1	0.684	0.001	D	21	1.6	250.816	251.363	252.047	252.049	0
2	22110306	72	High	1.5	Precise	1	21	27	32	1.6	3.0	0.0	21	32	27	1.6	0.0	3.0	2	0.580	0.001	R	27	3.0	252.552	255.539	256.119	256.121	0
2	22110306	73	High	1.5	Precise	1	27	29	35	3.0	10.5	0.0	27	35	29	3.0	0.0	10.5	1	0.781	0.001	L	27	3.0	256.624	258.930	259.711	259.713	0
2	22110306	74	High	1.5	Precise	1	21	27	23	1.6	3.0	0.0	21	27	23	1.6	3.0	0.0	3	0.518	0.000	R	23	0.0	260.217	262.104	262.623	262.625	0
2	22110306	75	High	1.5	Precise	1	21	29	32	1.6	10.5	0.0	32	29	21	0.0	10.5	1.6	1	0.890	0.000	R	21	1.6	263.128	263.757	264.647	264.649	0
2	22110306	76	High	1.5	Precise	1	27	20	35	3.0	4.7	0.0	20	35	27	4.7	0.0	3.0	1	0.601	0.001	R	27	3.0	265.152	266.294	266.895	266.897	0
2	22110306	77	High	1.5	Vague	2	21	27	5	1.6	3.0	0.0	5	27	21	0.0	3.0	1.6	1	1.045	0.000	R	21	1.6	267.400	268.514	269.559	269.561	0
2	22110306	78	High	1.5	Precise	1	26	29	35	0.0	10.5	0.0	29	35	26	10.5	0.0	0.0	1	1.050	0.001	R	26	0.0	270.064	272.725	273.775	273.777	0
2	22110306	79	High	1.5	Vague	2	26	29	1	0.0	10.5	0.0	26	29	1	0.0	10.5	0.0	3	0.967	0.000	R	1	0.0	274.280	277.023	277.991	277.993	0
2	22110306	80	High	1.5	Precise	1	21	20	30	1.6	4.7	0.0	21	20	30	1.6	4.7	0.0	2	0.598	0.001	D	20	4.7	278.497	280.929	281.527	281.529	0
2	22110306	81	High	1.5	Vague	2	21	20	6	1.6	4.7	0.0	6	20	21	0.0	4.7	1.6	2	0.529	0.000	D	20	4.7	282.032	283.686	284.215	284.217	0
2	22110306	82	High	1.5	Precise	1	26	20	23	0.0	4.7	0.0	20	26	23	4.7	0.0	0.0	2	0.891	0.001	L	20	4.7	284.721	287.396	288.287	288.289	0
2	22110306	83	High	1.5	Precise	1	21	20	35	1.6	4.7	0.0	21	20	35	1.6	4.7	0.0	1	1.116	0.001	L	21	1.6	288.792	290.259	291.375	291.377	0
2	22110306	84	High	1.5	Vague	2	21	20	8	1.6	4.7	5.9	8	21	20	5.9	1.6	4.7	2	0.643	0.001	R	20	4.7	291.880	294.292	294.935	294.937	0
2	22110306	85	High	1.5	Precise	1	27	29	32	3.0	10.5	0.0	29	32	27	10.5	0.0	3.0	3	0.877	0.001	D	32	0.0	295.440	297.770	298.647	298.649	0
2	22110306	86	High	1.5	Precise	1	34	29	23	10.4	10.5	0.0	29	23	34	10.5	0.0	10.4	3	1.252	0.001	D	23	0.0	299.153	300.067	301.319	301.321	0
2	22110306	87	High	1.5	Vague	2	26	20	10	0.0	4.7	0.0	26	20	10	0.0	4.7	0.0	2	0.815	0.001	D	20	4.7	301.823	302.808	303.623	303.625	0
2	22110306	88	High	1.5	Vague	2	21	27	6	1.6	3.0	0.0	6	27	21	0.0	3.0	1.6	1	0.605	0.001	R	21	1.6	304.128	305.546	306.151	306.153	0
2	22110306	89	High	1.5	Vague	2	21	29	6	1.6	10.5	0.0	6	21	29	0.0	1.6	10.5	1	0.763	0.001	D	21	1.6	306.656	307.604	308.367	308.369	0
2	22110306	90	High	1.5	Precise	1	27	29	25	3.0	10.5	0.0	27	25	29	3.0	0.0	10.5	3	0.649	0.001	D	25	0.0	308.872	311.222	311.871	311.873	0
2	22110306	91	High	1.5	Vague	2	26	34	5	0.0	10.4	0.0	26	34	5	0.0	10.4	0.0	3	1.293	0.000	R	5	0.0	312.376	312.890	314.183	314.185	0
2	22110306	92	High	1.5	Vague	2	26	29	14	0.0	10.5	3.4	14	29	26	3.4	10.5	0.0	3	0.603	0.000	L	14	3.4	314.688	316.899	317.502	317.505	0
2	22110306	93	High	1.5	Vague	2	26	21	5	0.0	1.6	0.0	26	21	5	0.0	1.6	0.0	2	1.207	0.000	D	21	1.6	318.007	319.752	320.959	320.961	0
2	22110306	94	High	1.5	Vague	2	20	29	5	4.7	10.5	0.0	5	29	20	0.0	10.5	4.7	1	0.695	0.000	R	20	4.7	321.465	324.024	324.719	324.721	0
2	22110306	95	High	1.5	Vague	2	26	21	6	0.0	1.6	0.0	26	6	21	0.0	0.0	1.6	2	0.647	0.001	R	21	1.6	325.224	327.112	327.759	327.761	0
2	22110306	96	High	1.5	Precise	1	27	20	30	3.0	4.7	0.0	30	20	27	0.0	4.7	3.0	1	0.692	0.000	R	27	3.0	328.264	330.163	330.855	330.857	0
2	22110306	97	High	1.5	Precise	1	26	20	25	0.0	4.7	0.0	20	25	26	4.7	0.0	0.0	2	0.950	0.000	L	20	4.7	331.360	331.928	332.879	332.881	0
2	22110306	98	High	1.5	Precise	1	21	34	32	1.6	10.4	0.0	21	32	34	1.6	0.0	10.4	1	0.881	0.000	L	21	1.6	333.384	334.341	335.222	335.225	0
2	22110306	99	High	1.5	Vague	2	20	29	1	4.7	10.5	0.0	1	29	20	0.0	10.5	4.7	1	0.812	0.000	R	20	4.7	335.727	337.386	338.198	338.201	0
2	22110306	100	High	1.5	Precise	1	26	20	19	0.0	4.7	0.0	26	20	19	0.0	4.7	0.0	2	0.663	0.001	D	20	4.7	338.704	340.808	341.471	341.473	0
2	22110306	101	High	1.5	Precise	1	20	29	32	4.7	10.5	0.0	20	32	29	4.7	0.0	10.5	1	0.550	0.001	L	20	4.7	341.976	344.881	345.431	345.433	0
2	22110306	102	High	1.5	Vague	2	27	29	5	3.0	10.5	0.0	5	27	29	0.0	3.0	10.5	1	0.665	0.001	D	27	3.0	345.936	348.822	349.487	349.489	0
2	22110306	103	High	1.5	Precise	1	21	27	25	1.6	3.0	0.0	21	27	25	1.6	3.0	0.0	3	0.890	0.001	R	25	0.0	349.992	352.181	353.071	353.073	0
2	22110306	104	High	1.5	Precise	1	20	34	32	4.7	10.4	0.0	32	34	20	0.0	10.4	4.7	1	0.621	0.001	R	20	4.7	353.576	356.313	356.935	356.937	0
2	22110306	105	High	1.5	Vague	2	21	20	1	1.6	4.7	0.0	1	21	20	0.0	1.6	4.7	2	0.565	0.000	R	20	4.7	357.441	358.298	358.862	358.865	0
2	22110306	106	High	1.5	Vague	2	21	29	10	1.6	10.5	0.0	21	10	29	1.6	0.0	10.5	1	0.957	0.000	L	21	1.6	359.368	359.905	360.863	360.865	0
2	22110306	107	High	1.5	Vague	2	20	29	6	4.7	10.5	0.0	6	20	29	0.0	4.7	10.5	1	0.979	0.000	D	20	4.7	361.367	362.084	363.062	363.065	0
2	22110306	108	High	1.5	Precise	1	27	20	25	3.0	4.7	0.0	20	25	27	4.7	0.0	3.0	2	0.527	0.001	L	20	4.7	363.568	365.080	365.607	365.609	0
2	22110306	109	High	1.5	Precise	1	20	29	23	4.7	10.5	0.0	20	23	29	4.7	0.0	10.5	1	0.494	0.001	L	20	4.7	366.112	369.056	369.551	369.553	0
2	22110306	110	High	1.5	Vague	2	27	29	10	3.0	10.5	0.0	10	27	29	0.0	3.0	10.5	1	0.777	0.000	D	27	3.0	370.056	372.013	372.791	372.793	0
2	22110306	111	High	1.5	Vague	2	34	29	10	10.4	10.5	0.0	29	34	10	10.5	10.4	0.0	2	1.239	0.000	L	29	10.5	373.297	375.088	376.326	376.329	0
2	22110306	112	High	1.5	Vague	2	26	27	8	0.0	3.0	5.9	8	26	27	5.9	0.0	3.0	2	0.634	0.001	R	27	3.0	376.831	378.917	379.551	379.553	0
2	22110306	113	High	1.5	Vague	2	26	21	14	0.0	1.6	3.4	21	14	26	1.6	3.4	0.0	3	0.941	0.001	D	14	3.4	380.055	381.650	382.591	382.593	0
2	22110306	114	High	1.5	Vague	2	26	29	8	0.0	10.5	5.9	26	8	29	0.0	5.9	10.5	1	0.644	0.001	L	26	0.0	383.096	384.275	384.919	384.921	0
2	22110306	115	High	1.5	Vague	2	26	34	10	0.0	10.4	0.0	26	10	34	0.0	0.0	10.4	1	0.641	0.001	L	26	0.0	385.424	386.310	386.951	386.953	0
2	22110306	116	High	1.5	Vague	2	26	34	6	0.0	10.4	0.0	6	26	34	0.0	0.0	10.4	2	0.862	0.001	R	34	10.4	387.455	390.017	390.879	390.881	0
2	22110306	117	High	1.5	Precise	1	26	27	23	0.0	3.0	0.0	26	23	27	0.0	0.0	3.0	3	0.970	0.001	D	23	0.0	391.384	393.285	394.255	394.257	0
2	22110306	118	High	1.5	Vague	2	27	20	6	3.0	4.7	0.0	27	6	20	3.0	0.0	4.7	2	1.118	0.001	R	20	4.7	394.760	395.281	396.399	396.401	0
2	22110306	119	High	1.5	Precise	1	27	34	35	3.0	10.4	0.0	34	27	35	10.4	3.0	0.0	1	0.870	0.001	D	27	3.0	396.904	397.801	398.671	398.673	0
2	22110306	120	High	1.5	Precise	1	21	20	25	1.6	4.7	0.0	20	25	21	4.7	0.0	1.6	2	0.587	0.001	L	20	4.7	399.176	400.332	400.919	400.921	0
2	22110306	121	High	1.5	Precise	1	21	27	19	1.6	3.0	0.0	27	21	19	3.0	1.6	0.0	3	0.682	0.000	R	19	0.0	411.067	413.453	414.134	414.137	0
2	22110306	122	High	1.5	Vague	2	21	20	5	1.6	4.7	0.0	5	21	20	0.0	1.6	4.7	2	0.534	0.000	R	20	4.7	414.639	416.481	417.014	417.017	0
2	22110306	123	High	1.5	Precise	1	21	29	23	1.6	10.5	0.0	29	21	23	10.5	1.6	0.0	3	0.851	0.000	R	23	0.0	417.519	420.299	421.151	421.153	0
2	22110306	124	High	1.5	Vague	2	34	29	6	10.4	10.5	0.0	34	29	6	10.4	10.5	0.0	2	0.854	0.001	D	29	10.5	421.656	424.401	425.255	425.257	0
2	22110306	125	High	1.5	Precise	1	21	34	23	1.6	10.4	0.0	34	23	21	10.4	0.0	1.6	3	0.684	0.001	D	23	0.0	425.759	426.787	427.471	427.473	0
2	22110306	126	High	1.5	Vague	2	27	29	1	3.0	10.5	0.0	27	29	1	3.0	10.5	0.0	3	1.237	0.000	R	1	0.0	427.975	428.673	429.910	429.913	0
2	22110306	127	High	1.5	Precise	1	26	20	30	0.0	4.7	0.0	30	20	26	0.0	4.7	0.0	2	0.707	0.001	D	20	4.7	430.415	432.196	432.903	432.906	0
2	22110306	128	High	1.5	Vague	2	26	20	14	0.0	4.7	3.4	14	26	20	3.4	0.0	4.7	2	0.742	0.001	R	20	4.7	433.409	433.985	434.727	434.729	0
2	22110306	129	High	1.5	Precise	1	26	29	19	0.0	10.5	0.0	26	19	29	0.0	0.0	10.5	2	1.023	0.001	R	29	10.5	435.231	436.007	437.031	437.033	0
2	22110306	130	High	1.5	Precise	1	27	34	19	3.0	10.4	0.0	27	19	34	3.0	0.0	10.4	3	0.745	0.001	D	19	0.0	437.535	439.166	439.911	439.914	0
2	22110306	131	High	1.5	Vague	2	27	29	6	3.0	10.5	0.0	29	6	27	10.5	0.0	3.0	3	0.911	0.000	D	6	0.0	440.416	442.408	443.319	443.321	0
2	22110306	132	High	1.5	Precise	1	34	29	30	10.4	10.5	0.0	30	34	29	0.0	10.4	10.5	NaN	NaN	NaN	NaN	NaN	NaN	443.824	444.886	NaN	446.375	1
2	22110306	133	High	1.5	Vague	2	21	27	8	1.6	3.0	5.9	21	27	8	1.6	3.0	5.9	1	0.724	0.001	L	21	1.6	448.378	449.867	450.591	450.593	0
2	22110306	134	High	1.5	Precise	1	21	29	19	1.6	10.5	0.0	19	29	21	0.0	10.5	1.6	3	0.716	0.001	L	19	0.0	451.097	453.650	454.367	454.369	0
2	22110306	135	High	1.5	Precise	1	21	20	32	1.6	4.7	0.0	20	21	32	4.7	1.6	0.0	2	0.553	0.001	L	20	4.7	454.872	456.326	456.879	456.881	0
2	22110306	136	High	1.5	Vague	2	26	34	1	0.0	10.4	0.0	34	26	1	10.4	0.0	0.0	3	0.922	0.000	R	1	0.0	457.383	458.732	459.654	459.657	0
2	22110306	137	High	1.5	Vague	2	27	20	5	3.0	4.7	0.0	5	20	27	0.0	4.7	3.0	2	0.730	0.001	D	20	4.7	460.159	461.693	462.423	462.425	0
2	22110306	138	High	1.5	Precise	1	26	27	32	0.0	3.0	0.0	32	26	27	0.0	0.0	3.0	2	0.584	0.001	R	27	3.0	462.928	465.591	466.175	466.177	0
2	22110306	139	High	1.5	Precise	1	26	21	30	0.0	1.6	0.0	26	30	21	0.0	0.0	1.6	2	0.656	0.000	R	21	1.6	466.679	469.527	470.183	470.185	0
2	22110306	140	High	1.5	Precise	1	26	27	19	0.0	3.0	0.0	19	26	27	0.0	0.0	3.0	2	0.740	0.000	R	27	3.0	470.689	473.538	474.278	474.281	0
2	22110306	141	High	1.5	Vague	2	26	29	5	0.0	10.5	0.0	26	5	29	0.0	0.0	10.5	2	0.651	0.001	R	29	10.5	474.784	476.835	477.487	477.489	0
2	22110306	142	High	1.5	Vague	2	21	34	5	1.6	10.4	0.0	5	34	21	0.0	10.4	1.6	1	0.601	0.001	R	21	1.6	477.991	479.470	480.071	480.073	0
2	22110306	143	High	1.5	Precise	1	26	27	30	0.0	3.0	0.0	30	26	27	0.0	0.0	3.0	2	0.814	0.001	R	27	3.0	480.575	481.105	481.919	481.921	0
2	22110306	144	High	1.5	Vague	2	26	27	14	0.0	3.0	3.4	14	26	27	3.4	0.0	3.0	2	0.657	0.001	R	27	3.0	482.424	485.173	485.831	485.833	0
2	22110306	145	High	1.5	Vague	2	27	20	8	3.0	4.7	5.9	20	8	27	4.7	5.9	3.0	1	0.703	0.000	R	27	3.0	486.335	488.031	488.734	488.737	0
2	22110306	146	High	1.5	Precise	1	21	27	30	1.6	3.0	0.0	30	27	21	0.0	3.0	1.6	1	0.951	0.001	R	21	1.6	489.239	491.719	492.670	492.673	0
2	22110306	147	High	1.5	Vague	2	26	20	5	0.0	4.7	0.0	20	26	5	4.7	0.0	0.0	2	0.542	0.000	L	20	4.7	493.176	495.536	496.078	496.081	0
2	22110306	148	High	1.5	Vague	2	27	20	1	3.0	4.7	0.0	27	1	20	3.0	0.0	4.7	2	0.661	0.001	R	20	4.7	496.584	498.386	499.046	499.049	0
2	22110306	149	High	1.5	Vague	2	21	29	14	1.6	10.5	3.4	21	29	14	1.6	10.5	3.4	1	0.795	0.000	L	21	1.6	499.551	502.420	503.214	503.217	0
2	22110306	150	High	1.5	Vague	2	26	29	10	0.0	10.5	0.0	29	10	26	10.5	0.0	0.0	2	0.715	0.001	L	29	10.5	503.720	506.243	506.958	506.961	0
2	22110306	151	High	1.5	Vague	2	26	20	6	0.0	4.7	0.0	26	20	6	0.0	4.7	0.0	2	0.757	0.001	D	20	4.7	507.463	509.217	509.975	509.977	0
2	22110306	152	High	1.5	Vague	2	34	29	14	10.4	10.5	3.4	14	34	29	3.4	10.4	10.5	2	1.293	0.001	R	29	10.5	510.479	512.777	514.071	514.073	0
2	22110306	153	High	1.5	Precise	1	27	20	19	3.0	4.7	0.0	27	20	19	3.0	4.7	0.0	2	0.593	0.001	D	20	4.7	514.576	517.302	517.895	517.897	0
2	22110306	154	High	1.5	Vague	2	21	34	8	1.6	10.4	5.9	34	8	21	10.4	5.9	1.6	1	0.665	0.000	R	21	1.6	518.400	521.389	522.054	522.057	0
2	22110306	155	High	1.5	Vague	2	34	29	8	10.4	10.5	5.9	8	34	29	5.9	10.4	10.5	2	0.727	0.001	R	29	10.5	522.560	524.743	525.471	525.473	0
2	22110306	156	High	1.5	Vague	2	20	29	10	4.7	10.5	0.0	29	10	20	10.5	0.0	4.7	1	0.604	0.000	R	20	4.7	525.975	527.578	528.182	528.184	0
2	22110306	157	High	1.5	Vague	2	20	34	8	4.7	10.4	5.9	34	20	8	10.4	4.7	5.9	1	0.794	0.001	D	20	4.7	528.688	529.293	530.087	530.089	0
2	22110306	158	High	1.5	Vague	2	27	34	14	3.0	10.4	3.4	27	14	34	3.0	3.4	10.4	1	1.055	0.001	L	27	3.0	530.592	531.144	532.198	532.201	0
2	22110306	159	High	1.5	Precise	1	34	29	35	10.4	10.5	0.0	29	34	35	10.5	10.4	0.0	2	1.376	0.001	L	29	10.5	532.703	535.591	536.967	536.969	0
2	22110306	160	High	1.5	Precise	1	26	20	32	0.0	4.7	0.0	32	20	26	0.0	4.7	0.0	2	0.701	0.000	D	20	4.7	537.473	538.801	539.502	539.505	0
2	22110306	161	High	1.5	Precise	1	26	21	35	0.0	1.6	0.0	26	21	35	0.0	1.6	0.0	2	0.825	0.001	D	21	1.6	540.007	542.110	542.934	542.937	0
2	22110306	162	High	1.5	Precise	1	21	34	19	1.6	10.4	0.0	19	21	34	0.0	1.6	10.4	1	0.826	0.001	D	21	1.6	543.439	544.933	545.759	545.761	0
2	22110306	163	High	1.5	Vague	2	21	29	5	1.6	10.5	0.0	5	29	21	0.0	10.5	1.6	1	0.604	0.001	R	21	1.6	546.264	547.666	548.270	548.273	0
2	22110306	164	High	1.5	Vague	2	34	29	1	10.4	10.5	0.0	1	34	29	0.0	10.4	10.5	3	1.035	0.001	L	1	0.0	548.776	549.699	550.735	550.737	0
2	22110306	165	High	1.5	Vague	2	26	21	10	0.0	1.6	0.0	26	10	21	0.0	0.0	1.6	2	0.855	0.001	R	21	1.6	551.240	551.872	552.727	552.729	0
2	22110306	166	High	1.5	Precise	1	20	34	30	4.7	10.4	0.0	20	30	34	4.7	0.0	10.4	1	0.610	0.001	L	20	4.7	553.232	556.084	556.695	556.697	0
2	22110306	167	High	1.5	Precise	1	26	21	23	0.0	1.6	0.0	23	26	21	0.0	0.0	1.6	3	0.598	0.001	L	23	0.0	557.199	558.456	559.054	559.057	0
2	22110306	168	High	1.5	Precise	1	27	20	32	3.0	4.7	0.0	32	20	27	0.0	4.7	3.0	2	0.752	0.001	D	20	4.7	559.559	561.383	562.135	562.137	0
2	22110306	169	High	1.5	Precise	1	26	29	30	0.0	10.5	0.0	29	26	30	10.5	0.0	0.0	3	0.784	0.000	R	30	0.0	562.640	564.590	565.374	565.377	0
2	22110306	170	High	1.5	Precise	1	20	34	23	4.7	10.4	0.0	23	20	34	0.0	4.7	10.4	3	0.684	0.001	L	23	0.0	565.879	566.402	567.086	567.089	0
2	22110306	171	High	1.5	Vague	2	27	34	6	3.0	10.4	0.0	34	27	6	10.4	3.0	0.0	1	1.003	0.001	D	27	3.0	567.591	569.251	570.255	570.257	0
2	22110306	172	High	1.5	Vague	2	20	34	1	4.7	10.4	0.0	34	1	20	10.4	0.0	4.7	1	0.478	0.001	R	20	4.7	570.759	573.552	574.030	574.033	0
2	22110306	173	High	1.5	Precise	1	26	27	25	0.0	3.0	0.0	27	26	25	3.0	0.0	0.0	3	0.766	0.000	R	25	0.0	574.536	575.576	576.342	576.345	0
2	22110306	174	High	1.5	Vague	2	34	29	5	10.4	10.5	0.0	5	34	29	0.0	10.4	10.5	2	1.182	0.000	R	29	10.5	576.848	578.152	579.334	579.337	0
2	22110306	175	High	1.5	Vague	2	27	20	14	3.0	4.7	3.4	20	14	27	4.7	3.4	3.0	2	0.657	0.000	L	20	4.7	579.840	581.581	582.238	582.241	0
2	22110306	176	High	1.5	Precise	1	26	29	25	0.0	10.5	0.0	29	26	25	10.5	0.0	0.0	2	0.863	0.000	L	29	10.5	582.743	585.064	585.926	585.929	0
2	22110306	177	High	1.5	Vague	2	26	34	14	0.0	10.4	3.4	34	14	26	10.4	3.4	0.0	NaN	NaN	NaN	NaN	NaN	NaN	586.431	587.432	NaN	588.919	1
2	22110306	178	High	1.5	Vague	2	26	34	8	0.0	10.4	5.9	26	34	8	0.0	10.4	5.9	3	0.840	0.000	R	8	5.9	590.922	592.486	593.326	593.329	0
2	22110306	179	High	1.5	Precise	1	20	29	19	4.7	10.5	0.0	19	20	29	0.0	4.7	10.5	3	0.778	0.000	L	19	0.0	593.832	596.773	597.550	597.553	0
2	22110306	180	High	1.5	Vague	2	21	27	10	1.6	3.0	0.0	10	27	21	0.0	3.0	1.6	1	0.609	0.001	R	21	1.6	598.055	598.902	599.510	599.513	0
2	22110306	181	Low	10.0	Vague	2	20	34	4	4.7	10.4	8.0	20	4	34	4.7	8.0	10.4	1	0.532	0.001	L	20	4.7	611.165	612.258	612.790	612.793	0
2	22110306	182	Low	10.0	Vague	2	21	27	2	1.6	3.0	4.3	27	21	2	3.0	1.6	4.3	3	0.861	0.001	R	2	4.3	613.295	613.858	614.718	614.721	0
2	22110306	183	Low	10.0	Precise	1	27	29	33	3.0	10.5	0.0	33	29	27	0.0	10.5	3.0	1	1.125	0.000	R	27	3.0	615.223	616.977	618.102	618.105	0
2	22110306	184	Low	10.0	Vague	2	34	29	4	10.4	10.5	8.0	34	29	4	10.4	10.5	8.0	2	1.026	0.001	D	29	10.5	618.608	621.188	622.214	622.217	0
2	22110306	185	Low	10.0	Precise	1	27	20	22	3.0	4.7	0.0	27	20	22	3.0	4.7	0.0	3	1.297	0.000	R	22	0.0	622.719	623.469	624.766	624.768	0
2	22110306	186	Low	10.0	Vague	2	27	20	3	3.0	4.7	0.0	3	20	27	0.0	4.7	3.0	2	0.671	0.001	D	20	4.7	625.271	627.704	628.374	628.377	0
2	22110306	187	Low	10.0	Vague	2	21	27	7	1.6	3.0	0.0	27	21	7	3.0	1.6	0.0	1	1.132	0.001	D	21	1.6	628.880	629.379	630.510	630.513	0
2	22110306	188	Low	10.0	Vague	2	34	29	12	10.4	10.5	0.0	34	29	12	10.4	10.5	0.0	3	1.264	0.000	R	12	0.0	631.015	633.422	634.686	634.688	0
2	22110306	189	Low	10.0	Vague	2	21	29	11	1.6	10.5	0.0	11	29	21	0.0	10.5	1.6	2	0.991	0.001	D	29	10.5	635.191	637.663	638.654	638.657	0
2	22110306	190	Low	10.0	Vague	2	27	29	4	3.0	10.5	8.0	29	4	27	10.5	8.0	3.0	1	1.110	0.001	R	27	3.0	639.160	641.400	642.510	642.513	0
2	22110306	191	Low	10.0	Vague	2	27	20	12	3.0	4.7	0.0	20	12	27	4.7	0.0	3.0	2	0.631	0.000	L	20	4.7	643.015	645.599	646.230	646.232	0
2	22110306	192	Low	10.0	Vague	2	27	34	11	3.0	10.4	0.0	34	27	11	10.4	3.0	0.0	3	1.062	0.001	R	11	0.0	646.735	647.392	648.454	648.456	0
2	22110306	193	Low	10.0	Precise	1	21	20	36	1.6	4.7	0.0	36	20	21	0.0	4.7	1.6	1	0.661	0.001	R	21	1.6	648.960	649.913	650.574	650.577	0
2	22110306	194	Low	10.0	Precise	1	27	29	22	3.0	10.5	0.0	29	22	27	10.5	0.0	3.0	1	1.031	0.000	R	27	3.0	651.080	652.926	653.958	653.960	0
2	22110306	195	Low	10.0	Precise	1	26	21	31	0.0	1.6	0.0	26	31	21	0.0	0.0	1.6	2	0.905	0.001	R	21	1.6	654.463	655.094	655.998	656.001	0
2	22110306	196	Low	10.0	Precise	1	20	29	28	4.7	10.5	0.0	28	20	29	0.0	4.7	10.5	1	0.667	0.000	D	20	4.7	656.504	657.275	657.942	657.944	0
2	22110306	197	Low	10.0	Precise	1	27	34	33	3.0	10.4	0.0	27	33	34	3.0	0.0	10.4	3	1.589	0.001	D	33	0.0	658.448	659.105	660.694	660.697	0
2	22110306	198	Low	10.0	Vague	2	26	34	7	0.0	10.4	0.0	34	7	26	10.4	0.0	0.0	3	1.009	0.001	D	7	0.0	661.199	662.774	663.782	663.785	0
2	22110306	199	Low	10.0	Vague	2	21	29	2	1.6	10.5	4.3	21	29	2	1.6	10.5	4.3	3	1.159	0.000	R	2	4.3	664.288	664.991	666.150	666.152	0
2	22110306	200	Low	10.0	Precise	1	27	34	22	3.0	10.4	0.0	34	27	22	10.4	3.0	0.0	1	0.993	0.000	D	27	3.0	666.656	669.125	670.118	670.120	0
2	22110306	201	Low	10.0	Vague	2	21	29	7	1.6	10.5	0.0	7	21	29	0.0	1.6	10.5	2	1.082	0.000	R	29	10.5	670.623	671.572	672.654	672.656	0
2	22110306	202	Low	10.0	Vague	2	26	20	3	0.0	4.7	0.0	3	20	26	0.0	4.7	0.0	2	0.585	0.000	D	20	4.7	673.159	675.077	675.662	675.664	0
2	22110306	203	Low	10.0	Vague	2	20	34	7	4.7	10.4	0.0	7	34	20	0.0	10.4	4.7	1	0.560	0.000	R	20	4.7	676.167	678.366	678.926	678.929	0
2	22110306	204	Low	10.0	Precise	1	26	20	33	0.0	4.7	0.0	20	26	33	4.7	0.0	0.0	2	0.533	0.000	L	20	4.7	679.432	681.409	681.942	681.944	0
2	22110306	205	Low	10.0	Vague	2	20	29	4	4.7	10.5	8.0	4	20	29	8.0	4.7	10.5	1	0.538	0.000	D	20	4.7	682.448	685.340	685.878	685.881	0
2	22110306	206	Low	10.0	Precise	1	27	20	36	3.0	4.7	0.0	36	27	20	0.0	3.0	4.7	2	0.819	0.000	R	20	4.7	686.383	686.955	687.774	687.776	0
2	22110306	207	Low	10.0	Vague	2	27	20	4	3.0	4.7	8.0	27	20	4	3.0	4.7	8.0	2	0.681	0.001	D	20	4.7	688.280	691.086	691.766	691.769	0
2	22110306	208	Low	10.0	Vague	2	21	29	3	1.6	10.5	0.0	29	21	3	10.5	1.6	0.0	1	0.969	0.000	D	21	1.6	692.272	694.781	695.750	695.752	0
2	22110306	209	Low	10.0	Vague	2	26	27	3	0.0	3.0	0.0	27	3	26	3.0	0.0	0.0	3	1.010	0.000	D	3	0.0	696.256	697.060	698.070	698.072	0
2	22110306	210	Low	10.0	Precise	1	21	34	36	1.6	10.4	0.0	36	34	21	0.0	10.4	1.6	1	0.601	0.001	R	21	1.6	698.576	701.566	702.166	702.168	0
2	22110306	211	Low	10.0	Vague	2	21	34	7	1.6	10.4	0.0	21	34	7	1.6	10.4	0.0	1	1.040	0.000	L	21	1.6	702.672	703.653	704.694	704.696	0
2	22110306	212	Low	10.0	Vague	2	27	34	2	3.0	10.4	4.3	27	2	34	3.0	4.3	10.4	1	1.025	0.001	L	27	3.0	705.199	708.189	709.214	709.217	0
2	22110306	213	Low	10.0	Vague	2	26	29	12	0.0	10.5	0.0	12	26	29	0.0	0.0	10.5	2	1.086	0.000	R	29	10.5	709.720	711.768	712.854	712.857	0
2	22110306	214	Low	10.0	Vague	2	20	29	7	4.7	10.5	0.0	29	20	7	10.5	4.7	0.0	1	0.728	0.001	D	20	4.7	713.360	715.646	716.374	716.377	0
2	22110306	215	Low	10.0	Vague	2	20	29	3	4.7	10.5	0.0	29	3	20	10.5	0.0	4.7	1	0.615	0.001	R	20	4.7	716.880	717.383	717.998	718.000	0
2	22110306	216	Low	10.0	Precise	1	27	34	24	3.0	10.4	0.0	34	24	27	10.4	0.0	3.0	3	1.543	0.001	D	24	0.0	718.503	719.328	720.870	720.873	0
2	22110306	217	Low	10.0	Vague	2	26	20	12	0.0	4.7	0.0	12	26	20	0.0	0.0	4.7	2	0.916	0.001	R	20	4.7	721.376	723.242	724.158	724.161	0
2	22110306	218	Low	10.0	Precise	1	27	20	33	3.0	4.7	0.0	20	27	33	4.7	3.0	0.0	2	0.605	0.001	L	20	4.7	724.664	726.009	726.614	726.616	0
2	22110306	219	Low	10.0	Vague	2	34	29	7	10.4	10.5	0.0	34	29	7	10.4	10.5	0.0	2	1.056	0.001	D	29	10.5	727.120	729.910	730.966	730.969	0
2	22110306	220	Low	10.0	Vague	2	20	29	11	4.7	10.5	0.0	29	20	11	10.5	4.7	0.0	1	0.827	0.001	D	20	4.7	731.472	733.740	734.566	734.568	0
2	22110306	221	Low	10.0	Vague	2	26	21	11	0.0	1.6	0.0	21	11	26	1.6	0.0	0.0	3	0.766	0.000	D	11	0.0	735.072	736.384	737.150	737.152	0
2	22110306	222	Low	10.0	Precise	1	21	34	33	1.6	10.4	0.0	34	21	33	10.4	1.6	0.0	1	1.144	0.000	D	21	1.6	737.655	740.207	741.350	741.353	0
2	22110306	223	Low	10.0	Vague	2	26	27	4	0.0	3.0	8.0	26	4	27	0.0	8.0	3.0	2	1.431	0.000	R	27	3.0	741.857	742.623	744.054	744.056	0
2	22110306	224	Low	10.0	Precise	1	27	20	24	3.0	4.7	0.0	27	24	20	3.0	0.0	4.7	2	0.728	0.000	R	20	4.7	744.559	746.533	747.262	747.264	0
2	22110306	225	Low	10.0	Precise	1	26	34	33	0.0	10.4	0.0	34	26	33	10.4	0.0	0.0	2	1.378	0.001	L	34	10.4	747.767	748.740	750.118	750.121	0
2	22110306	226	Low	10.0	Vague	2	21	27	3	1.6	3.0	0.0	27	21	3	3.0	1.6	0.0	3	1.157	0.001	R	3	0.0	750.623	751.793	752.950	752.952	0
2	22110306	227	Low	10.0	Precise	1	20	29	22	4.7	10.5	0.0	29	20	22	10.5	4.7	0.0	1	0.852	0.000	D	20	4.7	753.456	754.402	755.254	755.256	0
2	22110306	228	Low	10.0	Precise	1	26	29	24	0.0	10.5	0.0	29	26	24	10.5	0.0	0.0	3	0.834	0.000	R	24	0.0	755.759	758.108	758.942	758.944	0
2	22110306	229	Low	10.0	Precise	1	21	20	33	1.6	4.7	0.0	33	20	21	0.0	4.7	1.6	2	1.159	0.001	D	20	4.7	759.447	760.807	761.966	761.968	0
2	22110306	230	Low	10.0	Precise	1	21	29	36	1.6	10.5	0.0	36	21	29	0.0	1.6	10.5	1	0.707	0.001	D	21	1.6	762.471	764.707	765.414	765.416	0
2	22110306	231	Low	10.0	Vague	2	26	34	11	0.0	10.4	0.0	26	11	34	0.0	0.0	10.4	3	0.729	0.000	D	11	0.0	765.919	767.965	768.694	768.696	0
2	22110306	232	Low	10.0	Precise	1	20	34	36	4.7	10.4	0.0	36	34	20	0.0	10.4	4.7	1	0.623	0.001	R	20	4.7	769.199	771.335	771.958	771.960	0
2	22110306	233	Low	10.0	Vague	2	26	20	11	0.0	4.7	0.0	11	20	26	0.0	4.7	0.0	2	0.545	0.000	D	20	4.7	772.463	774.141	774.686	774.689	0
2	22110306	234	Low	10.0	Precise	1	26	20	31	0.0	4.7	0.0	20	31	26	4.7	0.0	0.0	2	0.544	0.001	L	20	4.7	775.191	778.110	778.654	778.656	0
2	22110306	235	Low	10.0	Vague	2	21	34	4	1.6	10.4	8.0	21	4	34	1.6	8.0	10.4	1	0.863	0.000	L	21	1.6	779.160	779.943	780.806	780.808	0
2	22110306	236	Low	10.0	Precise	1	21	20	24	1.6	4.7	0.0	20	24	21	4.7	0.0	1.6	2	0.572	0.000	L	20	4.7	781.312	783.274	783.846	783.848	0
2	22110306	237	Low	10.0	Vague	2	21	34	11	1.6	10.4	0.0	21	34	11	1.6	10.4	0.0	1	0.509	0.001	L	21	1.6	784.350	786.369	786.878	786.881	0
2	22110306	238	Low	10.0	Precise	1	21	34	28	1.6	10.4	0.0	21	28	34	1.6	0.0	10.4	1	0.652	0.001	L	21	1.6	787.385	789.098	789.750	789.752	0
2	22110306	239	Low	10.0	Precise	1	21	29	22	1.6	10.5	0.0	22	21	29	0.0	1.6	10.5	1	0.957	0.000	D	21	1.6	790.256	792.881	793.838	793.840	0
2	22110306	240	Low	10.0	Vague	2	27	34	3	3.0	10.4	0.0	27	3	34	3.0	0.0	10.4	3	0.966	0.001	D	3	0.0	794.343	795.584	796.550	796.552	0
2	22110306	241	Low	10.0	Precise	1	26	20	36	0.0	4.7	0.0	36	26	20	0.0	0.0	4.7	2	0.595	0.000	R	20	4.7	815.005	817.074	817.670	817.673	0
2	22110306	242	Low	10.0	Vague	2	20	34	12	4.7	10.4	0.0	20	34	12	4.7	10.4	0.0	1	0.491	0.000	L	20	4.7	818.176	820.075	820.566	820.568	0
2	22110306	243	Low	10.0	Precise	1	20	34	28	4.7	10.4	0.0	34	20	28	10.4	4.7	0.0	1	0.616	0.000	D	20	4.7	821.071	823.054	823.670	823.672	0
2	22110306	244	Low	10.0	Vague	2	27	20	7	3.0	4.7	0.0	27	20	7	3.0	4.7	0.0	2	0.574	0.001	D	20	4.7	824.175	826.928	827.502	827.504	0
2	22110306	245	Low	10.0	Vague	2	21	34	2	1.6	10.4	4.3	21	34	2	1.6	10.4	4.3	1	0.665	0.000	L	21	1.6	828.007	830.157	830.822	830.824	0
2	22110306	246	Low	10.0	Precise	1	21	34	22	1.6	10.4	0.0	34	21	22	10.4	1.6	0.0	1	0.810	0.001	D	21	1.6	831.327	833.740	834.550	834.552	0
2	22110306	247	Low	10.0	Precise	1	20	29	36	4.7	10.5	0.0	20	29	36	4.7	10.5	0.0	1	0.622	0.000	L	20	4.7	835.056	836.431	837.054	837.056	0
2	22110306	248	Low	10.0	Vague	2	21	34	3	1.6	10.4	0.0	3	21	34	0.0	1.6	10.4	1	0.841	0.001	D	21	1.6	837.559	838.606	839.446	839.449	0
2	22110306	249	Low	10.0	Vague	2	26	21	7	0.0	1.6	0.0	21	7	26	1.6	0.0	0.0	2	0.942	0.001	L	21	1.6	839.952	840.592	841.534	841.536	0
2	22110306	250	Low	10.0	Precise	1	20	34	33	4.7	10.4	0.0	34	33	20	10.4	0.0	4.7	1	0.584	0.000	R	20	4.7	842.039	843.022	843.606	843.608	0
2	22110306	251	Low	10.0	Vague	2	27	34	4	3.0	10.4	8.0	27	4	34	3.0	8.0	10.4	1	0.975	0.000	L	27	3.0	844.110	846.758	847.734	847.736	0
2	22110306	252	Low	10.0	Vague	2	26	21	3	0.0	1.6	0.0	21	26	3	1.6	0.0	0.0	2	0.562	0.000	L	21	1.6	848.239	849.076	849.638	849.640	0
2	22110306	253	Low	10.0	Precise	1	26	34	36	0.0	10.4	0.0	36	34	26	0.0	10.4	0.0	2	1.017	0.000	D	34	10.4	850.143	851.645	852.662	852.664	0
2	22110306	254	Low	10.0	Precise	1	27	20	28	3.0	4.7	0.0	27	20	28	3.0	4.7	0.0	1	0.833	0.000	L	27	3.0	853.167	854.381	855.214	855.216	0
2	22110306	255	Low	10.0	Vague	2	21	27	4	1.6	3.0	8.0	21	27	4	1.6	3.0	8.0	1	1.142	0.000	L	21	1.6	855.719	858.703	859.846	859.848	0
2	22110306	256	Low	10.0	Vague	2	26	27	11	0.0	3.0	0.0	11	26	27	0.0	0.0	3.0	3	1.162	0.001	L	11	0.0	860.351	862.220	863.382	863.384	0
2	22110306	257	Low	10.0	Precise	1	26	20	24	0.0	4.7	0.0	20	24	26	4.7	0.0	0.0	2	0.548	0.000	L	20	4.7	863.887	865.194	865.742	865.744	0
2	22110306	258	Low	10.0	Precise	1	26	21	24	0.0	1.6	0.0	21	24	26	1.6	0.0	0.0	2	0.925	0.001	L	21	1.6	866.247	868.017	868.942	868.944	0
2	22110306	259	Low	10.0	Vague	2	27	29	2	3.0	10.5	4.3	2	27	29	4.3	3.0	10.5	3	0.754	0.001	L	2	4.3	869.447	871.092	871.846	871.848	0
2	22110306	260	Low	10.0	Vague	2	21	27	11	1.6	3.0	0.0	21	11	27	1.6	0.0	3.0	1	0.498	0.001	L	21	1.6	872.351	874.780	875.278	875.280	0
2	22110306	261	Low	10.0	Vague	2	27	29	3	3.0	10.5	0.0	29	3	27	10.5	0.0	3.0	2	1.016	0.001	L	29	10.5	875.783	877.102	878.118	878.120	0
2	22110306	262	Low	10.0	Precise	1	26	27	24	0.0	3.0	0.0	27	26	24	3.0	0.0	0.0	3	1.015	0.000	R	24	0.0	878.623	879.399	880.414	880.416	0
2	22110306	263	Low	10.0	Vague	2	26	29	11	0.0	10.5	0.0	11	29	26	0.0	10.5	0.0	3	0.637	0.001	L	11	0.0	880.918	882.057	882.694	882.696	0
2	22110306	264	Low	10.0	Vague	2	26	27	12	0.0	3.0	0.0	26	27	12	0.0	3.0	0.0	2	0.758	0.001	D	27	3.0	883.198	885.704	886.462	886.464	0
2	22110306	265	Low	10.0	Vague	2	26	20	4	0.0	4.7	8.0	4	20	26	8.0	4.7	0.0	2	0.825	0.000	D	20	4.7	886.967	887.909	888.734	888.736	0
2	22110306	266	Low	10.0	Precise	1	21	34	31	1.6	10.4	0.0	21	31	34	1.6	0.0	10.4	1	1.079	0.001	L	21	1.6	889.239	891.447	892.526	892.528	0
2	22110306	267	Low	10.0	Vague	2	21	20	2	1.6	4.7	4.3	20	2	21	4.7	4.3	1.6	2	0.530	0.000	L	20	4.7	893.031	894.363	894.894	894.896	0
2	22110306	268	Low	10.0	Precise	1	21	29	24	1.6	10.5	0.0	24	29	21	0.0	10.5	1.6	3	0.860	0.000	L	24	0.0	895.399	897.994	898.854	898.856	0
2	22110306	269	Low	10.0	Vague	2	21	20	3	1.6	4.7	0.0	3	21	20	0.0	1.6	4.7	2	0.618	0.001	R	20	4.7	899.359	901.651	902.270	902.272	0
2	22110306	270	Low	10.0	Precise	1	21	20	22	1.6	4.7	0.0	21	20	22	1.6	4.7	0.0	2	1.253	0.001	D	20	4.7	902.775	903.505	904.758	904.760	0
2	22110306	271	Low	10.0	Precise	1	27	34	31	3.0	10.4	0.0	34	27	31	10.4	3.0	0.0	1	0.938	0.001	D	27	3.0	905.263	906.428	907.366	907.368	0
2	22110306	272	Low	10.0	Precise	1	26	27	33	0.0	3.0	0.0	33	26	27	0.0	0.0	3.0	2	1.324	0.001	R	27	3.0	907.871	908.442	909.766	909.768	0
2	22110306	273	Low	10.0	Vague	2	26	20	7	0.0	4.7	0.0	20	26	7	4.7	0.0	0.0	2	0.575	0.000	L	20	4.7	910.271	912.167	912.742	912.744	0
2	22110306	274	Low	10.0	Vague	2	27	29	7	3.0	10.5	0.0	29	7	27	10.5	0.0	3.0	1	1.393	0.000	R	27	3.0	913.247	916.205	917.598	917.600	0
2	22110306	275	Low	10.0	Precise	1	21	27	28	1.6	3.0	0.0	28	21	27	0.0	1.6	3.0	2	0.872	0.001	R	27	3.0	918.103	919.750	920.622	920.624	0
2	22110306	276	Low	10.0	Precise	1	26	34	28	0.0	10.4	0.0	28	34	26	0.0	10.4	0.0	3	0.868	0.001	L	28	0.0	921.127	923.738	924.606	924.608	0
2	22110306	277	Low	10.0	Precise	1	21	27	36	1.6	3.0	0.0	36	27	21	0.0	3.0	1.6	1	0.581	0.001	R	21	1.6	925.111	926.857	927.438	927.440	0
2	22110306	278	Low	10.0	Precise	1	34	29	36	10.4	10.5	0.0	34	36	29	10.4	0.0	10.5	3	0.715	0.001	D	36	0.0	927.943	930.555	931.270	931.272	0
2	22110306	279	Low	10.0	Precise	1	20	29	24	4.7	10.5	0.0	29	24	20	10.5	0.0	4.7	1	0.604	0.001	R	20	4.7	931.775	933.234	933.838	933.840	0
2	22110306	280	Low	10.0	Vague	2	26	34	12	0.0	10.4	0.0	26	12	34	0.0	0.0	10.4	1	1.320	0.000	L	26	0.0	934.342	935.245	936.565	936.568	0
2	22110306	281	Low	10.0	Vague	2	21	20	4	1.6	4.7	8.0	20	21	4	4.7	1.6	8.0	2	0.893	0.001	L	20	4.7	937.070	938.873	939.766	939.768	0
2	22110306	282	Low	10.0	Vague	2	34	29	11	10.4	10.5	0.0	11	29	34	0.0	10.5	10.4	3	0.728	0.001	L	11	0.0	940.271	941.582	942.310	942.312	0
2	22110306	283	Low	10.0	Precise	1	27	29	24	3.0	10.5	0.0	24	29	27	0.0	10.5	3.0	3	0.841	0.001	L	24	0.0	942.815	945.245	946.086	946.088	0
2	22110306	284	Low	10.0	Vague	2	34	29	3	10.4	10.5	0.0	29	3	34	10.5	0.0	10.4	3	0.913	0.000	D	3	0.0	946.592	949.045	949.958	949.960	0
2	22110306	285	Low	10.0	Vague	2	26	27	7	0.0	3.0	0.0	7	27	26	0.0	3.0	0.0	3	0.839	0.001	L	7	0.0	950.462	952.638	953.478	953.480	0
2	22110306	286	Low	10.0	Precise	1	26	29	28	0.0	10.5	0.0	29	28	26	10.5	0.0	0.0	3	0.830	0.001	D	28	0.0	953.983	955.232	956.062	956.064	0
2	22110306	287	Low	10.0	Vague	2	26	34	2	0.0	10.4	4.3	2	26	34	4.3	0.0	10.4	3	0.683	0.001	L	2	4.3	956.567	957.939	958.622	958.624	0
2	22110306	288	Low	10.0	Precise	1	26	29	22	0.0	10.5	0.0	29	22	26	10.5	0.0	0.0	1	0.998	0.001	R	26	0.0	959.127	960.216	961.214	961.216	0
2	22110306	289	Low	10.0	Vague	2	21	20	11	1.6	4.7	0.0	11	20	21	0.0	4.7	1.6	3	0.870	0.001	L	11	0.0	961.718	964.471	965.342	965.344	0
2	22110306	290	Low	10.0	Vague	2	34	29	2	10.4	10.5	4.3	34	2	29	10.4	4.3	10.5	3	0.888	0.000	D	2	4.3	965.847	967.494	968.382	968.385	0
2	22110306	291	Low	10.0	Precise	1	21	20	28	1.6	4.7	0.0	21	20	28	1.6	4.7	0.0	2	0.561	0.001	D	20	4.7	968.888	971.596	972.158	972.160	0
2	22110306	292	Low	10.0	Vague	2	27	29	12	3.0	10.5	0.0	27	29	12	3.0	10.5	0.0	1	0.962	0.000	L	27	3.0	972.663	974.963	975.925	975.928	0
2	22110306	293	Low	10.0	Vague	2	20	34	3	4.7	10.4	0.0	20	3	34	4.7	0.0	10.4	1	0.739	0.001	L	20	4.7	976.431	978.195	978.934	978.936	0
2	22110306	294	Low	10.0	Precise	1	20	34	22	4.7	10.4	0.0	34	20	22	10.4	4.7	0.0	1	0.730	0.000	D	20	4.7	979.439	981.268	981.998	982.000	0
2	22110306	295	Low	10.0	Vague	2	26	29	7	0.0	10.5	0.0	7	26	29	0.0	0.0	10.5	3	1.029	0.000	L	7	0.0	982.503	983.737	984.766	984.768	0
2	22110306	296	Low	10.0	Vague	2	27	20	2	3.0	4.7	4.3	2	20	27	4.3	4.7	3.0	2	0.621	0.000	D	20	4.7	985.270	987.345	987.966	987.968	0
2	22110306	297	Low	10.0	Vague	2	26	21	12	0.0	1.6	0.0	26	21	12	0.0	1.6	0.0	2	1.167	0.001	D	21	1.6	988.470	990.735	991.902	991.904	0
2	22110306	298	Low	10.0	Precise	1	20	34	24	4.7	10.4	0.0	24	34	20	0.0	10.4	4.7	1	0.927	0.001	R	20	4.7	992.407	993.023	993.950	993.952	0
2	22110306	299	Low	10.0	Precise	1	26	29	31	0.0	10.5	0.0	31	26	29	0.0	0.0	10.5	2	1.248	0.000	R	29	10.5	994.455	995.901	997.149	997.153	0
2	22110306	300	Low	10.0	Vague	2	21	20	7	1.6	4.7	0.0	21	20	7	1.6	4.7	0.0	2	0.557	0.001	D	20	4.7	997.655	999.449	1000.006	1000.008	0
2	22110306	301	Low	10.0	Precise	1	34	29	28	10.4	10.5	0.0	29	34	28	10.5	10.4	0.0	3	1.192	0.000	R	28	0.0	1009.737	1010.349	1011.541	1011.544	0
2	22110306	302	Low	10.0	Vague	2	26	20	2	0.0	4.7	4.3	2	26	20	4.3	0.0	4.7	2	0.670	0.001	R	20	4.7	1012.046	1012.847	1013.518	1013.520	0
2	22110306	303	Low	10.0	Vague	2	20	34	2	4.7	10.4	4.3	2	20	34	4.3	4.7	10.4	1	0.651	0.001	D	20	4.7	1014.023	1014.610	1015.262	1015.264	0
2	22110306	304	Low	10.0	Vague	2	26	34	3	0.0	10.4	0.0	3	34	26	0.0	10.4	0.0	1	0.754	0.000	R	26	0.0	1015.768	1018.379	1019.133	1019.136	0
2	22110306	305	Low	10.0	Precise	1	26	20	22	0.0	4.7	0.0	22	26	20	0.0	0.0	4.7	2	0.591	0.000	R	20	4.7	1019.639	1021.487	1022.078	1022.080	0
2	22110306	306	Low	10.0	Precise	1	27	34	36	3.0	10.4	0.0	34	27	36	10.4	3.0	0.0	1	0.688	0.001	D	27	3.0	1022.583	1024.454	1025.142	1025.144	0
2	22110306	307	Low	10.0	Precise	1	26	21	22	0.0	1.6	0.0	22	21	26	0.0	1.6	0.0	2	0.747	0.000	D	21	1.6	1025.647	1026.667	1027.413	1027.416	0
2	22110306	308	Low	10.0	Precise	1	26	34	24	0.0	10.4	0.0	26	34	24	0.0	10.4	0.0	3	0.731	0.000	R	24	0.0	1027.919	1029.307	1030.038	1030.040	0
2	22110306	309	Low	10.0	Precise	1	26	34	22	0.0	10.4	0.0	34	22	26	10.4	0.0	0.0	2	1.080	0.001	L	34	10.4	1030.542	1032.246	1033.326	1033.328	0
2	22110306	310	Low	10.0	Precise	1	34	29	22	10.4	10.5	0.0	34	29	22	10.4	10.5	0.0	1	1.542	0.001	L	34	10.4	1033.831	1034.904	1036.446	1036.448	0
2	22110306	311	Low	10.0	Precise	1	21	34	24	1.6	10.4	0.0	34	21	24	10.4	1.6	0.0	3	0.684	0.001	R	24	0.0	1036.950	1039.313	1039.998	1040.000	0
2	22110306	312	Low	10.0	Precise	1	20	29	31	4.7	10.5	0.0	31	20	29	0.0	4.7	10.5	1	0.554	0.000	D	20	4.7	1040.503	1043.324	1043.878	1043.880	0
2	22110306	313	Low	10.0	Precise	1	26	27	28	0.0	3.0	0.0	27	26	28	3.0	0.0	0.0	2	0.792	0.000	L	27	3.0	1044.383	1046.838	1047.629	1047.632	0
2	22110306	314	Low	10.0	Vague	2	26	27	2	0.0	3.0	4.3	27	26	2	3.0	0.0	4.3	3	0.766	0.001	R	2	4.3	1048.134	1051.039	1051.806	1051.808	0
2	22110306	315	Low	10.0	Vague	2	26	21	4	0.0	1.6	8.0	26	21	4	0.0	1.6	8.0	2	0.837	0.000	D	21	1.6	1052.311	1055.032	1055.870	1055.872	0
2	22110306	316	Low	10.0	Precise	1	20	29	33	4.7	10.5	0.0	29	33	20	10.5	0.0	4.7	1	0.595	0.000	R	20	4.7	1056.375	1057.291	1057.886	1057.888	0
2	22110306	317	Low	10.0	Precise	1	21	27	24	1.6	3.0	0.0	27	24	21	3.0	0.0	1.6	3	0.660	0.001	D	24	0.0	1058.390	1060.169	1060.830	1060.832	0
2	22110306	318	Low	10.0	Vague	2	27	20	11	3.0	4.7	0.0	11	27	20	0.0	3.0	4.7	2	0.589	0.000	R	20	4.7	1061.334	1063.976	1064.565	1064.568	0
2	22110306	319	Low	10.0	Vague	2	20	29	2	4.7	10.5	4.3	29	2	20	10.5	4.3	4.7	1	0.579	0.001	R	20	4.7	1065.070	1066.107	1066.686	1066.688	0
2	22110306	320	Low	10.0	Vague	2	21	27	12	1.6	3.0	0.0	21	12	27	1.6	0.0	3.0	2	0.801	0.001	R	27	3.0	1067.190	1068.804	1069.606	1069.608	0
2	22110306	321	Low	10.0	Precise	1	21	27	22	1.6	3.0	0.0	22	27	21	0.0	3.0	1.6	1	0.873	0.000	R	21	1.6	1070.111	1071.692	1072.565	1072.568	0
2	22110306	322	Low	10.0	Vague	2	21	29	4	1.6	10.5	8.0	21	4	29	1.6	8.0	10.5	1	0.636	0.000	L	21	1.6	1073.071	1075.193	1075.829	1075.832	0
2	22110306	323	Low	10.0	Precise	1	27	29	31	3.0	10.5	0.0	27	29	31	3.0	10.5	0.0	1	1.185	0.000	L	27	3.0	1076.334	1079.173	1080.357	1080.360	0
2	22110306	324	Low	10.0	Vague	2	20	29	12	4.7	10.5	0.0	12	20	29	0.0	4.7	10.5	1	0.689	0.000	D	20	4.7	1080.863	1082.261	1082.950	1082.952	0
2	22110306	325	Low	10.0	Precise	1	26	21	33	0.0	1.6	0.0	33	26	21	0.0	0.0	1.6	2	0.744	0.000	R	21	1.6	1083.454	1085.461	1086.205	1086.208	0
2	22110306	326	Low	10.0	Precise	1	26	27	22	0.0	3.0	0.0	22	27	26	0.0	3.0	0.0	2	1.174	0.000	D	27	3.0	1086.711	1087.944	1089.117	1089.120	0
2	22110306	327	Low	10.0	Vague	2	26	29	4	0.0	10.5	8.0	4	26	29	8.0	0.0	10.5	2	1.116	0.001	R	29	10.5	1089.622	1090.690	1091.806	1091.808	0
2	22110306	328	Low	10.0	Precise	1	21	27	31	1.6	3.0	0.0	27	21	31	3.0	1.6	0.0	2	0.839	0.000	L	27	3.0	1092.310	1093.087	1093.925	1093.928	0
2	22110306	329	Low	10.0	Precise	1	34	29	24	10.4	10.5	0.0	29	34	24	10.5	10.4	0.0	3	1.345	0.001	R	24	0.0	1094.430	1097.077	1098.422	1098.425	0
2	22110306	330	Low	10.0	Precise	1	26	21	28	0.0	1.6	0.0	28	21	26	0.0	1.6	0.0	2	0.721	0.000	D	21	1.6	1098.927	1101.300	1102.022	1102.024	0
2	22110306	331	Low	10.0	Precise	1	21	29	28	1.6	10.5	0.0	28	21	29	0.0	1.6	10.5	1	0.652	0.001	D	21	1.6	1102.527	1103.634	1104.285	1104.288	0
2	22110306	332	Low	10.0	Precise	1	27	20	31	3.0	4.7	0.0	31	27	20	0.0	3.0	4.7	2	0.692	0.001	R	20	4.7	1104.791	1107.201	1107.894	1107.896	0
2	22110306	333	Low	10.0	Vague	2	26	34	4	0.0	10.4	8.0	34	26	4	10.4	0.0	8.0	1	1.637	0.001	D	26	0.0	1108.398	1111.376	1113.014	1113.016	0
2	22110306	334	Low	10.0	Precise	1	26	29	33	0.0	10.5	0.0	29	26	33	10.5	0.0	0.0	1	1.276	0.001	D	26	0.0	1113.518	1115.817	1117.094	1117.096	0
2	22110306	335	Low	10.0	Vague	2	26	29	3	0.0	10.5	0.0	3	29	26	0.0	10.5	0.0	1	1.399	0.000	R	26	0.0	1117.598	1119.662	1121.061	1121.064	0
2	22110306	336	Low	10.0	Vague	2	21	29	12	1.6	10.5	0.0	29	12	21	10.5	0.0	1.6	1	1.138	0.000	R	21	1.6	1121.567	1122.259	1123.397	1123.400	0
2	22110306	337	Low	10.0	Vague	2	26	21	2	0.0	1.6	4.3	2	21	26	4.3	1.6	0.0	3	0.796	0.001	L	2	4.3	1123.903	1125.434	1126.230	1126.232	0
2	22110306	338	Low	10.0	Vague	2	27	34	12	3.0	10.4	0.0	27	34	12	3.0	10.4	0.0	2	1.343	0.001	D	34	10.4	1126.735	1128.606	1129.949	1129.952	0
2	22110306	339	Low	10.0	Precise	1	21	29	33	1.6	10.5	0.0	21	33	29	1.6	0.0	10.5	1	0.656	0.000	L	21	1.6	1130.454	1131.774	1132.429	1132.432	0
2	22110306	340	Low	10.0	Precise	1	27	29	36	3.0	10.5	0.0	29	36	27	10.5	0.0	3.0	2	1.190	0.000	L	29	10.5	1132.935	1134.503	1135.693	1135.696	0
2	22110306	341	Low	10.0	Precise	1	26	34	31	0.0	10.4	0.0	34	31	26	10.4	0.0	0.0	1	1.381	0.001	R	26	0.0	1136.198	1138.008	1139.389	1139.392	0
2	22110306	342	Low	10.0	Vague	2	27	29	11	3.0	10.5	0.0	29	27	11	10.5	3.0	0.0	3	0.755	0.000	R	11	0.0	1139.895	1140.538	1141.293	1141.296	0
2	22110306	343	Low	10.0	Precise	1	27	29	28	3.0	10.5	0.0	27	28	29	3.0	0.0	10.5	3	1.420	0.001	D	28	0.0	1141.799	1142.354	1143.774	1143.776	0
2	22110306	344	Low	10.0	Precise	1	34	29	33	10.4	10.5	0.0	33	29	34	0.0	10.5	10.4	1	1.295	0.000	R	34	10.4	1144.279	1146.270	1147.565	1147.579	0
2	22110306	345	Low	10.0	Precise	1	34	29	31	10.4	10.5	0.0	34	29	31	10.4	10.5	0.0	1	1.421	0.000	L	34	10.4	1148.082	1148.616	1150.037	1150.040	0
2	22110306	346	Low	10.0	Vague	2	27	34	7	3.0	10.4	0.0	7	34	27	0.0	10.4	3.0	1	1.431	0.001	R	27	3.0	1150.543	1153.263	1154.693	1154.696	0
2	22110306	347	Low	10.0	Precise	1	21	29	31	1.6	10.5	0.0	31	29	21	0.0	10.5	1.6	1	0.642	0.001	R	21	1.6	1155.199	1155.819	1156.462	1156.464	0
2	22110306	348	Low	10.0	Precise	1	21	27	33	1.6	3.0	0.0	21	27	33	1.6	3.0	0.0	1	1.678	0.000	L	21	1.6	1156.966	1158.935	1160.613	1160.616	0
2	22110306	349	Low	10.0	Precise	1	27	34	28	3.0	10.4	0.0	27	34	28	3.0	10.4	0.0	1	1.513	0.001	L	27	3.0	1161.118	1163.204	1164.717	1164.720	0
2	22110306	350	Low	10.0	Precise	1	26	27	31	0.0	3.0	0.0	27	31	26	3.0	0.0	0.0	2	1.156	0.001	L	27	3.0	1165.223	1167.305	1168.461	1168.464	0
2	22110306	351	Low	10.0	Precise	1	26	20	28	0.0	4.7	0.0	20	28	26	4.7	0.0	0.0	2	0.660	0.001	L	20	4.7	1168.967	1171.626	1172.285	1172.288	0
2	22110306	352	Low	10.0	Vague	2	26	29	2	0.0	10.5	4.3	29	26	2	10.5	0.0	4.3	3	0.972	0.001	R	2	4.3	1172.790	1175.402	1176.374	1176.376	0
2	22110306	353	Low	10.0	Vague	2	20	34	11	4.7	10.4	0.0	20	34	11	4.7	10.4	0.0	1	0.640	0.001	L	20	4.7	1176.879	1178.382	1179.022	1179.024	0
2	22110306	354	Low	10.0	Precise	1	21	20	31	1.6	4.7	0.0	20	31	21	4.7	0.0	1.6	2	0.586	0.000	L	20	4.7	1179.527	1181.435	1182.021	1182.024	0
2	22110306	355	Low	10.0	Vague	2	21	20	12	1.6	4.7	0.0	20	21	12	4.7	1.6	0.0	2	0.535	0.000	L	20	4.7	1182.527	1184.734	1185.269	1185.271	0
2	22110306	356	Low	10.0	Vague	2	21	34	12	1.6	10.4	0.0	34	12	21	10.4	0.0	1.6	1	0.791	0.000	R	21	1.6	1185.775	1186.974	1187.765	1187.767	0
2	22110306	357	Low	10.0	Precise	1	20	34	31	4.7	10.4	0.0	34	31	20	10.4	0.0	4.7	1	0.534	0.000	R	20	4.7	1188.270	1189.087	1189.621	1189.623	0
2	22110306	358	Low	10.0	Precise	1	26	21	36	0.0	1.6	0.0	36	26	21	0.0	0.0	1.6	2	0.574	0.000	R	21	1.6	1190.126	1191.735	1192.309	1192.312	0
2	22110306	359	Low	10.0	Precise	1	26	27	36	0.0	3.0	0.0	26	36	27	0.0	0.0	3.0	2	0.837	0.000	R	27	3.0	1192.815	1194.960	1195.797	1195.800	0
2	22110306	360	Low	10.0	Precise	1	26	29	36	0.0	10.5	0.0	29	26	36	10.5	0.0	0.0	2	1.042	0.001	L	29	10.5	1196.303	1199.235	1200.278	1200.280	0
