Group	subID	trial	TimePressure	TimeConstraint	Vagueness	Vaguenesscode	ID1	ID2	ID3	V1	V2	V3	ID_left	ID_middle	ID_right	Bid_left	Bid_middle	Bid_right	chosenItem	RT	RTvariance	chosenPosition	chosenID	chosenValue	fixation_time	option_time	choice_time	feedback_time	timeout
2	22102709	1	Low	10.0	Precise	1	35	34	36	16.7	20.1	10.1	36	34	35	10.1	20.1	16.7	1	1.575	0.001	R	35	16.7	8.537	10.518	12.093	12.096	0
2	22102709	2	Low	10.0	Precise	1	32	34	21	19.8	20.1	3.5	21	32	34	3.5	19.8	20.1	1	2.272	0.001	D	32	19.8	12.601	14.349	16.621	16.624	0
2	22102709	3	Low	10.0	Precise	1	34	26	21	20.1	25.4	3.5	21	34	26	3.5	20.1	25.4	1	2.223	0.001	D	34	20.1	17.130	19.341	21.565	21.568	0
2	22102709	4	Low	10.0	Vague	2	35	30	7	16.7	17.1	5.3	35	30	7	16.7	17.1	5.3	3	2.002	0.000	R	7	5.3	22.072	24.091	26.093	26.096	0
2	22102709	5	Low	10.0	Vague	2	30	32	9	17.1	19.8	10.4	30	9	32	17.1	10.4	19.8	2	1.964	0.001	R	32	19.8	26.600	29.225	31.189	31.193	0
2	22102709	6	Low	10.0	Precise	1	30	32	24	17.1	19.8	2.4	30	24	32	17.1	2.4	19.8	3	2.564	0.000	D	24	2.4	31.699	34.257	36.821	36.824	0
2	22102709	7	Low	10.0	Precise	1	33	32	21	17.2	19.8	3.5	33	32	21	17.2	19.8	3.5	2	1.895	0.000	D	32	19.8	37.327	38.637	40.533	40.535	0
2	22102709	8	Low	10.0	Precise	1	34	26	20	20.1	25.4	4.0	34	20	26	20.1	4.0	25.4	2	1.239	0.001	R	26	25.4	41.038	43.701	44.941	44.943	0
2	22102709	9	Low	10.0	Precise	1	30	34	24	17.1	20.1	2.4	34	30	24	20.1	17.1	2.4	2	1.606	0.000	L	34	20.1	45.446	48.063	49.669	49.672	0
2	22102709	10	Low	10.0	Vague	2	33	34	6	17.2	20.1	3.6	34	6	33	20.1	3.6	17.2	1	2.931	0.001	R	33	17.2	50.174	51.090	54.021	54.023	0
2	22102709	11	Low	10.0	Vague	2	32	26	7	19.8	25.4	5.3	26	32	7	25.4	19.8	5.3	2	1.394	0.000	L	26	25.4	54.525	57.387	58.781	58.783	0
2	22102709	12	Low	10.0	Vague	2	30	34	7	17.1	20.1	5.3	34	7	30	20.1	5.3	17.1	3	2.038	0.001	D	7	5.3	59.286	61.959	63.997	64.000	0
2	22102709	13	Low	10.0	Vague	2	35	26	5	16.7	25.4	6.6	5	26	35	6.6	25.4	16.7	2	2.205	0.000	D	26	25.4	64.502	66.480	68.685	68.687	0
2	22102709	14	Low	10.0	Precise	1	30	33	20	17.1	17.2	4.0	33	20	30	17.2	4.0	17.1	1	1.786	0.000	R	30	17.1	69.189	70.202	71.988	71.991	0
2	22102709	15	Low	10.0	Vague	2	30	32	16	17.1	19.8	8.7	32	16	30	19.8	8.7	17.1	2	2.658	0.000	L	32	19.8	72.494	75.387	78.045	78.047	0
2	22102709	16	Low	10.0	Precise	1	35	32	24	16.7	19.8	2.4	32	24	35	19.8	2.4	16.7	2	1.579	0.000	L	32	19.8	78.550	80.746	82.325	82.327	0
2	22102709	17	Low	10.0	Precise	1	32	26	29	19.8	25.4	12.3	29	32	26	12.3	19.8	25.4	2	1.086	0.000	R	26	25.4	82.830	84.678	85.765	85.767	0
2	22102709	18	Low	10.0	Vague	2	32	26	11	19.8	25.4	11.7	11	26	32	11.7	25.4	19.8	3	1.826	0.001	L	11	11.7	86.270	88.258	90.085	90.088	0
2	22102709	19	Low	10.0	Vague	2	30	26	5	17.1	25.4	6.6	26	30	5	25.4	17.1	6.6	2	1.237	0.001	L	26	25.4	90.590	91.624	92.861	92.863	0
2	22102709	20	Low	10.0	Precise	1	30	26	29	17.1	25.4	12.3	26	29	30	25.4	12.3	17.1	2	0.907	0.001	L	26	25.4	93.367	96.082	96.989	96.991	0
2	22102709	21	Low	10.0	Precise	1	32	26	36	19.8	25.4	10.1	32	36	26	19.8	10.1	25.4	2	1.786	0.001	R	26	25.4	97.494	98.451	100.237	100.239	0
2	22102709	22	Low	10.0	Vague	2	32	26	9	19.8	25.4	10.4	32	26	9	19.8	25.4	10.4	2	2.579	0.000	D	26	25.4	100.742	103.129	105.709	105.711	0
2	22102709	23	Low	10.0	Vague	2	30	26	7	17.1	25.4	5.3	26	30	7	25.4	17.1	5.3	2	1.260	0.000	L	26	25.4	106.213	109.193	110.453	110.455	0
2	22102709	24	Low	10.0	Precise	1	34	26	24	20.1	25.4	2.4	26	34	24	25.4	20.1	2.4	2	0.830	0.000	L	26	25.4	110.957	112.070	112.901	112.903	0
2	22102709	25	Low	10.0	Precise	1	30	33	21	17.1	17.2	3.5	33	21	30	17.2	3.5	17.1	2	1.991	0.000	L	33	17.2	113.405	115.182	117.173	117.175	0
2	22102709	26	Low	10.0	Vague	2	32	34	9	19.8	20.1	10.4	9	32	34	10.4	19.8	20.1	2	1.092	0.000	R	34	20.1	117.677	120.017	121.109	121.111	0
2	22102709	27	Low	10.0	Precise	1	35	33	29	16.7	17.2	12.3	33	35	29	17.2	16.7	12.3	1	2.138	0.001	D	35	16.7	121.613	124.163	126.301	126.303	0
2	22102709	28	Low	10.0	Precise	1	30	34	36	17.1	20.1	10.1	30	34	36	17.1	20.1	10.1	3	1.638	0.000	R	36	10.1	126.806	127.759	129.397	129.399	0
2	22102709	29	Low	10.0	Precise	1	35	34	25	16.7	20.1	7.4	34	35	25	20.1	16.7	7.4	2	1.762	0.000	L	34	20.1	129.902	130.715	132.477	132.479	0
2	22102709	30	Low	10.0	Precise	1	30	34	29	17.1	20.1	12.3	29	30	34	12.3	17.1	20.1	3	1.840	0.001	L	29	12.3	132.982	133.573	135.413	135.415	0
2	22102709	31	Low	10.0	Vague	2	30	34	16	17.1	20.1	8.7	34	16	30	20.1	8.7	17.1	3	1.677	0.000	D	16	8.7	135.918	138.519	140.197	140.199	0
2	22102709	32	Low	10.0	Vague	2	34	26	5	20.1	25.4	6.6	26	34	5	25.4	20.1	6.6	2	1.016	0.001	L	26	25.4	140.702	142.957	143.973	143.975	0
2	22102709	33	Low	10.0	Precise	1	33	32	36	17.2	19.8	10.1	33	32	36	17.2	19.8	10.1	2	1.719	0.000	D	32	19.8	144.478	145.966	147.685	147.687	0
2	22102709	34	Low	10.0	Precise	1	33	34	29	17.2	20.1	12.3	34	33	29	20.1	17.2	12.3	3	1.697	0.001	R	29	12.3	148.189	149.068	150.765	150.767	0
2	22102709	35	Low	10.0	Precise	1	30	34	20	17.1	20.1	4.0	20	30	34	4.0	17.1	20.1	2	1.423	0.000	R	34	20.1	151.270	151.893	153.317	153.319	0
2	22102709	36	Low	10.0	Precise	1	35	33	36	16.7	17.2	10.1	33	35	36	17.2	16.7	10.1	1	1.809	0.000	D	35	16.7	153.822	155.116	156.925	156.927	0
2	22102709	37	Low	10.0	Precise	1	35	26	36	16.7	25.4	10.1	36	35	26	10.1	16.7	25.4	2	1.094	0.000	R	26	25.4	157.429	159.703	160.797	160.800	0
2	22102709	38	Low	10.0	Precise	1	33	26	24	17.2	25.4	2.4	24	33	26	2.4	17.2	25.4	2	0.707	0.000	R	26	25.4	161.303	163.794	164.501	164.503	0
2	22102709	39	Low	10.0	Precise	1	32	34	20	19.8	20.1	4.0	20	34	32	4.0	20.1	19.8	1	1.048	0.000	R	32	19.8	165.006	167.469	168.517	168.519	0
2	22102709	40	Low	10.0	Precise	1	30	33	24	17.1	17.2	2.4	33	24	30	17.2	2.4	17.1	2	1.879	0.000	L	33	17.2	169.022	170.758	172.637	172.639	0
2	22102709	41	Low	10.0	Precise	1	30	26	25	17.1	25.4	7.4	26	30	25	25.4	17.1	7.4	2	3.508	0.000	L	26	25.4	173.142	175.881	179.389	179.391	0
2	22102709	42	Low	10.0	Precise	1	32	34	36	19.8	20.1	10.1	32	36	34	19.8	10.1	20.1	1	1.353	0.001	L	32	19.8	179.894	180.756	182.109	182.111	0
2	22102709	43	Low	10.0	Vague	2	35	34	7	16.7	20.1	5.3	35	7	34	16.7	5.3	20.1	1	2.031	0.000	L	35	16.7	182.614	184.573	186.605	186.607	0
2	22102709	44	Low	10.0	Precise	1	35	30	20	16.7	17.1	4.0	30	20	35	17.1	4.0	16.7	1	1.089	0.001	R	35	16.7	187.110	189.580	190.669	190.671	0
2	22102709	45	Low	10.0	Vague	2	35	32	5	16.7	19.8	6.6	5	35	32	6.6	16.7	19.8	2	1.026	0.000	R	32	19.8	191.173	192.779	193.805	193.807	0
2	22102709	46	Low	10.0	Vague	2	35	32	7	16.7	19.8	5.3	32	35	7	19.8	16.7	5.3	2	1.167	0.000	L	32	19.8	194.309	197.125	198.293	198.295	0
2	22102709	47	Low	10.0	Precise	1	30	26	21	17.1	25.4	3.5	21	26	30	3.5	25.4	17.1	2	1.979	0.000	D	26	25.4	198.797	200.058	202.037	202.039	0
2	22102709	48	Low	10.0	Vague	2	30	26	6	17.1	25.4	3.6	30	26	6	17.1	25.4	3.6	2	1.097	0.001	D	26	25.4	202.542	203.412	204.509	204.511	0
2	22102709	49	Low	10.0	Vague	2	30	33	16	17.1	17.2	8.7	16	30	33	8.7	17.1	17.2	3	1.524	0.000	L	16	8.7	205.013	205.728	207.253	207.255	0
2	22102709	50	Low	10.0	Precise	1	30	32	20	17.1	19.8	4.0	32	20	30	19.8	4.0	17.1	2	1.539	0.000	L	32	19.8	207.758	209.634	211.173	211.175	0
2	22102709	51	Low	10.0	Vague	2	33	32	7	17.2	19.8	5.3	7	33	32	5.3	17.2	19.8	2	1.367	0.000	R	32	19.8	211.677	213.790	215.157	215.159	0
2	22102709	52	Low	10.0	Vague	2	30	32	6	17.1	19.8	3.6	6	30	32	3.6	17.1	19.8	2	1.097	0.000	R	32	19.8	215.662	218.339	219.437	219.439	0
2	22102709	53	Low	10.0	Vague	2	30	34	9	17.1	20.1	10.4	30	9	34	17.1	10.4	20.1	2	0.928	0.000	R	34	20.1	219.941	221.412	222.341	222.343	0
2	22102709	54	Low	10.0	Vague	2	35	33	7	16.7	17.2	5.3	35	7	33	16.7	5.3	17.2	1	0.847	0.000	L	35	16.7	222.845	224.974	225.821	225.823	0
2	22102709	55	Low	10.0	Vague	2	30	34	5	17.1	20.1	6.6	30	34	5	17.1	20.1	6.6	2	1.358	0.000	D	34	20.1	226.325	228.775	230.133	230.135	0
2	22102709	56	Low	10.0	Vague	2	33	26	7	17.2	25.4	5.3	26	33	7	25.4	17.2	5.3	2	1.174	0.000	L	26	25.4	230.638	232.503	233.677	233.679	0
2	22102709	57	Low	10.0	Vague	2	30	34	11	17.1	20.1	11.7	30	34	11	17.1	20.1	11.7	2	1.038	0.000	D	34	20.1	234.182	235.663	236.701	236.703	0
2	22102709	58	Low	10.0	Vague	2	35	30	11	16.7	17.1	11.7	11	30	35	11.7	17.1	16.7	3	0.907	0.000	L	11	11.7	237.206	238.946	239.853	239.855	0
2	22102709	59	Low	10.0	Precise	1	35	30	29	16.7	17.1	12.3	30	35	29	17.1	16.7	12.3	3	1.856	0.001	R	29	12.3	240.357	242.173	244.029	244.031	0
2	22102709	60	Low	10.0	Vague	2	35	34	5	16.7	20.1	6.6	34	35	5	20.1	16.7	6.6	1	1.755	0.000	D	35	16.7	244.534	246.434	248.189	248.191	0
2	22102709	61	Low	10.0	Precise	1	32	26	24	19.8	25.4	2.4	26	24	32	25.4	2.4	19.8	2	2.529	0.001	L	26	25.4	255.258	257.692	260.221	260.223	0
2	22102709	62	Low	10.0	Vague	2	32	34	11	19.8	20.1	11.7	32	34	11	19.8	20.1	11.7	3	1.728	0.000	R	11	11.7	260.726	262.740	264.469	264.471	0
2	22102709	63	Low	10.0	Precise	1	35	34	20	16.7	20.1	4.0	34	20	35	20.1	4.0	16.7	1	1.601	0.000	R	35	16.7	264.973	266.619	268.221	268.223	0
2	22102709	64	Low	10.0	Precise	1	33	32	24	17.2	19.8	2.4	24	33	32	2.4	17.2	19.8	2	1.145	0.000	R	32	19.8	268.726	270.484	271.629	271.631	0
2	22102709	65	Low	10.0	Vague	2	35	30	5	16.7	17.1	6.6	5	35	30	6.6	16.7	17.1	2	1.537	0.001	R	30	17.1	272.134	274.924	276.461	276.463	0
2	22102709	66	Low	10.0	Vague	2	35	34	16	16.7	20.1	8.7	16	34	35	8.7	20.1	16.7	3	1.813	0.001	L	16	8.7	276.966	278.984	280.797	280.799	0
2	22102709	67	Low	10.0	Precise	1	33	26	25	17.2	25.4	7.4	26	25	33	25.4	7.4	17.2	2	0.132	0.000	L	26	25.4	281.302	282.209	282.341	282.343	0
2	22102709	68	Low	10.0	Vague	2	32	34	5	19.8	20.1	6.6	5	32	34	6.6	19.8	20.1	2	0.889	0.001	R	34	20.1	282.845	285.636	286.525	286.527	0
2	22102709	69	Low	10.0	Vague	2	30	26	9	17.1	25.4	10.4	26	30	9	25.4	17.1	10.4	2	0.753	0.001	L	26	25.4	287.030	287.908	288.661	288.663	0
2	22102709	70	Low	10.0	Precise	1	33	34	25	17.2	20.1	7.4	25	33	34	7.4	17.2	20.1	2	1.343	0.000	R	34	20.1	289.165	291.118	292.461	292.463	0
2	22102709	71	Low	10.0	Precise	1	33	34	24	17.2	20.1	2.4	34	24	33	20.1	2.4	17.2	2	0.810	0.001	L	34	20.1	292.965	295.443	296.253	296.255	0
2	22102709	72	Low	10.0	Vague	2	35	33	6	16.7	17.2	3.6	33	35	6	17.2	16.7	3.6	3	1.264	0.001	R	6	3.6	296.758	297.965	299.229	299.231	0
2	22102709	73	Low	10.0	Vague	2	32	26	16	19.8	25.4	8.7	16	32	26	8.7	19.8	25.4	2	1.126	0.000	R	26	25.4	299.734	301.494	302.621	302.623	0
2	22102709	74	Low	10.0	Precise	1	34	26	36	20.1	25.4	10.1	34	36	26	20.1	10.1	25.4	2	0.643	0.000	R	26	25.4	303.125	304.857	305.501	305.503	0
2	22102709	75	Low	10.0	Vague	2	30	32	11	17.1	19.8	11.7	32	30	11	19.8	17.1	11.7	3	0.861	0.001	R	11	11.7	306.006	306.984	307.845	307.847	0
2	22102709	76	Low	10.0	Precise	1	35	30	21	16.7	17.1	3.5	21	30	35	3.5	17.1	16.7	1	1.108	0.000	R	35	16.7	308.350	310.569	311.677	311.679	0
2	22102709	77	Low	10.0	Precise	1	35	30	36	16.7	17.1	10.1	35	36	30	16.7	10.1	17.1	2	0.788	0.000	R	30	17.1	312.182	312.848	313.637	313.639	0
2	22102709	78	Low	10.0	Precise	1	35	33	20	16.7	17.2	4.0	33	35	20	17.2	16.7	4.0	2	2.485	0.001	L	33	17.2	314.141	315.920	318.405	318.407	0
2	22102709	79	Low	10.0	Vague	2	32	34	7	19.8	20.1	5.3	32	7	34	19.8	5.3	20.1	2	1.046	0.001	R	34	20.1	318.910	321.815	322.861	322.863	0
2	22102709	80	Low	10.0	Vague	2	35	32	11	16.7	19.8	11.7	11	35	32	11.7	16.7	19.8	2	0.836	0.000	R	32	19.8	323.367	324.545	325.381	325.384	0
2	22102709	81	Low	10.0	Precise	1	35	26	24	16.7	25.4	2.4	35	24	26	16.7	2.4	25.4	2	0.839	0.000	R	26	25.4	325.886	328.598	329.437	329.439	0
2	22102709	82	Low	10.0	Vague	2	33	26	16	17.2	25.4	8.7	26	16	33	25.4	8.7	17.2	2	1.114	0.001	L	26	25.4	329.941	331.779	332.893	332.895	0
2	22102709	83	Low	10.0	Vague	2	30	33	9	17.1	17.2	10.4	33	30	9	17.2	17.1	10.4	3	1.449	0.000	R	9	10.4	333.398	336.276	337.725	337.727	0
2	22102709	84	Low	10.0	Precise	1	33	26	20	17.2	25.4	4.0	20	26	33	4.0	25.4	17.2	2	1.094	0.000	D	26	25.4	338.229	338.847	339.941	339.943	0
2	22102709	85	Low	10.0	Precise	1	34	26	25	20.1	25.4	7.4	26	25	34	25.4	7.4	20.1	2	1.255	0.001	L	26	25.4	340.445	342.998	344.253	344.256	0
2	22102709	86	Low	10.0	Precise	1	33	32	20	17.2	19.8	4.0	20	33	32	4.0	17.2	19.8	2	1.513	0.001	R	32	19.8	344.758	347.220	348.733	348.735	0
2	22102709	87	Low	10.0	Vague	2	35	26	7	16.7	25.4	5.3	7	26	35	5.3	25.4	16.7	2	1.097	0.000	D	26	25.4	349.238	350.620	351.717	351.719	0
2	22102709	88	Low	10.0	Precise	1	30	32	29	17.1	19.8	12.3	32	29	30	19.8	12.3	17.1	3	1.186	0.000	D	29	12.3	352.221	354.979	356.165	356.167	0
2	22102709	89	Low	10.0	Precise	1	35	33	25	16.7	17.2	7.4	33	25	35	17.2	7.4	16.7	1	2.338	0.000	R	35	16.7	356.670	358.138	360.477	360.479	0
2	22102709	90	Low	10.0	Vague	2	35	33	5	16.7	17.2	6.6	35	33	5	16.7	17.2	6.6	3	0.998	0.001	R	5	6.6	360.982	362.479	363.477	363.479	0
2	22102709	91	Low	10.0	Vague	2	33	32	9	17.2	19.8	10.4	32	33	9	19.8	17.2	10.4	2	1.464	0.000	L	32	19.8	363.982	366.813	368.277	368.279	0
2	22102709	92	Low	10.0	Vague	2	35	32	9	16.7	19.8	10.4	35	9	32	16.7	10.4	19.8	2	1.144	0.000	R	32	19.8	368.781	370.388	371.533	371.535	0
2	22102709	93	Low	10.0	Precise	1	32	34	25	19.8	20.1	7.4	32	34	25	19.8	20.1	7.4	2	1.133	0.000	D	34	20.1	372.038	373.024	374.157	374.159	0
2	22102709	94	Low	10.0	Vague	2	33	26	11	17.2	25.4	11.7	33	26	11	17.2	25.4	11.7	3	0.846	0.000	R	11	11.7	374.662	376.903	377.749	377.751	0
2	22102709	95	Low	10.0	Vague	2	30	34	6	17.1	20.1	3.6	6	34	30	3.6	20.1	17.1	2	1.421	0.001	D	34	20.1	378.254	379.320	380.741	380.743	0
2	22102709	96	Low	10.0	Precise	1	33	34	36	17.2	20.1	10.1	34	33	36	20.1	17.2	10.1	1	1.319	0.000	D	33	17.2	381.245	383.526	384.845	384.847	0
2	22102709	97	Low	10.0	Precise	1	35	26	20	16.7	25.4	4.0	35	26	20	16.7	25.4	4.0	2	0.929	0.001	D	26	25.4	385.349	386.044	386.973	386.975	0
2	22102709	98	Low	10.0	Vague	2	34	26	6	20.1	25.4	3.6	6	26	34	3.6	25.4	20.1	2	0.863	0.001	D	26	25.4	387.478	390.198	391.061	391.063	0
2	22102709	99	Low	10.0	Precise	1	35	33	21	16.7	17.2	3.5	21	33	35	3.5	17.2	16.7	2	1.281	0.000	D	33	17.2	391.566	394.308	395.589	395.591	0
2	22102709	100	Low	10.0	Precise	1	35	26	21	16.7	25.4	3.5	21	26	35	3.5	25.4	16.7	2	1.159	0.000	D	26	25.4	396.094	398.110	399.269	399.271	0
2	22102709	101	Low	10.0	Precise	1	35	30	24	16.7	17.1	2.4	35	24	30	16.7	2.4	17.1	1	1.873	0.001	L	35	16.7	399.774	400.308	402.181	402.184	0
2	22102709	102	Low	10.0	Precise	1	30	32	36	17.1	19.8	10.1	30	32	36	17.1	19.8	10.1	3	1.514	0.000	R	36	10.1	402.686	403.499	405.013	405.015	0
2	22102709	103	Low	10.0	Vague	2	33	26	5	17.2	25.4	6.6	33	5	26	17.2	6.6	25.4	2	1.265	0.000	R	26	25.4	405.517	406.580	407.845	407.847	0
2	22102709	104	Low	10.0	Precise	1	30	32	25	17.1	19.8	7.4	32	30	25	19.8	17.1	7.4	2	1.461	0.001	L	32	19.8	408.349	409.760	411.221	411.223	0
2	22102709	105	Low	10.0	Vague	2	33	26	6	17.2	25.4	3.6	33	26	6	17.2	25.4	3.6	2	1.057	0.001	D	26	25.4	411.726	413.124	414.181	414.184	0
2	22102709	106	Low	10.0	Vague	2	30	32	5	17.1	19.8	6.6	32	30	5	19.8	17.1	6.6	2	1.738	0.000	L	32	19.8	414.687	417.091	418.829	418.831	0
2	22102709	107	Low	10.0	Precise	1	35	26	25	16.7	25.4	7.4	35	26	25	16.7	25.4	7.4	2	0.796	0.001	D	26	25.4	419.334	421.841	422.637	422.639	0
2	22102709	108	Low	10.0	Precise	1	30	33	36	17.1	17.2	10.1	30	33	36	17.1	17.2	10.1	3	2.227	0.000	R	36	10.1	423.142	423.874	426.101	426.103	0
2	22102709	109	Low	10.0	Precise	1	30	34	21	17.1	20.1	3.5	34	30	21	20.1	17.1	3.5	2	1.279	0.000	L	34	20.1	426.606	427.630	428.909	428.911	0
2	22102709	110	Low	10.0	Precise	1	35	34	21	16.7	20.1	3.5	34	21	35	20.1	3.5	16.7	2	1.091	0.000	L	34	20.1	429.414	431.170	432.261	432.263	0
2	22102709	111	Low	10.0	Precise	1	35	26	29	16.7	25.4	12.3	35	26	29	16.7	25.4	12.3	2	0.895	0.000	D	26	25.4	432.766	435.653	436.549	436.551	0
2	22102709	112	Low	10.0	Vague	2	33	34	9	17.2	20.1	10.4	33	34	9	17.2	20.1	10.4	2	1.370	0.000	D	34	20.1	437.053	438.396	439.765	439.768	0
2	22102709	113	Low	10.0	Precise	1	35	33	24	16.7	17.2	2.4	35	24	33	16.7	2.4	17.2	1	2.701	0.000	L	35	16.7	440.270	441.712	444.413	444.415	0
2	22102709	114	Low	10.0	Vague	2	33	32	6	17.2	19.8	3.6	33	32	6	17.2	19.8	3.6	2	1.059	0.001	D	32	19.8	444.918	446.730	447.789	447.791	0
2	22102709	115	Low	10.0	Vague	2	33	34	16	17.2	20.1	8.7	34	16	33	20.1	8.7	17.2	3	2.180	0.000	D	16	8.7	448.294	449.505	451.685	451.687	0
2	22102709	116	Low	10.0	Vague	2	34	26	7	20.1	25.4	5.3	26	7	34	25.4	5.3	20.1	2	1.365	0.000	L	26	25.4	452.189	452.895	454.261	454.263	0
2	22102709	117	Low	10.0	Precise	1	33	32	29	17.2	19.8	12.3	29	32	33	12.3	19.8	17.2	3	1.019	0.000	L	29	12.3	454.765	455.322	456.341	456.343	0
2	22102709	118	Low	10.0	Vague	2	32	34	16	19.8	20.1	8.7	32	16	34	19.8	8.7	20.1	3	2.207	0.000	D	16	8.7	456.845	459.295	461.501	461.503	0
2	22102709	119	Low	10.0	Vague	2	35	30	6	16.7	17.1	3.6	6	30	35	3.6	17.1	16.7	1	1.822	0.000	R	35	16.7	462.006	463.335	465.157	465.159	0
2	22102709	120	Low	10.0	Precise	1	35	32	20	16.7	19.8	4.0	20	35	32	4.0	16.7	19.8	2	1.320	0.000	R	32	19.8	465.662	467.413	468.733	468.735	0
2	22102709	121	Low	10.0	Precise	1	33	26	29	17.2	25.4	12.3	29	33	26	12.3	17.2	25.4	2	2.351	0.000	R	26	25.4	475.434	478.134	480.485	480.487	0
2	22102709	122	Low	10.0	Vague	2	35	26	6	16.7	25.4	3.6	26	6	35	25.4	3.6	16.7	2	1.341	0.000	L	26	25.4	480.990	482.815	484.157	484.159	0
2	22102709	123	Low	10.0	Precise	1	30	33	25	17.1	17.2	7.4	33	25	30	17.2	7.4	17.1	1	1.797	0.001	R	30	17.1	484.661	485.192	486.989	486.991	0
2	22102709	124	Low	10.0	Precise	1	35	34	24	16.7	20.1	2.4	24	34	35	2.4	20.1	16.7	2	1.693	0.001	D	34	20.1	487.494	488.360	490.053	490.055	0
2	22102709	125	Low	10.0	Vague	2	35	34	9	16.7	20.1	10.4	9	35	34	10.4	16.7	20.1	1	2.148	0.001	D	35	16.7	490.558	492.345	494.493	494.495	0
2	22102709	126	Low	10.0	Precise	1	33	32	25	17.2	19.8	7.4	25	33	32	7.4	17.2	19.8	2	0.774	0.001	R	32	19.8	494.998	497.415	498.189	498.191	0
2	22102709	127	Low	10.0	Precise	1	35	32	25	16.7	19.8	7.4	32	25	35	19.8	7.4	16.7	2	0.989	0.000	L	32	19.8	498.694	501.160	502.149	502.151	0
2	22102709	128	Low	10.0	Precise	1	33	26	21	17.2	25.4	3.5	21	26	33	3.5	25.4	17.2	2	1.097	0.001	D	26	25.4	502.654	503.324	504.421	504.423	0
2	22102709	129	Low	10.0	Vague	2	34	26	16	20.1	25.4	8.7	34	26	16	20.1	25.4	8.7	2	0.800	0.000	D	26	25.4	504.926	507.773	508.573	508.575	0
2	22102709	130	Low	10.0	Vague	2	35	34	6	16.7	20.1	3.6	35	6	34	16.7	3.6	20.1	2	0.956	0.001	R	34	20.1	509.078	511.098	512.053	512.055	0
2	22102709	131	Low	10.0	Vague	2	34	26	9	20.1	25.4	10.4	9	34	26	10.4	20.1	25.4	2	0.872	0.001	R	26	25.4	512.558	514.926	515.797	515.799	0
2	22102709	132	Low	10.0	Vague	2	30	32	7	17.1	19.8	5.3	32	7	30	19.8	5.3	17.1	1	1.301	0.000	R	30	17.1	516.302	518.792	520.093	520.095	0
2	22102709	133	Low	10.0	Precise	1	30	32	21	17.1	19.8	3.5	32	30	21	19.8	17.1	3.5	1	0.931	0.000	D	30	17.1	520.598	522.418	523.349	523.351	0
2	22102709	134	Low	10.0	Precise	1	33	26	36	17.2	25.4	10.1	36	26	33	10.1	25.4	17.2	2	1.371	0.001	D	26	25.4	523.854	525.611	526.981	526.984	0
2	22102709	135	Low	10.0	Precise	1	35	32	29	16.7	19.8	12.3	32	29	35	19.8	12.3	16.7	3	0.914	0.000	D	29	12.3	527.487	529.451	530.365	530.368	0
2	22102709	136	Low	10.0	Vague	2	33	34	11	17.2	20.1	11.7	34	33	11	20.1	17.2	11.7	2	1.005	0.000	L	34	20.1	530.870	533.416	534.421	534.423	0
2	22102709	137	Low	10.0	Vague	2	32	26	6	19.8	25.4	3.6	6	26	32	3.6	25.4	19.8	2	0.940	0.000	D	26	25.4	534.925	537.409	538.349	538.351	0
2	22102709	138	Low	10.0	Vague	2	35	26	11	16.7	25.4	11.7	11	35	26	11.7	16.7	25.4	3	1.038	0.000	L	11	11.7	538.854	539.927	540.965	540.968	0
2	22102709	139	Low	10.0	Precise	1	34	26	29	20.1	25.4	12.3	34	29	26	20.1	12.3	25.4	2	1.319	0.000	R	26	25.4	541.470	542.327	543.645	543.647	0
2	22102709	140	Low	10.0	Precise	1	35	32	21	16.7	19.8	3.5	21	32	35	3.5	19.8	16.7	2	1.010	0.000	D	32	19.8	544.150	546.155	547.165	547.167	0
2	22102709	141	Low	10.0	Precise	1	30	34	25	17.1	20.1	7.4	30	34	25	17.1	20.1	7.4	2	0.906	0.001	D	34	20.1	547.670	548.235	549.141	549.143	0
2	22102709	142	Low	10.0	Vague	2	35	32	16	16.7	19.8	8.7	16	35	32	8.7	16.7	19.8	1	0.709	0.000	D	35	16.7	549.646	551.136	551.845	551.848	0
2	22102709	143	Low	10.0	Vague	2	30	33	7	17.1	17.2	5.3	33	7	30	17.2	5.3	17.1	1	1.233	0.001	R	30	17.1	552.351	554.956	556.189	556.191	0
2	22102709	144	Low	10.0	Precise	1	35	32	36	16.7	19.8	10.1	35	32	36	16.7	19.8	10.1	2	1.051	0.000	D	32	19.8	556.694	558.034	559.085	559.087	0
2	22102709	145	Low	10.0	Precise	1	32	34	29	19.8	20.1	12.3	32	34	29	19.8	20.1	12.3	3	2.406	0.000	R	29	12.3	559.590	562.383	564.789	564.791	0
2	22102709	146	Low	10.0	Vague	2	35	30	16	16.7	17.1	8.7	35	30	16	16.7	17.1	8.7	2	1.548	0.000	D	30	17.1	565.294	568.033	569.581	569.583	0
2	22102709	147	Low	10.0	Vague	2	32	34	6	19.8	20.1	3.6	6	34	32	3.6	20.1	19.8	1	1.107	0.000	R	32	19.8	570.086	570.650	571.757	571.759	0
2	22102709	148	Low	10.0	Vague	2	33	32	11	17.2	19.8	11.7	11	33	32	11.7	17.2	19.8	3	0.913	0.000	L	11	11.7	572.262	573.748	574.661	574.663	0
2	22102709	149	Low	10.0	Vague	2	35	30	9	16.7	17.1	10.4	30	35	9	17.1	16.7	10.4	3	2.490	0.000	R	9	10.4	575.166	576.371	578.861	578.863	0
2	22102709	150	Low	10.0	Precise	1	30	26	36	17.1	25.4	10.1	36	30	26	10.1	17.1	25.4	2	0.865	0.000	R	26	25.4	579.366	580.372	581.237	581.239	0
2	22102709	151	Low	10.0	Precise	1	30	33	29	17.1	17.2	12.3	30	29	33	17.1	12.3	17.2	3	1.483	0.000	D	29	12.3	581.742	582.346	583.829	583.831	0
2	22102709	152	Low	10.0	Vague	2	35	33	11	16.7	17.2	11.7	11	35	33	11.7	16.7	17.2	3	0.811	0.001	L	11	11.7	584.334	586.490	587.301	587.303	0
2	22102709	153	Low	10.0	Vague	2	35	33	9	16.7	17.2	10.4	9	35	33	10.4	16.7	17.2	2	2.703	0.000	R	33	17.2	587.806	588.414	591.117	591.119	0
2	22102709	154	Low	10.0	Precise	1	33	34	20	17.2	20.1	4.0	33	20	34	17.2	4.0	20.1	2	1.014	0.000	R	34	20.1	591.622	593.695	594.709	594.711	0
2	22102709	155	Low	10.0	Precise	1	32	34	24	19.8	20.1	2.4	34	32	24	20.1	19.8	2.4	1	1.462	0.001	D	32	19.8	595.214	598.151	599.613	599.616	0
2	22102709	156	Low	10.0	Vague	2	35	34	11	16.7	20.1	11.7	35	11	34	16.7	11.7	20.1	3	1.328	0.001	D	11	11.7	600.118	601.973	603.301	603.304	0
2	22102709	157	Low	10.0	Vague	2	35	26	9	16.7	25.4	10.4	9	35	26	10.4	16.7	25.4	1	1.527	0.000	D	35	16.7	603.806	606.118	607.645	607.648	0
2	22102709	158	Low	10.0	Vague	2	35	26	16	16.7	25.4	8.7	26	35	16	25.4	16.7	8.7	2	1.609	0.000	L	26	25.4	608.151	610.556	612.165	612.168	0
2	22102709	159	Low	10.0	Vague	2	33	32	16	17.2	19.8	8.7	32	33	16	19.8	17.2	8.7	3	2.295	0.001	R	16	8.7	612.670	614.910	617.205	617.207	0
2	22102709	160	Low	10.0	Precise	1	32	26	21	19.8	25.4	3.5	21	32	26	3.5	19.8	25.4	2	1.426	0.001	R	26	25.4	617.710	620.571	621.997	621.999	0
2	22102709	161	Low	10.0	Precise	1	30	26	20	17.1	25.4	4.0	26	30	20	25.4	17.1	4.0	2	1.162	0.000	L	26	25.4	622.502	624.180	625.341	625.343	0
2	22102709	162	Low	10.0	Precise	1	33	34	21	17.2	20.1	3.5	33	34	21	17.2	20.1	3.5	2	1.624	0.001	D	34	20.1	625.846	626.773	628.397	628.399	0
2	22102709	163	Low	10.0	Vague	2	33	34	5	17.2	20.1	6.6	34	5	33	20.1	6.6	17.2	3	1.438	0.001	D	5	6.6	628.902	629.615	631.053	631.055	0
2	22102709	164	Low	10.0	Vague	2	34	26	11	20.1	25.4	11.7	34	11	26	20.1	11.7	25.4	2	1.123	0.000	R	26	25.4	631.558	632.058	633.181	633.183	0
2	22102709	165	Low	10.0	Vague	2	32	26	5	19.8	25.4	6.6	5	32	26	6.6	19.8	25.4	2	0.726	0.000	R	26	25.4	633.685	636.295	637.021	637.023	0
2	22102709	166	Low	10.0	Precise	1	32	26	25	19.8	25.4	7.4	25	32	26	7.4	19.8	25.4	2	0.750	0.000	R	26	25.4	637.525	640.239	640.989	640.991	0
2	22102709	167	Low	10.0	Vague	2	33	26	9	17.2	25.4	10.4	26	33	9	25.4	17.2	10.4	2	1.061	0.000	L	26	25.4	641.494	642.512	643.573	643.575	0
2	22102709	168	Low	10.0	Vague	2	30	33	5	17.1	17.2	6.6	30	33	5	17.1	17.2	6.6	2	1.703	0.001	D	33	17.2	644.078	646.134	647.837	647.839	0
2	22102709	169	Low	10.0	Vague	2	33	32	5	17.2	19.8	6.6	32	5	33	19.8	6.6	17.2	2	1.017	0.000	L	32	19.8	648.342	650.989	652.005	652.007	0
2	22102709	170	Low	10.0	Vague	2	30	26	11	17.1	25.4	11.7	30	11	26	17.1	11.7	25.4	2	0.963	0.001	R	26	25.4	652.510	654.635	655.597	655.599	0
2	22102709	171	Low	10.0	Vague	2	35	32	6	16.7	19.8	3.6	32	35	6	19.8	16.7	3.6	2	1.176	0.000	L	32	19.8	656.102	656.645	657.821	657.823	0
2	22102709	172	Low	10.0	Precise	1	30	26	24	17.1	25.4	2.4	26	30	24	25.4	17.1	2.4	2	1.906	0.000	L	26	25.4	658.326	658.963	660.869	660.871	0
2	22102709	173	Low	10.0	Vague	2	30	33	11	17.1	17.2	11.7	11	30	33	11.7	17.1	17.2	3	0.854	0.000	L	11	11.7	661.373	663.583	664.437	664.439	0
2	22102709	174	Low	10.0	Vague	2	30	26	16	17.1	25.4	8.7	26	30	16	25.4	17.1	8.7	2	0.807	0.000	L	26	25.4	664.942	665.782	666.589	666.591	0
2	22102709	175	Low	10.0	Precise	1	35	30	25	16.7	17.1	7.4	25	35	30	7.4	16.7	17.1	1	1.698	0.000	D	35	16.7	667.094	669.379	671.077	671.079	0
2	22102709	176	Low	10.0	Precise	1	35	34	29	16.7	20.1	12.3	29	34	35	12.3	20.1	16.7	3	1.761	0.000	L	29	12.3	671.582	673.988	675.749	675.751	0
2	22102709	177	Low	10.0	Vague	2	30	33	6	17.1	17.2	3.6	30	33	6	17.1	17.2	3.6	2	1.867	0.001	D	33	17.2	676.254	678.042	679.909	679.911	0
2	22102709	178	Low	10.0	Precise	1	32	26	20	19.8	25.4	4.0	32	20	26	19.8	4.0	25.4	2	0.945	0.000	R	26	25.4	680.414	682.555	683.501	683.503	0
2	22102709	179	Low	10.0	Vague	2	35	33	16	16.7	17.2	8.7	33	35	16	17.2	16.7	8.7	3	1.118	0.001	R	16	8.7	684.006	684.951	686.069	686.071	0
2	22102709	180	Low	10.0	Vague	2	33	34	7	17.2	20.1	5.3	7	33	34	5.3	17.2	20.1	2	1.487	0.001	R	34	20.1	686.574	688.775	690.261	690.263	0
2	22102709	181	High	1.5	Vague	2	35	34	4	16.7	20.1	11.4	34	4	35	20.1	11.4	16.7	1	0.875	0.000	R	35	16.7	700.385	702.130	703.005	703.007	0
2	22102709	182	High	1.5	Precise	1	32	26	19	19.8	25.4	2.9	19	32	26	2.9	19.8	25.4	3	0.842	0.000	L	19	2.9	703.510	704.163	705.005	705.007	0
2	22102709	183	High	1.5	Precise	1	35	34	23	16.7	20.1	3.5	35	34	23	16.7	20.1	3.5	1	1.138	0.001	L	35	16.7	705.510	707.235	708.373	708.376	0
2	22102709	184	High	1.5	Vague	2	32	26	3	19.8	25.4	4.9	32	3	26	19.8	4.9	25.4	3	0.664	0.001	D	3	4.9	708.878	709.957	710.621	710.623	0
2	22102709	185	High	1.5	Vague	2	30	33	17	17.1	17.2	6.0	17	33	30	6.0	17.2	17.1	3	1.019	0.000	L	17	6.0	711.126	712.466	713.485	713.487	0
2	22102709	186	High	1.5	Precise	1	35	33	22	16.7	17.2	10.6	22	35	33	10.6	16.7	17.2	2	0.648	0.000	R	33	17.2	713.990	716.789	717.437	717.439	0
2	22102709	187	High	1.5	Vague	2	35	30	13	16.7	17.1	9.5	13	35	30	9.5	16.7	17.1	3	0.843	0.000	L	13	9.5	717.942	718.554	719.397	719.399	0
2	22102709	188	High	1.5	Vague	2	30	26	2	17.1	25.4	3.1	26	30	2	25.4	17.1	3.1	2	1.193	0.001	L	26	25.4	719.902	721.308	722.501	722.503	0
2	22102709	189	High	1.5	Precise	1	35	26	28	16.7	25.4	9.1	26	35	28	25.4	16.7	9.1	2	0.709	0.000	L	26	25.4	723.006	724.976	725.685	725.687	0
2	22102709	190	High	1.5	Vague	2	33	34	17	17.2	20.1	6.0	17	34	33	6.0	20.1	17.2	2	1.037	0.000	D	34	20.1	726.190	727.417	728.453	728.455	0
2	22102709	191	High	1.5	Vague	2	30	34	3	17.1	20.1	4.9	3	34	30	4.9	20.1	17.1	2	0.760	0.001	D	34	20.1	728.957	729.957	730.717	730.719	0
2	22102709	192	High	1.5	Precise	1	30	26	23	17.1	25.4	3.5	30	26	23	17.1	25.4	3.5	2	0.643	0.001	D	26	25.4	731.222	733.314	733.957	733.959	0
2	22102709	193	High	1.5	Vague	2	33	32	17	17.2	19.8	6.0	33	32	17	17.2	19.8	6.0	2	0.652	0.000	D	32	19.8	734.462	735.249	735.901	735.903	0
2	22102709	194	High	1.5	Precise	1	35	34	28	16.7	20.1	9.1	28	34	35	9.1	20.1	16.7	2	0.620	0.000	D	34	20.1	736.406	739.249	739.869	739.872	0
2	22102709	195	High	1.5	Precise	1	35	32	23	16.7	19.8	3.5	32	35	23	19.8	16.7	3.5	2	0.738	0.000	L	32	19.8	740.374	743.283	744.021	744.023	0
2	22102709	196	High	1.5	Precise	1	30	32	22	17.1	19.8	10.6	30	22	32	17.1	10.6	19.8	1	0.795	0.000	L	30	17.1	744.526	746.818	747.613	747.615	0
2	22102709	197	High	1.5	Precise	1	30	33	31	17.1	17.2	16.3	33	31	30	17.2	16.3	17.1	3	1.016	0.000	D	31	16.3	748.118	749.285	750.301	750.303	0
2	22102709	198	High	1.5	Precise	1	30	26	28	17.1	25.4	9.1	26	30	28	25.4	17.1	9.1	2	0.716	0.001	L	26	25.4	750.806	753.129	753.845	753.847	0
2	22102709	199	High	1.5	Vague	2	30	33	1	17.1	17.2	8.0	33	1	30	17.2	8.0	17.1	2	0.847	0.000	L	33	17.2	754.350	754.846	755.693	755.695	0
2	22102709	200	High	1.5	Vague	2	35	34	3	16.7	20.1	4.9	34	3	35	20.1	4.9	16.7	2	0.966	0.000	L	34	20.1	756.197	757.591	758.557	758.559	0
2	22102709	201	High	1.5	Vague	2	34	26	13	20.1	25.4	9.5	34	26	13	20.1	25.4	9.5	2	1.141	0.001	D	26	25.4	759.062	760.504	761.645	761.648	0
2	22102709	202	High	1.5	Precise	1	32	26	28	19.8	25.4	9.1	26	32	28	25.4	19.8	9.1	2	0.844	0.001	L	26	25.4	762.150	764.809	765.653	765.655	0
2	22102709	203	High	1.5	Vague	2	30	34	2	17.1	20.1	3.1	30	34	2	17.1	20.1	3.1	1	1.266	0.000	L	30	17.1	766.157	767.771	769.037	769.039	0
2	22102709	204	High	1.5	Precise	1	32	26	23	19.8	25.4	3.5	23	26	32	3.5	25.4	19.8	3	0.682	0.001	L	23	3.5	769.541	772.347	773.029	773.032	0
2	22102709	205	High	1.5	Precise	1	35	32	28	16.7	19.8	9.1	28	32	35	9.1	19.8	16.7	2	0.794	0.001	D	32	19.8	773.535	775.428	776.221	776.224	0
2	22102709	206	High	1.5	Precise	1	35	30	23	16.7	17.1	3.5	35	30	23	16.7	17.1	3.5	1	1.470	0.000	L	35	16.7	776.726	778.486	779.957	779.959	0
2	22102709	207	High	1.5	Precise	1	35	33	27	16.7	17.2	5.9	27	35	33	5.9	16.7	17.2	NaN	NaN	NaN	NaN	NaN	NaN	780.461	782.178	NaN	783.668	1
2	22102709	208	High	1.5	Vague	2	30	32	17	17.1	19.8	6.0	32	17	30	19.8	6.0	17.1	1	1.351	0.000	R	30	17.1	785.673	788.582	789.933	789.937	0
2	22102709	209	High	1.5	Precise	1	33	26	23	17.2	25.4	3.5	23	33	26	3.5	17.2	25.4	2	0.869	0.000	R	26	25.4	790.440	791.792	792.661	792.664	0
2	22102709	210	High	1.5	Vague	2	30	34	4	17.1	20.1	11.4	30	4	34	17.1	11.4	20.1	2	0.762	0.000	R	34	20.1	793.166	794.579	795.341	795.343	0
2	22102709	211	High	1.5	Vague	2	35	32	17	16.7	19.8	6.0	32	17	35	19.8	6.0	16.7	2	0.952	0.000	L	32	19.8	795.846	797.933	798.885	798.887	0
2	22102709	212	High	1.5	Precise	1	35	30	31	16.7	17.1	16.3	30	35	31	17.1	16.7	16.3	3	1.075	0.001	R	31	16.3	799.390	800.058	801.133	801.136	0
2	22102709	213	High	1.5	Precise	1	33	34	27	17.2	20.1	5.9	34	27	33	20.1	5.9	17.2	2	0.892	0.000	L	34	20.1	801.638	803.464	804.357	804.359	0
2	22102709	214	High	1.5	Vague	2	35	26	13	16.7	25.4	9.5	13	35	26	9.5	16.7	25.4	2	0.551	0.001	R	26	25.4	804.862	807.431	807.981	807.984	0
2	22102709	215	High	1.5	Vague	2	35	33	2	16.7	17.2	3.1	33	2	35	17.2	3.1	16.7	1	0.813	0.000	R	35	16.7	808.486	809.448	810.261	810.263	0
2	22102709	216	High	1.5	Vague	2	35	33	3	16.7	17.2	4.9	33	3	35	17.2	4.9	16.7	1	0.673	0.001	R	35	16.7	810.766	812.388	813.061	813.064	0
2	22102709	217	High	1.5	Vague	2	30	26	3	17.1	25.4	4.9	26	30	3	25.4	17.1	4.9	2	0.876	0.000	L	26	25.4	813.566	814.289	815.165	815.168	0
2	22102709	218	High	1.5	Vague	2	35	26	17	16.7	25.4	6.0	17	26	35	6.0	25.4	16.7	2	0.908	0.000	D	26	25.4	815.671	818.658	819.565	819.568	0
2	22102709	219	High	1.5	Vague	2	34	26	17	20.1	25.4	6.0	34	17	26	20.1	6.0	25.4	2	0.915	0.000	R	26	25.4	820.071	822.266	823.181	823.184	0
2	22102709	220	High	1.5	Vague	2	35	30	2	16.7	17.1	3.1	30	35	2	17.1	16.7	3.1	1	0.922	0.000	D	35	16.7	823.686	826.131	827.053	827.055	0
2	22102709	221	High	1.5	Precise	1	30	33	23	17.1	17.2	3.5	33	23	30	17.2	3.5	17.1	2	0.852	0.000	L	33	17.2	827.557	828.737	829.589	829.592	0
2	22102709	222	High	1.5	Precise	1	32	34	23	19.8	20.1	3.5	23	32	34	3.5	19.8	20.1	2	0.752	0.000	R	34	20.1	830.094	831.293	832.045	832.048	0
2	22102709	223	High	1.5	Vague	2	32	34	2	19.8	20.1	3.1	34	2	32	20.1	3.1	19.8	1	0.836	0.000	R	32	19.8	832.550	833.649	834.485	834.487	0
2	22102709	224	High	1.5	Vague	2	34	26	3	20.1	25.4	4.9	26	34	3	25.4	20.1	4.9	2	0.779	0.001	L	26	25.4	834.990	837.242	838.021	838.024	0
2	22102709	225	High	1.5	Vague	2	32	34	17	19.8	20.1	6.0	34	17	32	20.1	6.0	19.8	1	0.834	0.000	R	32	19.8	838.526	841.147	841.981	841.983	0
2	22102709	226	High	1.5	Vague	2	35	34	2	16.7	20.1	3.1	2	35	34	3.1	16.7	20.1	2	0.974	0.001	R	34	20.1	842.486	845.016	845.989	845.992	0
2	22102709	227	High	1.5	Vague	2	30	26	1	17.1	25.4	8.0	26	1	30	25.4	8.0	17.1	2	0.913	0.001	L	26	25.4	846.494	849.004	849.917	849.919	0
2	22102709	228	High	1.5	Vague	2	35	26	2	16.7	25.4	3.1	2	35	26	3.1	16.7	25.4	2	0.926	0.001	R	26	25.4	850.422	851.215	852.141	852.144	0
2	22102709	229	High	1.5	Precise	1	35	26	31	16.7	25.4	16.3	35	26	31	16.7	25.4	16.3	2	1.142	0.000	D	26	25.4	852.646	854.256	855.397	855.400	0
2	22102709	230	High	1.5	Vague	2	33	26	3	17.2	25.4	4.9	3	26	33	4.9	25.4	17.2	1	1.209	0.000	R	33	17.2	855.902	856.492	857.701	857.703	0
2	22102709	231	High	1.5	Precise	1	35	30	19	16.7	17.1	2.9	35	19	30	16.7	2.9	17.1	2	0.900	0.000	R	30	17.1	858.206	860.985	861.885	861.887	0
2	22102709	232	High	1.5	Precise	1	32	34	22	19.8	20.1	10.6	32	22	34	19.8	10.6	20.1	1	0.682	0.001	L	32	19.8	862.390	864.131	864.813	864.816	0
2	22102709	233	High	1.5	Vague	2	33	26	13	17.2	25.4	9.5	26	33	13	25.4	17.2	9.5	3	0.616	0.000	R	13	9.5	865.318	867.638	868.253	868.256	0
2	22102709	234	High	1.5	Precise	1	35	33	31	16.7	17.2	16.3	35	31	33	16.7	16.3	17.2	3	0.923	0.000	D	31	16.3	868.758	869.683	870.605	870.608	0
2	22102709	235	High	1.5	Vague	2	33	34	2	17.2	20.1	3.1	2	33	34	3.1	17.2	20.1	2	0.853	0.000	R	34	20.1	871.110	872.600	873.453	873.455	0
2	22102709	236	High	1.5	Precise	1	33	34	22	17.2	20.1	10.6	34	22	33	20.1	10.6	17.2	2	0.826	0.001	L	34	20.1	873.958	875.204	876.029	876.031	0
2	22102709	237	High	1.5	Precise	1	30	33	27	17.1	17.2	5.9	27	30	33	5.9	17.1	17.2	2	0.889	0.001	R	33	17.2	876.533	878.524	879.413	879.415	0
2	22102709	238	High	1.5	Precise	1	35	26	23	16.7	25.4	3.5	26	23	35	25.4	3.5	16.7	2	0.910	0.001	L	26	25.4	879.918	882.888	883.797	883.800	0
2	22102709	239	High	1.5	Vague	2	35	30	17	16.7	17.1	6.0	17	30	35	6.0	17.1	16.7	2	0.914	0.000	D	30	17.1	884.302	886.883	887.797	887.799	0
2	22102709	240	High	1.5	Precise	1	32	26	27	19.8	25.4	5.9	32	26	27	19.8	25.4	5.9	1	1.088	0.000	L	32	19.8	888.302	889.733	890.821	890.824	0
2	22102709	241	High	1.5	Precise	1	30	32	23	17.1	19.8	3.5	32	30	23	19.8	17.1	3.5	NaN	NaN	NaN	NaN	NaN	NaN	896.651	898.621	NaN	900.110	1
2	22102709	242	High	1.5	Precise	1	30	34	23	17.1	20.1	3.5	34	23	30	20.1	3.5	17.1	2	0.775	0.000	L	34	20.1	902.113	905.086	905.861	905.864	0
2	22102709	243	High	1.5	Vague	2	32	34	3	19.8	20.1	4.9	32	34	3	19.8	20.1	4.9	1	0.703	0.000	L	32	19.8	906.366	907.494	908.197	908.199	0
2	22102709	244	High	1.5	Vague	2	34	26	2	20.1	25.4	3.1	34	2	26	20.1	3.1	25.4	1	0.632	0.001	L	34	20.1	908.702	909.717	910.349	910.352	0
2	22102709	245	High	1.5	Vague	2	32	34	1	19.8	20.1	8.0	32	1	34	19.8	8.0	20.1	2	0.838	0.000	R	34	20.1	910.854	911.535	912.373	912.376	0
2	22102709	246	High	1.5	Precise	1	33	26	31	17.2	25.4	16.3	26	31	33	25.4	16.3	17.2	2	0.600	0.000	L	26	25.4	912.878	914.741	915.341	915.343	0
2	22102709	247	High	1.5	Vague	2	33	34	1	17.2	20.1	8.0	1	33	34	8.0	17.2	20.1	1	0.887	0.001	D	33	17.2	915.846	918.687	919.573	919.576	0
2	22102709	248	High	1.5	Vague	2	35	32	2	16.7	19.8	3.1	35	2	32	16.7	3.1	19.8	1	1.076	0.000	L	35	16.7	920.078	922.761	923.837	923.840	0
2	22102709	249	High	1.5	Precise	1	30	32	28	17.1	19.8	9.1	30	28	32	17.1	9.1	19.8	3	0.917	0.000	D	28	9.1	924.342	925.993	926.909	926.912	0
2	22102709	250	High	1.5	Precise	1	35	33	19	16.7	17.2	2.9	35	33	19	16.7	17.2	2.9	3	1.465	0.000	R	19	2.9	927.414	929.196	930.661	930.663	0
2	22102709	251	High	1.5	Precise	1	34	26	22	20.1	25.4	10.6	26	22	34	25.4	10.6	20.1	2	1.143	0.000	L	26	25.4	931.166	931.870	933.013	933.016	0
2	22102709	252	High	1.5	Vague	2	35	32	13	16.7	19.8	9.5	13	32	35	9.5	19.8	16.7	2	0.815	0.000	D	32	19.8	933.518	935.302	936.117	936.119	0
2	22102709	253	High	1.5	Precise	1	33	26	22	17.2	25.4	10.6	26	22	33	25.4	10.6	17.2	2	0.789	0.001	L	26	25.4	936.622	937.488	938.277	938.280	0
2	22102709	254	High	1.5	Vague	2	32	26	17	19.8	25.4	6.0	32	17	26	19.8	6.0	25.4	2	0.751	0.000	R	26	25.4	938.782	939.422	940.173	940.175	0
2	22102709	255	High	1.5	Precise	1	35	30	27	16.7	17.1	5.9	27	35	30	5.9	16.7	17.1	2	1.154	0.000	R	30	17.1	940.678	941.659	942.813	942.815	0
2	22102709	256	High	1.5	Precise	1	30	34	31	17.1	20.1	16.3	34	31	30	20.1	16.3	17.1	2	0.861	0.000	L	34	20.1	943.318	945.672	946.533	946.536	0
2	22102709	257	High	1.5	Vague	2	30	32	13	17.1	19.8	9.5	30	13	32	17.1	9.5	19.8	2	1.058	0.000	R	32	19.8	947.038	947.587	948.645	948.648	0
2	22102709	258	High	1.5	Precise	1	33	26	28	17.2	25.4	9.1	33	28	26	17.2	9.1	25.4	2	0.659	0.001	R	26	25.4	949.150	951.818	952.477	952.480	0
2	22102709	259	High	1.5	Vague	2	35	33	4	16.7	17.2	11.4	4	33	35	11.4	17.2	16.7	3	0.886	0.000	L	4	11.4	952.982	953.927	954.813	954.816	0
2	22102709	260	High	1.5	Vague	2	35	26	3	16.7	25.4	4.9	3	35	26	4.9	16.7	25.4	2	0.623	0.000	R	26	25.4	955.318	956.606	957.229	957.231	0
2	22102709	261	High	1.5	Vague	2	33	34	4	17.2	20.1	11.4	34	33	4	20.1	17.2	11.4	3	1.452	0.001	R	4	11.4	957.734	958.593	960.045	960.048	0
2	22102709	262	High	1.5	Precise	1	35	34	31	16.7	20.1	16.3	31	35	34	16.3	16.7	20.1	2	0.848	0.000	R	34	20.1	960.550	961.565	962.413	962.416	0
2	22102709	263	High	1.5	Vague	2	32	34	4	19.8	20.1	11.4	4	32	34	11.4	19.8	20.1	3	0.797	0.001	L	4	11.4	962.918	964.737	965.533	965.536	0
2	22102709	264	High	1.5	Precise	1	33	32	19	17.2	19.8	2.9	19	33	32	2.9	17.2	19.8	2	0.736	0.000	R	32	19.8	966.038	968.285	969.021	969.023	0
2	22102709	265	High	1.5	Precise	1	35	33	28	16.7	17.2	9.1	28	33	35	9.1	17.2	16.7	3	0.842	0.000	L	28	9.1	969.526	971.035	971.877	971.880	0
2	22102709	266	High	1.5	Vague	2	35	30	3	16.7	17.1	4.9	3	35	30	4.9	16.7	17.1	3	1.049	0.000	L	3	4.9	972.382	973.964	975.013	975.016	0
2	22102709	267	High	1.5	Precise	1	32	34	31	19.8	20.1	16.3	31	34	32	16.3	20.1	19.8	1	0.813	0.000	R	32	19.8	975.518	978.417	979.229	979.231	0
2	22102709	268	High	1.5	Precise	1	33	34	23	17.2	20.1	3.5	34	33	23	20.1	17.2	3.5	2	0.853	0.000	L	34	20.1	979.734	981.624	982.477	982.479	0
2	22102709	269	High	1.5	Vague	2	35	30	1	16.7	17.1	8.0	1	30	35	8.0	17.1	16.7	3	0.677	0.001	L	1	8.0	982.982	983.976	984.653	984.656	0
2	22102709	270	High	1.5	Vague	2	33	32	3	17.2	19.8	4.9	33	3	32	17.2	4.9	19.8	2	1.262	0.001	R	32	19.8	985.158	987.663	988.925	988.928	0
2	22102709	271	High	1.5	Precise	1	30	34	28	17.1	20.1	9.1	28	34	30	9.1	20.1	17.1	3	1.455	0.000	L	28	9.1	989.430	990.207	991.661	991.663	0
2	22102709	272	High	1.5	Vague	2	35	30	4	16.7	17.1	11.4	4	35	30	11.4	16.7	17.1	NaN	NaN	NaN	NaN	NaN	NaN	992.166	993.174	NaN	994.660	1
2	22102709	273	High	1.5	Precise	1	30	33	22	17.1	17.2	10.6	33	22	30	17.2	10.6	17.1	2	0.710	0.000	L	33	17.2	996.663	998.463	999.173	999.176	0
2	22102709	274	High	1.5	Precise	1	34	26	31	20.1	25.4	16.3	34	26	31	20.1	25.4	16.3	3	0.594	0.000	R	31	16.3	999.678	1001.748	1002.341	1002.343	0
2	22102709	275	High	1.5	Vague	2	35	32	1	16.7	19.8	8.0	1	35	32	8.0	16.7	19.8	3	0.612	0.001	L	1	8.0	1002.846	1005.746	1006.358	1006.360	0
2	22102709	276	High	1.5	Precise	1	33	34	19	17.2	20.1	2.9	33	34	19	17.2	20.1	2.9	2	0.830	0.000	D	34	20.1	1006.862	1009.479	1010.309	1010.311	0
2	22102709	277	High	1.5	Vague	2	35	34	1	16.7	20.1	8.0	34	1	35	20.1	8.0	16.7	1	0.579	0.000	R	35	16.7	1010.814	1013.202	1013.781	1013.783	0
2	22102709	278	High	1.5	Vague	2	30	32	1	17.1	19.8	8.0	1	32	30	8.0	19.8	17.1	3	0.508	0.001	L	1	8.0	1014.286	1015.274	1015.781	1015.784	0
2	22102709	279	High	1.5	Precise	1	34	26	23	20.1	25.4	3.5	26	34	23	25.4	20.1	3.5	1	0.552	0.001	D	34	20.1	1016.286	1017.238	1017.789	1017.792	0
2	22102709	280	High	1.5	Vague	2	32	26	1	19.8	25.4	8.0	26	32	1	25.4	19.8	8.0	3	0.558	0.001	R	1	8.0	1018.294	1020.480	1021.037	1021.040	0
2	22102709	281	High	1.5	Vague	2	33	34	3	17.2	20.1	4.9	3	34	33	4.9	20.1	17.2	2	1.093	0.000	D	34	20.1	1021.542	1022.200	1023.293	1023.296	0
2	22102709	282	High	1.5	Precise	1	32	34	19	19.8	20.1	2.9	34	32	19	20.1	19.8	2.9	2	0.928	0.000	L	34	20.1	1023.798	1025.141	1026.069	1026.071	0
2	22102709	283	High	1.5	Vague	2	35	33	17	16.7	17.2	6.0	17	33	35	6.0	17.2	16.7	1	0.869	0.000	R	35	16.7	1026.574	1027.865	1028.733	1028.736	0
2	22102709	284	High	1.5	Vague	2	30	26	13	17.1	25.4	9.5	13	30	26	9.5	17.1	25.4	3	0.659	0.001	L	13	9.5	1029.238	1030.346	1031.005	1031.008	0
2	22102709	285	High	1.5	Vague	2	32	26	2	19.8	25.4	3.1	2	26	32	3.1	25.4	19.8	1	0.681	0.000	R	32	19.8	1031.510	1033.444	1034.125	1034.127	0
2	22102709	286	High	1.5	Precise	1	35	34	19	16.7	20.1	2.9	19	34	35	2.9	20.1	16.7	3	0.911	0.000	L	19	2.9	1034.630	1036.102	1037.013	1037.015	0
2	22102709	287	High	1.5	Precise	1	30	26	31	17.1	25.4	16.3	30	31	26	17.1	16.3	25.4	2	1.144	0.000	R	26	25.4	1037.518	1039.965	1041.109	1041.112	0
2	22102709	288	High	1.5	Precise	1	30	34	27	17.1	20.1	5.9	27	34	30	5.9	20.1	17.1	1	0.542	0.000	R	30	17.1	1041.614	1042.991	1043.533	1043.535	0
2	22102709	289	High	1.5	Precise	1	32	26	22	19.8	25.4	10.6	22	32	26	10.6	19.8	25.4	3	0.844	0.001	L	22	10.6	1044.038	1046.658	1047.501	1047.504	0
2	22102709	290	High	1.5	Precise	1	33	32	27	17.2	19.8	5.9	32	33	27	19.8	17.2	5.9	3	0.874	0.001	R	27	5.9	1048.006	1049.131	1050.005	1050.008	0
2	22102709	291	High	1.5	Precise	1	35	34	22	16.7	20.1	10.6	34	35	22	20.1	16.7	10.6	1	0.784	0.000	D	35	16.7	1050.510	1051.717	1052.501	1052.504	0
2	22102709	292	High	1.5	Precise	1	32	26	31	19.8	25.4	16.3	32	31	26	19.8	16.3	25.4	1	0.617	0.000	L	32	19.8	1053.007	1054.469	1055.085	1055.087	0
2	22102709	293	High	1.5	Precise	1	30	32	27	17.1	19.8	5.9	32	30	27	19.8	17.1	5.9	1	0.877	0.000	D	30	17.1	1055.590	1057.433	1058.309	1058.312	0
2	22102709	294	High	1.5	Precise	1	33	34	28	17.2	20.1	9.1	34	33	28	20.1	17.2	9.1	2	0.719	0.000	L	34	20.1	1058.814	1061.471	1062.189	1062.192	0
2	22102709	295	High	1.5	Precise	1	30	26	27	17.1	25.4	5.9	30	27	26	17.1	5.9	25.4	2	0.686	0.001	R	26	25.4	1062.694	1064.103	1064.789	1064.791	0
2	22102709	296	High	1.5	Precise	1	35	30	28	16.7	17.1	9.1	28	30	35	9.1	17.1	16.7	1	0.716	0.000	R	35	16.7	1065.294	1065.865	1066.581	1066.584	0
2	22102709	297	High	1.5	Vague	2	33	26	1	17.2	25.4	8.0	33	1	26	17.2	8.0	25.4	2	0.777	0.000	R	26	25.4	1067.086	1068.829	1069.605	1069.608	0
2	22102709	298	High	1.5	Vague	2	33	32	2	17.2	19.8	3.1	33	2	32	17.2	3.1	19.8	2	0.534	0.000	R	32	19.8	1070.110	1071.415	1071.949	1071.952	0
2	22102709	299	High	1.5	Vague	2	33	26	17	17.2	25.4	6.0	33	17	26	17.2	6.0	25.4	1	0.732	0.001	L	33	17.2	1072.454	1073.905	1074.637	1074.640	0
2	22102709	300	High	1.5	Vague	2	30	33	4	17.1	17.2	11.4	4	33	30	11.4	17.2	17.1	1	0.553	0.000	R	30	17.1	1075.142	1077.029	1077.581	1077.584	0
2	22102709	301	High	1.5	Vague	2	35	34	17	16.7	20.1	6.0	34	35	17	20.1	16.7	6.0	2	1.363	0.000	L	34	20.1	1083.436	1085.571	1086.933	1086.936	0
2	22102709	302	High	1.5	Precise	1	30	32	31	17.1	19.8	16.3	32	30	31	19.8	17.1	16.3	2	0.924	0.000	L	32	19.8	1087.438	1088.985	1089.909	1089.911	0
2	22102709	303	High	1.5	Precise	1	30	34	22	17.1	20.1	10.6	34	22	30	20.1	10.6	17.1	2	0.771	0.000	L	34	20.1	1090.414	1092.826	1093.597	1093.600	0
2	22102709	304	High	1.5	Precise	1	33	26	19	17.2	25.4	2.9	26	33	19	25.4	17.2	2.9	NaN	NaN	NaN	NaN	NaN	NaN	1094.103	1096.159	NaN	1097.648	1
2	22102709	305	High	1.5	Precise	1	35	26	19	16.7	25.4	2.9	19	35	26	2.9	16.7	25.4	2	0.928	0.001	R	26	25.4	1099.651	1102.598	1103.525	1103.528	0
2	22102709	306	High	1.5	Vague	2	30	33	13	17.1	17.2	9.5	13	30	33	9.5	17.1	17.2	2	0.678	0.000	R	33	17.2	1104.030	1105.624	1106.301	1106.304	0
2	22102709	307	High	1.5	Vague	2	35	34	13	16.7	20.1	9.5	13	34	35	9.5	20.1	16.7	3	0.605	0.001	L	13	9.5	1106.806	1109.160	1109.766	1109.769	0
2	22102709	308	High	1.5	Vague	2	30	32	4	17.1	19.8	11.4	30	32	4	17.1	19.8	11.4	1	0.706	0.000	L	30	17.1	1110.271	1112.252	1112.957	1112.960	0
2	22102709	309	High	1.5	Precise	1	30	26	19	17.1	25.4	2.9	30	26	19	17.1	25.4	2.9	3	0.617	0.000	R	19	2.9	1113.462	1115.364	1115.981	1115.984	0
2	22102709	310	High	1.5	Precise	1	33	32	31	17.2	19.8	16.3	31	33	32	16.3	17.2	19.8	2	0.724	0.000	R	32	19.8	1116.486	1117.025	1117.749	1117.752	0
2	22102709	311	High	1.5	Vague	2	30	26	17	17.1	25.4	6.0	17	30	26	6.0	17.1	25.4	2	0.999	0.000	R	26	25.4	1118.254	1119.102	1120.101	1120.104	0
2	22102709	312	High	1.5	Precise	1	35	32	27	16.7	19.8	5.9	27	35	32	5.9	16.7	19.8	2	0.905	0.000	R	32	19.8	1120.606	1123.597	1124.501	1124.504	0
2	22102709	313	High	1.5	Precise	1	34	26	19	20.1	25.4	2.9	19	26	34	2.9	25.4	20.1	1	0.678	0.000	R	34	20.1	1125.006	1126.487	1127.165	1127.167	0
2	22102709	314	High	1.5	Vague	2	33	26	2	17.2	25.4	3.1	33	2	26	17.2	3.1	25.4	2	0.982	0.000	R	26	25.4	1127.670	1130.303	1131.285	1131.288	0
2	22102709	315	High	1.5	Vague	2	33	26	4	17.2	25.4	11.4	4	26	33	11.4	25.4	17.2	3	0.912	0.001	L	4	11.4	1131.790	1134.502	1135.413	1135.416	0
2	22102709	316	High	1.5	Precise	1	35	32	22	16.7	19.8	10.6	22	32	35	10.6	19.8	16.7	2	0.877	0.001	D	32	19.8	1135.919	1136.537	1137.414	1137.416	0
2	22102709	317	High	1.5	Vague	2	35	26	1	16.7	25.4	8.0	26	35	1	25.4	16.7	8.0	2	0.987	0.000	L	26	25.4	1137.919	1138.658	1139.645	1139.648	0
2	22102709	318	High	1.5	Vague	2	30	34	1	17.1	20.1	8.0	30	1	34	17.1	8.0	20.1	2	0.829	0.000	R	34	20.1	1140.150	1140.848	1141.678	1141.680	0
2	22102709	319	High	1.5	Vague	2	30	32	3	17.1	19.8	4.9	30	32	3	17.1	19.8	4.9	1	1.011	0.000	L	30	17.1	1142.183	1143.115	1144.125	1144.127	0
2	22102709	320	High	1.5	Precise	1	30	33	28	17.1	17.2	9.1	30	28	33	17.1	9.1	17.2	3	0.737	0.000	D	28	9.1	1144.630	1145.597	1146.333	1146.335	0
2	22102709	321	High	1.5	Vague	2	30	26	4	17.1	25.4	11.4	30	4	26	17.1	11.4	25.4	3	0.647	0.000	D	4	11.4	1146.838	1147.895	1148.542	1148.544	0
2	22102709	322	High	1.5	Vague	2	30	34	17	17.1	20.1	6.0	34	30	17	20.1	17.1	6.0	2	1.083	0.001	L	34	20.1	1149.046	1151.386	1152.469	1152.472	0
2	22102709	323	High	1.5	Vague	2	30	33	2	17.1	17.2	3.1	30	2	33	17.1	3.1	17.2	3	0.847	0.000	D	2	3.1	1152.974	1154.054	1154.901	1154.904	0
2	22102709	324	High	1.5	Precise	1	30	32	19	17.1	19.8	2.9	30	19	32	17.1	2.9	19.8	1	1.298	0.000	L	30	17.1	1155.406	1158.067	1159.365	1159.369	0
2	22102709	325	High	1.5	Vague	2	30	32	2	17.1	19.8	3.1	32	2	30	19.8	3.1	17.1	1	0.191	0.000	R	30	17.1	1159.871	1160.471	1160.661	1160.664	0
2	22102709	326	High	1.5	Precise	1	35	32	19	16.7	19.8	2.9	19	35	32	2.9	16.7	19.8	2	0.775	0.000	R	32	19.8	1161.166	1162.326	1163.101	1163.104	0
2	22102709	327	High	1.5	Vague	2	34	26	1	20.1	25.4	8.0	34	26	1	20.1	25.4	8.0	3	0.801	0.000	R	1	8.0	1163.606	1165.860	1166.661	1166.664	0
2	22102709	328	High	1.5	Vague	2	35	32	4	16.7	19.8	11.4	32	4	35	19.8	11.4	16.7	1	0.773	0.000	R	35	16.7	1167.166	1168.200	1168.973	1168.976	0
2	22102709	329	High	1.5	Vague	2	33	34	13	17.2	20.1	9.5	33	13	34	17.2	9.5	20.1	1	0.949	0.001	L	33	17.2	1169.478	1172.344	1173.293	1173.296	0
2	22102709	330	High	1.5	Precise	1	35	26	27	16.7	25.4	5.9	26	27	35	25.4	5.9	16.7	NaN	NaN	NaN	NaN	NaN	NaN	1173.798	1174.628	NaN	1176.116	1
2	22102709	331	High	1.5	Precise	1	35	32	31	16.7	19.8	16.3	35	32	31	16.7	19.8	16.3	1	0.006	0.000	L	35	16.7	1178.119	1180.696	1180.701	1180.717	0
2	22102709	332	High	1.5	Precise	1	33	26	27	17.2	25.4	5.9	27	33	26	5.9	17.2	25.4	2	0.564	0.000	R	26	25.4	1181.219	1183.065	1183.629	1183.632	0
2	22102709	333	High	1.5	Precise	1	33	32	23	17.2	19.8	3.5	23	33	32	3.5	17.2	19.8	2	0.672	0.000	R	32	19.8	1184.135	1187.029	1187.701	1187.703	0
2	22102709	334	High	1.5	Precise	1	35	34	27	16.7	20.1	5.9	27	34	35	5.9	20.1	16.7	1	0.530	0.000	R	35	16.7	1188.206	1188.811	1189.341	1189.343	0
2	22102709	335	High	1.5	Vague	2	34	26	4	20.1	25.4	11.4	34	26	4	20.1	25.4	11.4	3	0.683	0.001	R	4	11.4	1189.845	1191.002	1191.685	1191.688	0
2	22102709	336	High	1.5	Precise	1	30	34	19	17.1	20.1	2.9	30	34	19	17.1	20.1	2.9	3	0.536	0.000	R	19	2.9	1192.190	1194.030	1194.565	1194.569	0
2	22102709	337	High	1.5	Vague	2	35	33	13	16.7	17.2	9.5	13	33	35	9.5	17.2	16.7	1	0.588	0.000	R	35	16.7	1195.071	1195.642	1196.229	1196.232	0
2	22102709	338	High	1.5	Precise	1	32	34	27	19.8	20.1	5.9	27	34	32	5.9	20.1	19.8	1	0.688	0.001	R	32	19.8	1196.734	1197.749	1198.437	1198.440	0
2	22102709	339	High	1.5	Vague	2	32	26	4	19.8	25.4	11.4	4	26	32	11.4	25.4	19.8	2	0.522	0.000	D	26	25.4	1198.942	1201.843	1202.365	1202.368	0
2	22102709	340	High	1.5	Vague	2	35	33	1	16.7	17.2	8.0	1	35	33	8.0	16.7	17.2	2	0.664	0.001	R	33	17.2	1202.870	1205.022	1205.685	1205.688	0
2	22102709	341	High	1.5	Vague	2	33	32	13	17.2	19.8	9.5	32	13	33	19.8	9.5	17.2	3	0.649	0.001	D	13	9.5	1206.190	1208.453	1209.101	1209.104	0
2	22102709	342	High	1.5	Precise	1	34	26	27	20.1	25.4	5.9	26	27	34	25.4	5.9	20.1	2	0.000	2.564	L	26	25.4	1209.607	1211.665	1211.666	1211.684	0
2	22102709	343	High	1.5	Vague	2	30	34	13	17.1	20.1	9.5	13	34	30	9.5	20.1	17.1	1	0.000	2.215	R	30	17.1	1212.186	1213.880	1213.880	1213.885	0
2	22102709	344	High	1.5	Precise	1	30	33	19	17.1	17.2	2.9	19	30	33	2.9	17.1	17.2	3	0.508	0.000	L	19	2.9	1214.387	1215.681	1216.189	1216.192	0
2	22102709	345	High	1.5	Precise	1	33	32	22	17.2	19.8	10.6	33	22	32	17.2	10.6	19.8	2	0.739	0.000	R	32	19.8	1216.695	1219.514	1220.253	1220.255	0
2	22102709	346	High	1.5	Precise	1	34	26	28	20.1	25.4	9.1	28	26	34	9.1	25.4	20.1	2	0.536	0.001	D	26	25.4	1220.758	1223.085	1223.622	1223.624	0
2	22102709	347	High	1.5	Vague	2	32	26	13	19.8	25.4	9.5	13	32	26	9.5	19.8	25.4	2	0.565	0.000	R	26	25.4	1224.127	1225.032	1225.597	1225.600	0
2	22102709	348	High	1.5	Precise	1	32	34	28	19.8	20.1	9.1	34	32	28	20.1	19.8	9.1	1	0.652	0.001	D	32	19.8	1226.102	1228.146	1228.798	1228.800	0
2	22102709	349	High	1.5	Vague	2	33	32	4	17.2	19.8	11.4	32	4	33	19.8	11.4	17.2	2	0.769	0.000	L	32	19.8	1229.302	1230.660	1231.429	1231.432	0
2	22102709	350	High	1.5	Vague	2	32	34	13	19.8	20.1	9.5	13	32	34	9.5	19.8	20.1	2	0.658	0.000	R	34	20.1	1231.934	1232.443	1233.101	1233.104	0
2	22102709	351	High	1.5	Vague	2	33	32	1	17.2	19.8	8.0	33	1	32	17.2	8.0	19.8	1	0.667	0.000	L	33	17.2	1233.606	1234.538	1235.205	1235.208	0
2	22102709	352	High	1.5	Precise	1	35	26	22	16.7	25.4	10.6	26	35	22	25.4	16.7	10.6	3	0.843	0.001	R	22	10.6	1235.710	1237.874	1238.718	1238.720	0
2	22102709	353	High	1.5	Vague	2	35	32	3	16.7	19.8	4.9	3	35	32	4.9	16.7	19.8	2	0.895	0.000	R	32	19.8	1239.223	1240.518	1241.413	1241.416	0
2	22102709	354	High	1.5	Precise	1	33	34	31	17.2	20.1	16.3	31	34	33	16.3	20.1	17.2	2	0.959	0.000	D	34	20.1	1241.919	1244.670	1245.630	1245.632	0
2	22102709	355	High	1.5	Precise	1	30	26	22	17.1	25.4	10.6	30	22	26	17.1	10.6	25.4	2	0.640	0.000	R	26	25.4	1246.134	1247.837	1248.477	1248.480	0
2	22102709	356	High	1.5	Vague	2	35	26	4	16.7	25.4	11.4	26	4	35	25.4	11.4	16.7	1	0.611	0.001	R	35	16.7	1248.982	1251.778	1252.389	1252.392	0
2	22102709	357	High	1.5	Precise	1	35	30	22	16.7	17.1	10.6	30	22	35	17.1	10.6	16.7	1	0.675	0.001	R	35	16.7	1252.894	1254.323	1254.998	1255.000	0
2	22102709	358	High	1.5	Precise	1	35	33	23	16.7	17.2	3.5	33	23	35	17.2	3.5	16.7	1	0.945	0.000	R	35	16.7	1255.503	1257.229	1258.173	1258.175	0
2	22102709	359	High	1.5	Precise	1	33	32	28	17.2	19.8	9.1	32	28	33	19.8	9.1	17.2	3	0.980	0.000	D	28	9.1	1258.678	1261.090	1262.069	1262.072	0
2	22102709	360	High	1.5	Vague	2	30	33	3	17.1	17.2	4.9	3	30	33	4.9	17.1	17.2	3	0.584	0.001	L	3	4.9	1262.574	1265.094	1265.677	1265.680	0
