Group	subID	trial	TimePressure	TimeConstraint	Vagueness	Vaguenesscode	ID1	ID2	ID3	V1	V2	V3	ID_left	ID_middle	ID_right	Bid_left	Bid_middle	Bid_right	chosenItem	RT	RTvariance	chosenPosition	chosenID	chosenValue	fixation_time	option_time	choice_time	feedback_time	timeout
2	22102708	1	High	1.5	Precise	1	31	35	27	0.0	10.2	0.0	35	27	31	10.2	0.0	0.0	2	0.760	0.001	L	35	10.2	6.574	8.374	9.134	9.138	0
2	22102708	2	High	1.5	Vague	2	32	33	2	0.1	1.0	0.0	2	33	32	0.0	1.0	0.1	1	0.870	0.000	R	32	0.1	9.641	10.280	11.150	11.153	0
2	22102708	3	High	1.5	Vague	2	32	35	4	0.1	10.2	0.0	35	4	32	10.2	0.0	0.1	2	0.612	0.000	L	35	10.2	11.659	14.338	14.950	14.953	0
2	22102708	4	High	1.5	Vague	2	31	35	2	0.0	10.2	0.0	31	2	35	0.0	0.0	10.2	2	0.672	0.001	R	35	10.2	15.459	16.542	17.214	17.217	0
2	22102708	5	High	1.5	Vague	2	36	33	4	0.0	1.0	0.0	33	36	4	1.0	0.0	0.0	1	0.853	0.000	D	36	0.0	17.721	19.297	20.150	20.155	0
2	22102708	6	High	1.5	Precise	1	33	35	27	1.0	10.2	0.0	35	33	27	10.2	1.0	0.0	2	0.698	0.000	L	35	10.2	20.661	21.276	21.974	21.977	0
2	22102708	7	High	1.5	Precise	1	33	35	23	1.0	10.2	0.0	35	23	33	10.2	0.0	1.0	2	0.541	0.000	L	35	10.2	22.480	23.689	24.230	24.233	0
2	22102708	8	High	1.5	Vague	2	36	34	2	0.0	8.9	0.0	36	34	2	0.0	8.9	0.0	2	1.014	0.001	D	34	8.9	24.736	26.217	27.230	27.233	0
2	22102708	9	High	1.5	Vague	2	36	32	2	0.0	0.1	0.0	32	2	36	0.1	0.0	0.0	3	1.150	0.000	D	2	0.0	27.736	28.712	29.862	29.864	0
2	22102708	10	High	1.5	Vague	2	34	35	6	8.9	10.2	0.0	34	6	35	8.9	0.0	10.2	2	0.719	0.001	R	35	10.2	30.367	31.831	32.550	32.553	0
2	22102708	11	High	1.5	Vague	2	31	36	8	0.0	0.0	0.0	8	31	36	0.0	0.0	0.0	NaN	NaN	NaN	NaN	NaN	NaN	33.056	34.539	NaN	36.030	1
2	22102708	12	High	1.5	Vague	2	36	33	10	0.0	1.0	0.0	33	10	36	1.0	0.0	0.0	2	0.700	0.000	L	33	1.0	38.035	40.954	41.654	41.658	0
2	22102708	13	High	1.5	Precise	1	36	34	23	0.0	8.9	0.0	36	34	23	0.0	8.9	0.0	2	0.943	0.001	D	34	8.9	42.161	44.423	45.366	45.368	0
2	22102708	14	High	1.5	Vague	2	31	34	13	0.0	8.9	0.0	13	34	31	0.0	8.9	0.0	2	0.983	0.000	D	34	8.9	45.871	48.350	49.334	49.336	0
2	22102708	15	High	1.5	Vague	2	31	34	2	0.0	8.9	0.0	34	2	31	8.9	0.0	0.0	2	0.711	0.001	L	34	8.9	49.839	50.920	51.630	51.633	0
2	22102708	16	High	1.5	Vague	2	36	34	6	0.0	8.9	0.0	36	34	6	0.0	8.9	0.0	2	0.767	0.001	D	34	8.9	52.135	54.975	55.742	55.745	0
2	22102708	17	High	1.5	Precise	1	32	34	23	0.1	8.9	0.0	23	34	32	0.0	8.9	0.1	2	0.598	0.000	D	34	8.9	56.248	58.016	58.614	58.616	0
2	22102708	18	High	1.5	Precise	1	32	34	25	0.1	8.9	0.0	25	34	32	0.0	8.9	0.1	2	0.558	0.001	D	34	8.9	59.119	60.704	61.262	61.265	0
2	22102708	19	High	1.5	Precise	1	33	34	25	1.0	8.9	0.0	25	33	34	0.0	1.0	8.9	2	1.009	0.000	R	34	8.9	61.768	64.716	65.726	65.729	0
2	22102708	20	High	1.5	Vague	2	31	34	4	0.0	8.9	0.0	31	4	34	0.0	0.0	8.9	2	0.793	0.000	R	34	8.9	66.232	68.701	69.494	69.496	0
2	22102708	21	High	1.5	Precise	1	36	35	27	0.0	10.2	0.0	35	36	27	10.2	0.0	0.0	2	0.737	0.001	L	35	10.2	69.999	71.245	71.982	71.985	0
2	22102708	22	High	1.5	Precise	1	33	35	25	1.0	10.2	0.0	35	33	25	10.2	1.0	0.0	2	0.595	0.000	L	35	10.2	72.489	73.875	74.470	74.472	0
2	22102708	23	High	1.5	Vague	2	32	35	13	0.1	10.2	0.0	35	13	32	10.2	0.0	0.1	2	0.667	0.000	L	35	10.2	74.976	77.394	78.062	78.064	0
2	22102708	24	High	1.5	Precise	1	31	33	29	0.0	1.0	0.0	33	29	31	1.0	0.0	0.0	2	0.678	0.000	L	33	1.0	78.567	79.824	80.502	80.504	0
2	22102708	25	High	1.5	Vague	2	33	35	13	1.0	10.2	0.0	13	35	33	0.0	10.2	1.0	2	0.755	0.001	D	35	10.2	81.007	81.763	82.518	82.520	0
2	22102708	26	High	1.5	Precise	1	32	33	29	0.1	1.0	0.0	29	32	33	0.0	0.1	1.0	2	1.062	0.001	R	33	1.0	83.023	83.984	85.046	85.049	0
2	22102708	27	High	1.5	Precise	1	32	33	27	0.1	1.0	0.0	27	32	33	0.0	0.1	1.0	2	0.704	0.000	R	33	1.0	85.552	88.502	89.206	89.208	0
2	22102708	28	High	1.5	Vague	2	33	34	4	1.0	8.9	0.0	4	33	34	0.0	1.0	8.9	2	0.789	0.001	R	34	8.9	89.711	90.385	91.174	91.176	0
2	22102708	29	High	1.5	Vague	2	32	34	13	0.1	8.9	0.0	32	34	13	0.1	8.9	0.0	2	0.854	0.001	D	34	8.9	91.679	94.120	94.974	94.977	0
2	22102708	30	High	1.5	Vague	2	36	33	6	0.0	1.0	0.0	33	6	36	1.0	0.0	0.0	2	0.725	0.000	L	33	1.0	95.480	97.209	97.934	97.936	0
2	22102708	31	High	1.5	Vague	2	31	33	13	0.0	1.0	0.0	13	33	31	0.0	1.0	0.0	2	0.792	0.001	D	33	1.0	98.439	100.159	100.950	100.953	0
2	22102708	32	High	1.5	Vague	2	31	36	2	0.0	0.0	0.0	31	2	36	0.0	0.0	0.0	2	1.164	0.001	R	36	0.0	101.455	102.786	103.950	103.953	0
2	22102708	33	High	1.5	Precise	1	32	35	23	0.1	10.2	0.0	35	32	23	10.2	0.1	0.0	2	0.603	0.001	L	35	10.2	104.455	105.347	105.950	105.953	0
2	22102708	34	High	1.5	Vague	2	31	36	13	0.0	0.0	0.0	31	13	36	0.0	0.0	0.0	2	1.243	0.000	R	36	0.0	106.455	107.091	108.334	108.336	0
2	22102708	35	High	1.5	Precise	1	32	33	21	0.1	1.0	0.0	32	21	33	0.1	0.0	1.0	2	1.191	0.001	R	33	1.0	108.839	110.527	111.718	111.721	0
2	22102708	36	High	1.5	Vague	2	31	32	13	0.0	0.1	0.0	32	31	13	0.1	0.0	0.0	NaN	NaN	NaN	NaN	NaN	NaN	112.224	112.797	NaN	114.284	1
2	22102708	37	High	1.5	Vague	2	31	35	10	0.0	10.2	0.0	35	31	10	10.2	0.0	0.0	2	0.544	0.001	L	35	10.2	116.287	118.814	119.358	119.361	0
2	22102708	38	High	1.5	Vague	2	32	35	2	0.1	10.2	0.0	32	35	2	0.1	10.2	0.0	2	0.701	0.000	D	35	10.2	119.864	122.528	123.230	123.232	0
2	22102708	39	High	1.5	Precise	1	31	32	29	0.0	0.1	0.0	31	32	29	0.0	0.1	0.0	2	1.314	0.001	D	32	0.1	123.735	124.404	125.718	125.721	0
2	22102708	40	High	1.5	Vague	2	31	33	2	0.0	1.0	0.0	33	2	31	1.0	0.0	0.0	2	0.648	0.001	L	33	1.0	126.223	127.798	128.446	128.448	0
2	22102708	41	High	1.5	Precise	1	31	34	23	0.0	8.9	0.0	23	31	34	0.0	0.0	8.9	2	0.633	0.001	R	34	8.9	128.951	130.037	130.670	130.672	0
2	22102708	42	High	1.5	Precise	1	31	32	23	0.0	0.1	0.0	31	32	23	0.0	0.1	0.0	2	1.116	0.000	D	32	0.1	131.176	132.090	133.206	133.208	0
2	22102708	43	High	1.5	Precise	1	31	34	25	0.0	8.9	0.0	25	34	31	0.0	8.9	0.0	2	0.827	0.001	D	34	8.9	133.711	134.932	135.758	135.761	0
2	22102708	44	High	1.5	Precise	1	31	33	27	0.0	1.0	0.0	33	27	31	1.0	0.0	0.0	2	0.627	0.001	L	33	1.0	136.263	138.412	139.038	139.040	0
2	22102708	45	High	1.5	Precise	1	36	33	25	0.0	1.0	0.0	33	36	25	1.0	0.0	0.0	2	0.612	0.001	L	33	1.0	139.543	142.058	142.670	142.672	0
2	22102708	46	High	1.5	Vague	2	31	35	8	0.0	10.2	0.0	31	8	35	0.0	0.0	10.2	2	0.723	0.000	R	35	10.2	143.175	144.659	145.382	145.384	0
2	22102708	47	High	1.5	Precise	1	36	35	29	0.0	10.2	0.0	29	35	36	0.0	10.2	0.0	1	0.761	0.001	R	36	0.0	145.887	148.373	149.134	149.136	0
2	22102708	48	High	1.5	Precise	1	31	35	21	0.0	10.2	0.0	35	31	21	10.2	0.0	0.0	2	0.670	0.001	L	35	10.2	149.639	152.336	153.006	153.009	0
2	22102708	49	High	1.5	Precise	1	36	33	27	0.0	1.0	0.0	36	27	33	0.0	0.0	1.0	2	1.012	0.001	R	33	1.0	153.512	154.602	155.614	155.616	0
2	22102708	50	High	1.5	Vague	2	36	33	2	0.0	1.0	0.0	33	2	36	1.0	0.0	0.0	2	0.648	0.001	L	33	1.0	156.119	157.966	158.614	158.616	0
2	22102708	51	High	1.5	Precise	1	31	32	27	0.0	0.1	0.0	32	31	27	0.1	0.0	0.0	NaN	NaN	NaN	NaN	NaN	NaN	159.119	161.673	NaN	163.160	1
2	22102708	52	High	1.5	Precise	1	32	35	29	0.1	10.2	0.0	35	29	32	10.2	0.0	0.1	2	0.580	0.001	L	35	10.2	165.162	166.154	166.734	166.737	0
2	22102708	53	High	1.5	Vague	2	33	35	4	1.0	10.2	0.0	4	33	35	0.0	1.0	10.2	2	0.751	0.000	R	35	10.2	167.240	167.846	168.598	168.600	0
2	22102708	54	High	1.5	Vague	2	36	32	6	0.0	0.1	0.0	6	36	32	0.0	0.0	0.1	1	1.214	0.000	D	36	0.0	169.103	170.808	172.022	172.024	0
2	22102708	55	High	1.5	Vague	2	36	32	10	0.0	0.1	0.0	10	36	32	0.0	0.0	0.1	1	0.679	0.001	D	36	0.0	172.527	174.071	174.750	174.752	0
2	22102708	56	High	1.5	Vague	2	32	34	2	0.1	8.9	0.0	34	32	2	8.9	0.1	0.0	2	0.595	0.001	L	34	8.9	175.255	177.531	178.126	178.128	0
2	22102708	57	High	1.5	Precise	1	32	35	25	0.1	10.2	0.0	35	32	25	10.2	0.1	0.0	2	0.632	0.000	L	35	10.2	178.631	180.645	181.277	181.280	0
2	22102708	58	High	1.5	Precise	1	33	34	21	1.0	8.9	0.0	33	21	34	1.0	0.0	8.9	1	0.792	0.000	L	33	1.0	181.783	182.517	183.309	183.312	0
2	22102708	59	High	1.5	Precise	1	36	33	23	0.0	1.0	0.0	23	36	33	0.0	0.0	1.0	2	0.693	0.001	R	33	1.0	183.815	184.721	185.414	185.416	0
2	22102708	60	High	1.5	Precise	1	36	35	21	0.0	10.2	0.0	21	35	36	0.0	10.2	0.0	1	0.752	0.001	R	36	0.0	185.920	188.270	189.022	189.024	0
2	22102708	61	High	1.5	Vague	2	36	35	4	0.0	10.2	0.0	4	35	36	0.0	10.2	0.0	2	0.745	0.000	D	35	10.2	216.725	217.589	218.334	218.336	0
2	22102708	62	High	1.5	Precise	1	31	32	19	0.0	0.1	0.0	32	31	19	0.1	0.0	0.0	1	1.070	0.001	D	31	0.0	218.839	221.536	222.606	222.608	0
2	22102708	63	High	1.5	Vague	2	33	34	6	1.0	8.9	0.0	34	6	33	8.9	0.0	1.0	2	0.559	0.001	L	34	8.9	223.111	226.063	226.622	226.624	0
2	22102708	64	High	1.5	Vague	2	31	32	6	0.0	0.1	0.0	6	32	31	0.0	0.1	0.0	1	0.970	0.001	R	31	0.0	227.127	230.044	231.014	231.016	0
2	22102708	65	High	1.5	Precise	1	31	36	21	0.0	0.0	0.0	36	21	31	0.0	0.0	0.0	2	1.061	0.000	L	36	0.0	231.519	232.385	233.446	233.448	0
2	22102708	66	High	1.5	Vague	2	31	34	8	0.0	8.9	0.0	31	8	34	0.0	0.0	8.9	2	0.618	0.000	R	34	8.9	233.951	235.667	236.286	236.288	0
2	22102708	67	High	1.5	Precise	1	32	33	25	0.1	1.0	0.0	25	33	32	0.0	1.0	0.1	2	0.869	0.000	D	33	1.0	236.791	237.609	238.478	238.480	0
2	22102708	68	High	1.5	Precise	1	31	34	29	0.0	8.9	0.0	31	29	34	0.0	0.0	8.9	2	0.569	0.000	R	34	8.9	238.982	241.397	241.966	241.968	0
2	22102708	69	High	1.5	Vague	2	36	32	4	0.0	0.1	0.0	32	4	36	0.1	0.0	0.0	1	0.830	0.001	R	36	0.0	242.471	244.120	244.950	244.952	0
2	22102708	70	High	1.5	Vague	2	31	32	2	0.0	0.1	0.0	2	31	32	0.0	0.0	0.1	2	1.020	0.000	R	32	0.1	245.455	248.378	249.398	249.400	0
2	22102708	71	High	1.5	Vague	2	31	32	8	0.0	0.1	0.0	31	32	8	0.0	0.1	0.0	2	1.201	0.001	D	32	0.1	249.903	252.325	253.526	253.528	0
2	22102708	72	High	1.5	Vague	2	36	35	13	0.0	10.2	0.0	13	36	35	0.0	0.0	10.2	2	0.637	0.001	R	35	10.2	254.031	256.641	257.278	257.280	0
2	22102708	73	High	1.5	Vague	2	36	34	10	0.0	8.9	0.0	36	10	34	0.0	0.0	8.9	2	0.575	0.001	R	34	8.9	257.783	259.607	260.182	260.184	0
2	22102708	74	High	1.5	Vague	2	32	34	6	0.1	8.9	0.0	32	6	34	0.1	0.0	8.9	2	0.529	0.001	R	34	8.9	260.687	263.237	263.766	263.768	0
2	22102708	75	High	1.5	Precise	1	33	35	29	1.0	10.2	0.0	29	33	35	0.0	1.0	10.2	2	0.697	0.001	R	35	10.2	264.271	264.829	265.526	265.528	0
2	22102708	76	High	1.5	Precise	1	36	32	19	0.0	0.1	0.0	19	36	32	0.0	0.0	0.1	1	1.019	0.001	D	36	0.0	266.031	267.707	268.726	268.728	0
2	22102708	77	High	1.5	Vague	2	33	35	2	1.0	10.2	0.0	33	35	2	1.0	10.2	0.0	1	0.609	0.000	L	33	1.0	269.231	270.885	271.493	271.496	0
2	22102708	78	High	1.5	Precise	1	36	34	25	0.0	8.9	0.0	25	36	34	0.0	0.0	8.9	2	0.583	0.001	R	34	8.9	271.998	274.583	275.166	275.168	0
2	22102708	79	High	1.5	Precise	1	31	36	25	0.0	0.0	0.0	25	36	31	0.0	0.0	0.0	2	0.883	0.001	D	36	0.0	275.671	276.195	277.078	277.080	0
2	22102708	80	High	1.5	Precise	1	31	33	21	0.0	1.0	0.0	31	33	21	0.0	1.0	0.0	2	0.808	0.000	D	33	1.0	277.583	279.662	280.470	280.472	0
2	22102708	81	High	1.5	Vague	2	34	35	4	8.9	10.2	0.0	34	35	4	8.9	10.2	0.0	1	0.851	0.001	L	34	8.9	280.975	281.611	282.462	282.464	0
2	22102708	82	High	1.5	Vague	2	32	33	6	0.1	1.0	0.0	6	33	32	0.0	1.0	0.1	2	0.864	0.001	D	33	1.0	282.967	283.822	284.686	284.688	0
2	22102708	83	High	1.5	Precise	1	32	35	21	0.1	10.2	0.0	32	21	35	0.1	0.0	10.2	2	0.641	0.000	R	35	10.2	285.191	287.885	288.525	288.528	0
2	22102708	84	High	1.5	Vague	2	31	35	4	0.0	10.2	0.0	35	31	4	10.2	0.0	0.0	2	0.518	0.000	L	35	10.2	289.030	291.615	292.133	292.136	0
2	22102708	85	High	1.5	Precise	1	34	35	19	8.9	10.2	0.0	35	34	19	10.2	8.9	0.0	2	0.513	0.000	L	35	10.2	292.639	295.085	295.597	295.600	0
2	22102708	86	High	1.5	Vague	2	36	35	10	0.0	10.2	0.0	35	36	10	10.2	0.0	0.0	2	1.005	0.001	L	35	10.2	296.103	298.777	299.782	299.784	0
2	22102708	87	High	1.5	Precise	1	31	34	21	0.0	8.9	0.0	21	31	34	0.0	0.0	8.9	2	0.634	0.001	R	34	8.9	300.287	301.811	302.446	302.448	0
2	22102708	88	High	1.5	Precise	1	36	32	21	0.0	0.1	0.0	21	32	36	0.0	0.1	0.0	2	0.820	0.000	D	32	0.1	302.951	303.689	304.509	304.512	0
2	22102708	89	High	1.5	Precise	1	31	34	27	0.0	8.9	0.0	27	31	34	0.0	0.0	8.9	2	0.580	0.000	R	34	8.9	305.014	307.602	308.182	308.184	0
2	22102708	90	High	1.5	Precise	1	31	35	23	0.0	10.2	0.0	35	23	31	10.2	0.0	0.0	2	0.562	0.000	L	35	10.2	308.686	311.580	312.142	312.144	0
2	22102708	91	High	1.5	Vague	2	33	34	8	1.0	8.9	0.0	33	8	34	1.0	0.0	8.9	1	0.728	0.000	L	33	1.0	312.648	313.782	314.510	314.512	0
2	22102708	92	High	1.5	Precise	1	36	34	21	0.0	8.9	0.0	21	34	36	0.0	8.9	0.0	2	0.645	0.001	D	34	8.9	315.015	316.497	317.142	317.145	0
2	22102708	93	High	1.5	Precise	1	32	34	19	0.1	8.9	0.0	34	32	19	8.9	0.1	0.0	2	0.609	0.001	L	34	8.9	317.647	319.717	320.326	320.328	0
2	22102708	94	High	1.5	Vague	2	31	32	10	0.0	0.1	0.0	10	32	31	0.0	0.1	0.0	NaN	NaN	NaN	NaN	NaN	NaN	320.831	321.329	NaN	322.819	1
2	22102708	95	High	1.5	Precise	1	33	35	21	1.0	10.2	0.0	21	33	35	0.0	1.0	10.2	2	0.598	0.000	R	35	10.2	324.823	325.672	326.270	326.272	0
2	22102708	96	High	1.5	Vague	2	33	34	2	1.0	8.9	0.0	34	2	33	8.9	0.0	1.0	1	0.715	0.000	R	33	1.0	326.775	329.602	330.317	330.320	0
2	22102708	97	High	1.5	Precise	1	36	32	25	0.0	0.1	0.0	32	25	36	0.1	0.0	0.0	1	0.797	0.001	R	36	0.0	330.824	333.289	334.086	334.088	0
2	22102708	98	High	1.5	Vague	2	31	35	13	0.0	10.2	0.0	13	31	35	0.0	0.0	10.2	2	0.776	0.001	R	35	10.2	334.591	335.366	336.142	336.144	0
2	22102708	99	High	1.5	Vague	2	31	33	4	0.0	1.0	0.0	31	4	33	0.0	0.0	1.0	2	0.887	0.000	R	33	1.0	336.647	339.527	340.414	340.416	0
2	22102708	100	High	1.5	Vague	2	33	35	8	1.0	10.2	0.0	33	8	35	1.0	0.0	10.2	1	0.770	0.001	L	33	1.0	340.919	342.388	343.158	343.160	0
2	22102708	101	High	1.5	Vague	2	31	33	10	0.0	1.0	0.0	33	10	31	1.0	0.0	0.0	2	0.676	0.001	L	33	1.0	343.663	345.945	346.622	346.624	0
2	22102708	102	High	1.5	Precise	1	34	35	27	8.9	10.2	0.0	27	35	34	0.0	10.2	8.9	1	0.562	0.001	R	34	8.9	347.126	349.668	350.230	350.232	0
2	22102708	103	High	1.5	Vague	2	31	33	6	0.0	1.0	0.0	31	33	6	0.0	1.0	0.0	2	0.791	0.000	D	33	1.0	350.735	351.831	352.622	352.624	0
2	22102708	104	High	1.5	Vague	2	32	34	10	0.1	8.9	0.0	34	10	32	8.9	0.0	0.1	2	0.710	0.000	L	34	8.9	353.127	353.800	354.510	354.512	0
2	22102708	105	High	1.5	Precise	1	33	34	23	1.0	8.9	0.0	23	33	34	0.0	1.0	8.9	2	0.592	0.001	R	34	8.9	355.014	355.982	356.574	356.576	0
2	22102708	106	High	1.5	Vague	2	36	32	8	0.0	0.1	0.0	36	32	8	0.0	0.1	0.0	2	1.275	0.001	D	32	0.1	357.079	359.819	361.094	361.096	0
2	22102708	107	High	1.5	Vague	2	36	35	8	0.0	10.2	0.0	36	8	35	0.0	0.0	10.2	2	0.743	0.001	R	35	10.2	361.599	363.967	364.710	364.712	0
2	22102708	108	High	1.5	Precise	1	31	32	21	0.0	0.1	0.0	32	21	31	0.1	0.0	0.0	1	1.093	0.001	R	31	0.0	365.215	366.705	367.798	367.800	0
2	22102708	109	High	1.5	Vague	2	34	35	2	8.9	10.2	0.0	35	34	2	10.2	8.9	0.0	2	0.499	0.001	L	35	10.2	368.303	370.171	370.670	370.672	0
2	22102708	110	High	1.5	Precise	1	31	36	27	0.0	0.0	0.0	27	36	31	0.0	0.0	0.0	3	1.386	0.000	L	27	0.0	371.175	372.539	373.925	373.928	0
2	22102708	111	High	1.5	Precise	1	34	35	25	8.9	10.2	0.0	34	35	25	8.9	10.2	0.0	1	0.578	0.001	L	34	8.9	374.432	376.419	376.998	377.000	0
2	22102708	112	High	1.5	Vague	2	32	33	4	0.1	1.0	0.0	4	33	32	0.0	1.0	0.1	2	0.892	0.001	D	33	1.0	377.502	380.338	381.230	381.232	0
2	22102708	113	High	1.5	Vague	2	33	34	10	1.0	8.9	0.0	33	10	34	1.0	0.0	8.9	1	0.678	0.001	L	33	1.0	381.735	384.360	385.038	385.040	0
2	22102708	114	High	1.5	Vague	2	33	35	6	1.0	10.2	0.0	33	6	35	1.0	0.0	10.2	1	0.714	0.001	L	33	1.0	385.543	386.516	387.230	387.232	0
2	22102708	115	High	1.5	Precise	1	31	34	19	0.0	8.9	0.0	31	34	19	0.0	8.9	0.0	2	0.823	0.001	D	34	8.9	387.735	388.455	389.278	389.280	0
2	22102708	116	High	1.5	Vague	2	34	35	10	8.9	10.2	0.0	35	10	34	10.2	0.0	8.9	1	0.737	0.000	R	34	8.9	389.783	390.916	391.653	391.656	0
2	22102708	117	High	1.5	Precise	1	36	33	29	0.0	1.0	0.0	36	29	33	0.0	0.0	1.0	2	0.909	0.000	R	33	1.0	392.158	393.800	394.709	394.712	0
2	22102708	118	High	1.5	Precise	1	31	36	19	0.0	0.0	0.0	36	31	19	0.0	0.0	0.0	2	0.903	0.001	L	36	0.0	395.215	398.071	398.974	398.976	0
2	22102708	119	High	1.5	Vague	2	31	34	10	0.0	8.9	0.0	10	31	34	0.0	0.0	8.9	2	0.770	0.000	R	34	8.9	399.478	400.891	401.661	401.664	0
2	22102708	120	High	1.5	Vague	2	32	34	4	0.1	8.9	0.0	4	34	32	0.0	8.9	0.1	2	0.725	0.001	D	34	8.9	402.167	404.753	405.478	405.480	0
2	22102708	121	High	1.5	Precise	1	32	34	27	0.1	8.9	0.0	32	34	27	0.1	8.9	0.0	2	0.809	0.001	D	34	8.9	421.825	424.813	425.622	425.624	0
2	22102708	122	High	1.5	Vague	2	31	36	4	0.0	0.0	0.0	4	36	31	0.0	0.0	0.0	2	0.815	0.000	D	36	0.0	426.127	426.871	427.685	427.688	0
2	22102708	123	High	1.5	Vague	2	33	35	10	1.0	10.2	0.0	33	10	35	1.0	0.0	10.2	1	0.706	0.000	L	33	1.0	428.191	429.436	430.142	430.144	0
2	22102708	124	High	1.5	Vague	2	36	32	13	0.0	0.1	0.0	13	36	32	0.0	0.0	0.1	1	1.099	0.000	D	36	0.0	430.647	432.818	433.917	433.920	0
2	22102708	125	High	1.5	Precise	1	31	35	29	0.0	10.2	0.0	29	31	35	0.0	0.0	10.2	2	1.104	0.000	R	35	10.2	434.422	437.205	438.310	438.312	0
2	22102708	126	High	1.5	Vague	2	32	33	8	0.1	1.0	0.0	33	8	32	1.0	0.0	0.1	2	0.600	0.001	L	33	1.0	438.814	440.470	441.070	441.072	0
2	22102708	127	High	1.5	Vague	2	36	33	8	0.0	1.0	0.0	36	33	8	0.0	1.0	0.0	2	0.898	0.000	D	33	1.0	441.575	444.036	444.934	444.936	0
2	22102708	128	High	1.5	Precise	1	36	32	29	0.0	0.1	0.0	29	32	36	0.0	0.1	0.0	2	0.804	0.001	D	32	0.1	445.439	447.250	448.054	448.057	0
2	22102708	129	High	1.5	Vague	2	36	34	8	0.0	8.9	0.0	36	8	34	0.0	0.0	8.9	2	0.828	0.000	R	34	8.9	448.559	450.681	451.509	451.512	0
2	22102708	130	High	1.5	Precise	1	36	35	23	0.0	10.2	0.0	35	23	36	10.2	0.0	0.0	2	0.704	0.000	L	35	10.2	452.015	453.446	454.149	454.152	0
2	22102708	131	High	1.5	Vague	2	32	35	8	0.1	10.2	0.0	35	32	8	10.2	0.1	0.0	2	1.296	0.000	L	35	10.2	454.655	456.253	457.549	457.552	0
2	22102708	132	High	1.5	Precise	1	36	34	29	0.0	8.9	0.0	34	29	36	8.9	0.0	0.0	2	0.772	0.001	L	34	8.9	458.054	460.969	461.742	461.744	0
2	22102708	133	High	1.5	Vague	2	31	36	6	0.0	0.0	0.0	6	31	36	0.0	0.0	0.0	NaN	NaN	NaN	NaN	NaN	NaN	462.247	464.459	NaN	465.950	1
2	22102708	134	High	1.5	Vague	2	31	34	6	0.0	8.9	0.0	34	6	31	8.9	0.0	0.0	2	0.550	0.001	L	34	8.9	467.954	469.247	469.798	469.800	0
2	22102708	135	High	1.5	Precise	1	31	32	25	0.0	0.1	0.0	25	31	32	0.0	0.0	0.1	2	1.000	0.001	R	32	0.1	470.303	472.725	473.726	473.728	0
2	22102708	136	High	1.5	Precise	1	36	32	23	0.0	0.1	0.0	36	23	32	0.0	0.0	0.1	1	0.628	0.000	L	36	0.0	474.232	476.465	477.093	477.096	0
2	22102708	137	High	1.5	Precise	1	36	34	27	0.0	8.9	0.0	34	36	27	8.9	0.0	0.0	2	0.582	0.000	L	34	8.9	477.599	480.407	480.989	480.992	0
2	22102708	138	High	1.5	Precise	1	36	33	21	0.0	1.0	0.0	36	21	33	0.0	0.0	1.0	2	0.895	0.000	R	33	1.0	481.495	482.631	483.525	483.528	0
2	22102708	139	High	1.5	Precise	1	31	36	23	0.0	0.0	0.0	23	31	36	0.0	0.0	0.0	2	0.850	0.001	R	36	0.0	484.031	486.988	487.838	487.840	0
2	22102708	140	High	1.5	Precise	1	32	35	27	0.1	10.2	0.0	32	27	35	0.1	0.0	10.2	2	0.838	0.001	R	35	10.2	488.342	490.800	491.638	491.640	0
2	22102708	141	High	1.5	Precise	1	36	32	27	0.0	0.1	0.0	32	36	27	0.1	0.0	0.0	NaN	NaN	NaN	NaN	NaN	NaN	492.143	493.669	NaN	495.156	1
2	22102708	142	High	1.5	Precise	1	34	35	21	8.9	10.2	0.0	21	34	35	0.0	8.9	10.2	1	0.792	0.001	D	34	8.9	497.159	498.335	499.126	499.129	0
2	22102708	143	High	1.5	Precise	1	31	33	23	0.0	1.0	0.0	23	33	31	0.0	1.0	0.0	2	0.689	0.000	D	33	1.0	499.632	501.645	502.333	502.336	0
2	22102708	144	High	1.5	Vague	2	31	33	8	0.0	1.0	0.0	8	31	33	0.0	0.0	1.0	2	0.743	0.000	R	33	1.0	502.838	503.494	504.237	504.240	0
2	22102708	145	High	1.5	Vague	2	36	34	13	0.0	8.9	0.0	13	36	34	0.0	0.0	8.9	2	0.571	0.000	R	34	8.9	504.743	506.378	506.949	506.952	0
2	22102708	146	High	1.5	Vague	2	34	35	8	8.9	10.2	0.0	35	8	34	10.2	0.0	8.9	1	0.729	0.001	R	34	8.9	507.454	508.221	508.950	508.952	0
2	22102708	147	High	1.5	Precise	1	33	34	27	1.0	8.9	0.0	34	33	27	8.9	1.0	0.0	2	0.691	0.001	L	34	8.9	509.455	510.290	510.982	510.984	0
2	22102708	148	High	1.5	Precise	1	32	33	23	0.1	1.0	0.0	32	33	23	0.1	1.0	0.0	2	0.659	0.001	D	33	1.0	511.486	512.322	512.982	512.984	0
2	22102708	149	High	1.5	Precise	1	31	33	25	0.0	1.0	0.0	33	25	31	1.0	0.0	0.0	2	0.524	0.001	L	33	1.0	513.487	515.153	515.678	515.680	0
2	22102708	150	High	1.5	Vague	2	31	35	6	0.0	10.2	0.0	31	35	6	0.0	10.2	0.0	3	0.830	0.000	R	6	0.0	516.183	516.815	517.645	517.648	0
2	22102708	151	High	1.5	Precise	1	36	35	19	0.0	10.2	0.0	35	19	36	10.2	0.0	0.0	2	0.698	0.000	L	35	10.2	518.150	518.907	519.605	519.608	0
2	22102708	152	High	1.5	Precise	1	32	34	21	0.1	8.9	0.0	21	32	34	0.0	0.1	8.9	2	0.707	0.000	R	34	8.9	520.111	523.075	523.781	523.784	0
2	22102708	153	High	1.5	Vague	2	33	34	13	1.0	8.9	0.0	33	34	13	1.0	8.9	0.0	1	0.638	0.001	L	33	1.0	524.287	525.103	525.741	525.744	0
2	22102708	154	High	1.5	Vague	2	32	34	8	0.1	8.9	0.0	34	8	32	8.9	0.0	0.1	2	0.614	0.001	L	34	8.9	526.248	529.120	529.734	529.736	0
2	22102708	155	High	1.5	Precise	1	31	35	19	0.0	10.2	0.0	35	19	31	10.2	0.0	0.0	2	0.718	0.001	L	35	10.2	530.239	531.208	531.926	531.928	0
2	22102708	156	High	1.5	Vague	2	36	33	13	0.0	1.0	0.0	33	13	36	1.0	0.0	0.0	2	0.623	0.000	L	33	1.0	532.431	534.111	534.733	534.736	0
2	22102708	157	High	1.5	Precise	1	36	34	19	0.0	8.9	0.0	36	34	19	0.0	8.9	0.0	2	0.728	0.001	D	34	8.9	535.238	537.485	538.214	538.216	0
2	22102708	158	High	1.5	Vague	2	32	35	6	0.1	10.2	0.0	32	35	6	0.1	10.2	0.0	2	0.753	0.001	D	35	10.2	538.718	541.684	542.437	542.440	0
2	22102708	159	High	1.5	Precise	1	32	33	19	0.1	1.0	0.0	32	19	33	0.1	0.0	1.0	2	0.726	0.001	R	33	1.0	542.943	545.871	546.597	546.600	0
2	22102708	160	High	1.5	Vague	2	31	36	10	0.0	0.0	0.0	36	10	31	0.0	0.0	0.0	1	1.287	0.001	R	31	0.0	547.102	548.679	549.966	549.968	0
2	22102708	161	High	1.5	Precise	1	34	35	29	8.9	10.2	0.0	35	34	29	10.2	8.9	0.0	2	0.783	0.000	L	35	10.2	550.471	550.974	551.757	551.760	0
2	22102708	162	High	1.5	Precise	1	36	35	25	0.0	10.2	0.0	36	35	25	0.0	10.2	0.0	2	0.779	0.001	D	35	10.2	552.262	552.963	553.742	553.744	0
2	22102708	163	High	1.5	Precise	1	34	35	23	8.9	10.2	0.0	23	35	34	0.0	10.2	8.9	1	0.602	0.001	R	34	8.9	554.246	555.124	555.726	555.728	0
2	22102708	164	High	1.5	Precise	1	33	34	29	1.0	8.9	0.0	34	33	29	8.9	1.0	0.0	2	0.552	0.000	L	34	8.9	556.231	557.821	558.373	558.375	0
2	22102708	165	High	1.5	Vague	2	36	34	4	0.0	8.9	0.0	4	36	34	0.0	0.0	8.9	2	0.592	0.001	R	34	8.9	558.879	561.382	561.974	561.976	0
2	22102708	166	High	1.5	Vague	2	32	35	10	0.1	10.2	0.0	35	32	10	10.2	0.1	0.0	2	0.623	0.000	L	35	10.2	562.479	564.430	565.053	565.056	0
2	22102708	167	High	1.5	Precise	1	31	33	19	0.0	1.0	0.0	33	19	31	1.0	0.0	0.0	2	0.611	0.001	L	33	1.0	565.558	567.043	567.653	567.656	0
2	22102708	168	High	1.5	Vague	2	32	33	13	0.1	1.0	0.0	32	13	33	0.1	0.0	1.0	2	0.722	0.000	R	33	1.0	568.158	570.475	571.197	571.200	0
2	22102708	169	High	1.5	Vague	2	34	35	13	8.9	10.2	0.0	35	34	13	10.2	8.9	0.0	2	0.801	0.001	L	35	10.2	571.702	574.117	574.918	574.920	0
2	22102708	170	High	1.5	Precise	1	31	36	29	0.0	0.0	0.0	36	31	29	0.0	0.0	0.0	3	1.336	0.001	R	29	0.0	575.423	577.470	578.805	578.808	0
2	22102708	171	High	1.5	Precise	1	31	35	25	0.0	10.2	0.0	35	25	31	10.2	0.0	0.0	2	0.593	0.000	L	35	10.2	579.310	581.364	581.957	581.960	0
2	22102708	172	High	1.5	Precise	1	36	33	19	0.0	1.0	0.0	19	33	36	0.0	1.0	0.0	2	0.920	0.000	D	33	1.0	582.463	582.973	583.894	583.896	0
2	22102708	173	High	1.5	Precise	1	33	35	19	1.0	10.2	0.0	19	35	33	0.0	10.2	1.0	2	0.934	0.001	D	35	10.2	584.399	587.208	588.142	588.144	0
2	22102708	174	High	1.5	Vague	2	36	35	2	0.0	10.2	0.0	35	36	2	10.2	0.0	0.0	2	0.934	0.001	L	35	10.2	588.647	591.480	592.414	592.416	0
2	22102708	175	High	1.5	Vague	2	31	32	4	0.0	0.1	0.0	32	31	4	0.1	0.0	0.0	NaN	NaN	NaN	NaN	NaN	NaN	592.919	593.441	NaN	594.928	1
2	22102708	176	High	1.5	Vague	2	32	33	10	0.1	1.0	0.0	32	10	33	0.1	0.0	1.0	2	0.985	0.001	R	33	1.0	596.930	598.853	599.837	599.840	0
2	22102708	177	High	1.5	Precise	1	32	35	19	0.1	10.2	0.0	35	19	32	10.2	0.0	0.1	2	0.668	0.000	L	35	10.2	600.343	603.017	603.685	603.688	0
2	22102708	178	High	1.5	Vague	2	36	35	6	0.0	10.2	0.0	36	35	6	0.0	10.2	0.0	2	0.789	0.000	D	35	10.2	604.191	606.384	607.174	607.176	0
2	22102708	179	High	1.5	Precise	1	33	34	19	1.0	8.9	0.0	34	33	19	8.9	1.0	0.0	2	0.844	0.000	L	34	8.9	607.679	610.425	611.269	611.272	0
2	22102708	180	High	1.5	Precise	1	32	34	29	0.1	8.9	0.0	34	32	29	8.9	0.1	0.0	2	0.579	0.000	L	34	8.9	611.774	613.947	614.525	614.528	0
2	22102708	181	Low	10.0	Vague	2	31	33	9	0.0	1.0	0.0	33	9	31	1.0	0.0	0.0	2	1.311	0.001	L	33	1.0	641.053	641.798	643.109	643.112	0
2	22102708	182	Low	10.0	Vague	2	36	32	7	0.0	0.1	0.0	36	7	32	0.0	0.0	0.1	1	2.775	0.001	L	36	0.0	643.615	645.846	648.621	648.624	0
2	22102708	183	Low	10.0	Precise	1	31	35	30	0.0	10.2	0.0	31	30	35	0.0	0.0	10.2	2	1.033	0.001	R	35	10.2	649.127	650.444	651.478	651.480	0
2	22102708	184	Low	10.0	Vague	2	34	35	5	8.9	10.2	0.0	34	35	5	8.9	10.2	0.0	1	0.691	0.001	L	34	8.9	651.983	652.611	653.301	653.304	0
2	22102708	185	Low	10.0	Vague	2	36	32	9	0.0	0.1	0.0	36	32	9	0.0	0.1	0.0	1	1.716	0.000	L	36	0.0	653.806	654.513	656.229	656.232	0
2	22102708	186	Low	10.0	Precise	1	31	33	22	0.0	1.0	0.0	22	31	33	0.0	0.0	1.0	2	0.947	0.001	R	33	1.0	656.734	657.851	658.797	658.800	0
2	22102708	187	Low	10.0	Precise	1	31	33	28	0.0	1.0	0.0	28	31	33	0.0	0.0	1.0	2	1.160	0.000	R	33	1.0	659.302	662.269	663.429	663.432	0
2	22102708	188	Low	10.0	Vague	2	32	33	9	0.1	1.0	0.0	32	9	33	0.1	0.0	1.0	2	0.962	0.001	R	33	1.0	663.934	666.843	667.805	667.808	0
2	22102708	189	Low	10.0	Precise	1	32	35	20	0.1	10.2	0.0	35	20	32	10.2	0.0	0.1	2	0.969	0.000	L	35	10.2	668.311	670.772	671.741	671.744	0
2	22102708	190	Low	10.0	Vague	2	36	35	11	0.0	10.2	0.0	11	36	35	0.0	0.0	10.2	2	2.418	0.000	R	35	10.2	672.246	673.819	676.237	676.240	0
2	22102708	191	Low	10.0	Precise	1	31	33	24	0.0	1.0	0.0	24	31	33	0.0	0.0	1.0	2	2.524	0.001	R	33	1.0	676.743	678.161	680.685	680.688	0
2	22102708	192	Low	10.0	Vague	2	36	35	9	0.0	10.2	0.0	35	9	36	10.2	0.0	0.0	2	1.551	0.001	L	35	10.2	681.191	681.783	683.333	683.336	0
2	22102708	193	Low	10.0	Vague	2	36	35	1	0.0	10.2	0.0	35	36	1	10.2	0.0	0.0	2	0.937	0.000	L	35	10.2	683.839	685.156	686.093	686.096	0
2	22102708	194	Low	10.0	Vague	2	33	34	1	1.0	8.9	0.0	33	1	34	1.0	0.0	8.9	1	1.015	0.000	L	33	1.0	686.599	687.918	688.933	688.935	0
2	22102708	195	Low	10.0	Precise	1	32	33	26	0.1	1.0	0.0	26	32	33	0.0	0.1	1.0	2	2.102	0.001	R	33	1.0	689.438	691.023	693.125	693.128	0
2	22102708	196	Low	10.0	Precise	1	36	32	22	0.0	0.1	0.0	32	36	22	0.1	0.0	0.0	1	1.236	0.001	D	36	0.0	693.631	695.298	696.533	696.536	0
2	22102708	197	Low	10.0	Vague	2	32	34	1	0.1	8.9	0.0	1	34	32	0.0	8.9	0.1	2	1.404	0.000	D	34	8.9	697.039	697.809	699.213	699.216	0
2	22102708	198	Low	10.0	Precise	1	32	35	24	0.1	10.2	0.0	24	35	32	0.0	10.2	0.1	2	1.261	0.001	D	35	10.2	699.719	701.848	703.109	703.112	0
2	22102708	199	Low	10.0	Precise	1	31	35	26	0.0	10.2	0.0	31	35	26	0.0	10.2	0.0	2	1.301	0.001	D	35	10.2	703.615	705.496	706.797	706.800	0
2	22102708	200	Low	10.0	Vague	2	33	34	3	1.0	8.9	0.0	34	33	3	8.9	1.0	0.0	2	1.987	0.000	L	34	8.9	707.302	709.178	711.165	711.167	0
2	22102708	201	Low	10.0	Vague	2	31	36	5	0.0	0.0	0.0	5	31	36	0.0	0.0	0.0	2	2.436	0.001	R	36	0.0	711.670	713.849	716.285	716.288	0
2	22102708	202	Low	10.0	Vague	2	31	35	5	0.0	10.2	0.0	31	5	35	0.0	0.0	10.2	2	1.130	0.001	R	35	10.2	716.790	718.507	719.637	719.640	0
2	22102708	203	Low	10.0	Vague	2	31	34	9	0.0	8.9	0.0	34	9	31	8.9	0.0	0.0	2	0.697	0.000	L	34	8.9	720.142	721.732	722.429	722.431	0
2	22102708	204	Low	10.0	Vague	2	36	35	5	0.0	10.2	0.0	5	36	35	0.0	0.0	10.2	2	0.887	0.000	R	35	10.2	722.934	724.119	725.005	725.008	0
2	22102708	205	Low	10.0	Precise	1	36	33	30	0.0	1.0	0.0	30	36	33	0.0	0.0	1.0	2	1.276	0.001	R	33	1.0	725.511	728.306	729.581	729.584	0
2	22102708	206	Low	10.0	Precise	1	31	35	22	0.0	10.2	0.0	35	31	22	10.2	0.0	0.0	2	0.966	0.001	L	35	10.2	730.086	732.400	733.365	733.368	0
2	22102708	207	Low	10.0	Precise	1	36	34	30	0.0	8.9	0.0	30	34	36	0.0	8.9	0.0	2	0.995	0.001	D	34	8.9	733.870	735.827	736.821	736.824	0
2	22102708	208	Low	10.0	Vague	2	33	35	5	1.0	10.2	0.0	5	35	33	0.0	10.2	1.0	1	1.646	0.001	R	33	1.0	737.327	738.383	740.029	740.032	0
2	22102708	209	Low	10.0	Vague	2	36	34	7	0.0	8.9	0.0	34	7	36	8.9	0.0	0.0	2	0.933	0.000	L	34	8.9	740.534	741.705	742.637	742.641	0
2	22102708	210	Low	10.0	Vague	2	36	35	3	0.0	10.2	0.0	3	35	36	0.0	10.2	0.0	2	1.919	0.000	D	35	10.2	743.144	744.542	746.461	746.463	0
2	22102708	211	Low	10.0	Vague	2	32	33	3	0.1	1.0	0.0	33	32	3	1.0	0.1	0.0	2	1.518	0.001	L	33	1.0	746.966	748.783	750.301	750.304	0
2	22102708	212	Low	10.0	Vague	2	32	33	1	0.1	1.0	0.0	1	32	33	0.0	0.1	1.0	2	1.286	0.000	R	33	1.0	750.807	753.567	754.853	754.856	0
2	22102708	213	Low	10.0	Precise	1	31	34	28	0.0	8.9	0.0	34	31	28	8.9	0.0	0.0	2	0.968	0.000	L	34	8.9	755.359	756.653	757.621	757.624	0
2	22102708	214	Low	10.0	Vague	2	32	34	11	0.1	8.9	0.0	34	11	32	8.9	0.0	0.1	2	1.354	0.001	L	34	8.9	758.126	760.764	762.117	762.120	0
2	22102708	215	Low	10.0	Precise	1	31	34	24	0.0	8.9	0.0	31	34	24	0.0	8.9	0.0	2	1.053	0.001	D	34	8.9	762.622	765.208	766.261	766.264	0
2	22102708	216	Low	10.0	Precise	1	31	35	24	0.0	10.2	0.0	24	35	31	0.0	10.2	0.0	2	1.282	0.001	D	35	10.2	766.766	768.571	769.853	769.856	0
2	22102708	217	Low	10.0	Precise	1	31	32	22	0.0	0.1	0.0	31	22	32	0.0	0.0	0.1	2	2.695	0.001	R	32	0.1	770.359	771.830	774.525	774.528	0
2	22102708	218	Low	10.0	Precise	1	33	34	26	1.0	8.9	0.0	26	34	33	0.0	8.9	1.0	2	1.067	0.000	D	34	8.9	775.030	776.394	777.461	777.463	0
2	22102708	219	Low	10.0	Vague	2	31	35	1	0.0	10.2	0.0	1	31	35	0.0	0.0	10.2	2	1.616	0.000	R	35	10.2	777.966	779.773	781.389	781.391	0
2	22102708	220	Low	10.0	Vague	2	31	34	1	0.0	8.9	0.0	34	31	1	8.9	0.0	0.0	2	0.751	0.000	L	34	8.9	781.895	784.343	785.093	785.095	0
2	22102708	221	Low	10.0	Vague	2	31	32	1	0.0	0.1	0.0	32	31	1	0.1	0.0	0.0	2	1.633	0.001	L	32	0.1	785.598	786.212	787.845	787.848	0
2	22102708	222	Low	10.0	Precise	1	31	33	20	0.0	1.0	0.0	20	33	31	0.0	1.0	0.0	2	1.160	0.001	D	33	1.0	788.351	790.917	792.077	792.080	0
2	22102708	223	Low	10.0	Precise	1	34	35	22	8.9	10.2	0.0	35	34	22	10.2	8.9	0.0	1	1.950	0.001	D	34	8.9	792.583	794.231	796.181	796.184	0
2	22102708	224	Low	10.0	Vague	2	31	34	3	0.0	8.9	0.0	31	34	3	0.0	8.9	0.0	2	0.923	0.000	D	34	8.9	796.687	798.690	799.613	799.615	0
2	22102708	225	Low	10.0	Precise	1	31	36	20	0.0	0.0	0.0	36	31	20	0.0	0.0	0.0	2	1.674	0.000	L	36	0.0	800.118	802.275	803.949	803.951	0
2	22102708	226	Low	10.0	Precise	1	32	34	22	0.1	8.9	0.0	34	32	22	8.9	0.1	0.0	2	2.317	0.000	L	34	8.9	804.454	805.008	807.325	807.327	0
2	22102708	227	Low	10.0	Precise	1	36	35	26	0.0	10.2	0.0	35	26	36	10.2	0.0	0.0	2	1.236	0.000	L	35	10.2	807.830	810.513	811.749	811.751	0
2	22102708	228	Low	10.0	Precise	1	31	33	26	0.0	1.0	0.0	26	33	31	0.0	1.0	0.0	2	0.978	0.001	D	33	1.0	812.254	813.755	814.733	814.736	0
2	22102708	229	Low	10.0	Vague	2	33	35	9	1.0	10.2	0.0	35	33	9	10.2	1.0	0.0	1	1.188	0.000	D	33	1.0	815.238	815.801	816.989	816.991	0
2	22102708	230	Low	10.0	Vague	2	32	34	5	0.1	8.9	0.0	34	32	5	8.9	0.1	0.0	2	0.944	0.001	L	34	8.9	817.494	819.910	820.853	820.855	0
2	22102708	231	Low	10.0	Vague	2	36	32	5	0.0	0.1	0.0	5	32	36	0.0	0.1	0.0	1	2.791	0.000	R	36	0.0	821.358	822.230	825.021	825.023	0
2	22102708	232	Low	10.0	Vague	2	33	35	11	1.0	10.2	0.0	11	35	33	0.0	10.2	1.0	1	1.913	0.001	R	33	1.0	825.526	827.652	829.565	829.568	0
2	22102708	233	Low	10.0	Precise	1	36	32	20	0.0	0.1	0.0	20	36	32	0.0	0.0	0.1	2	1.655	0.001	R	32	0.1	830.070	831.806	833.461	833.463	0
2	22102708	234	Low	10.0	Precise	1	31	32	24	0.0	0.1	0.0	24	31	32	0.0	0.0	0.1	1	3.358	0.001	D	31	0.0	833.966	835.087	838.445	838.448	0
2	22102708	235	Low	10.0	Precise	1	31	34	26	0.0	8.9	0.0	31	26	34	0.0	0.0	8.9	2	1.045	0.001	R	34	8.9	838.950	839.624	840.669	840.671	0
2	22102708	236	Low	10.0	Precise	1	32	34	20	0.1	8.9	0.0	20	32	34	0.0	0.1	8.9	2	1.001	0.001	R	34	8.9	841.174	842.316	843.317	843.319	0
2	22102708	237	Low	10.0	Precise	1	33	35	24	1.0	10.2	0.0	33	35	24	1.0	10.2	0.0	1	0.872	0.000	L	33	1.0	843.822	845.509	846.381	846.383	0
2	22102708	238	Low	10.0	Precise	1	32	35	28	0.1	10.2	0.0	32	28	35	0.1	0.0	10.2	2	1.427	0.000	R	35	10.2	846.886	848.098	849.525	849.527	0
2	22102708	239	Low	10.0	Vague	2	31	33	3	0.0	1.0	0.0	3	31	33	0.0	0.0	1.0	2	1.937	0.001	R	33	1.0	850.030	852.020	853.957	853.960	0
2	22102708	240	Low	10.0	Vague	2	34	35	1	8.9	10.2	0.0	1	34	35	0.0	8.9	10.2	1	1.260	0.001	D	34	8.9	854.463	857.185	858.445	858.448	0
2	22102708	241	Low	10.0	Precise	1	33	34	30	1.0	8.9	0.0	33	30	34	1.0	0.0	8.9	1	1.698	0.001	L	33	1.0	876.536	877.875	879.573	879.575	0
2	22102708	242	Low	10.0	Precise	1	36	34	28	0.0	8.9	0.0	34	28	36	8.9	0.0	0.0	2	0.971	0.000	L	34	8.9	880.078	881.394	882.365	882.367	0
2	22102708	243	Low	10.0	Precise	1	36	35	22	0.0	10.2	0.0	36	22	35	0.0	0.0	10.2	2	0.920	0.000	R	35	10.2	882.870	884.413	885.333	885.335	0
2	22102708	244	Low	10.0	Precise	1	36	33	22	0.0	1.0	0.0	33	22	36	1.0	0.0	0.0	2	1.096	0.000	L	33	1.0	885.838	887.860	888.957	888.959	0
2	22102708	245	Low	10.0	Vague	2	32	34	3	0.1	8.9	0.0	3	34	32	0.0	8.9	0.1	2	1.221	0.001	D	34	8.9	889.462	889.968	891.189	891.191	0
2	22102708	246	Low	10.0	Vague	2	31	36	9	0.0	0.0	0.0	9	36	31	0.0	0.0	0.0	2	1.880	0.000	D	36	0.0	891.694	893.517	895.397	895.399	0
2	22102708	247	Low	10.0	Vague	2	31	33	5	0.0	1.0	0.0	31	33	5	0.0	1.0	0.0	2	1.035	0.000	D	33	1.0	895.902	896.769	897.805	897.807	0
2	22102708	248	Low	10.0	Vague	2	36	33	9	0.0	1.0	0.0	36	33	9	0.0	1.0	0.0	2	0.780	0.000	D	33	1.0	898.310	899.785	900.565	900.567	0
2	22102708	249	Low	10.0	Precise	1	32	35	26	0.1	10.2	0.0	26	32	35	0.0	0.1	10.2	2	2.231	0.000	R	35	10.2	901.070	903.974	906.205	906.207	0
2	22102708	250	Low	10.0	Vague	2	32	35	9	0.1	10.2	0.0	32	9	35	0.1	0.0	10.2	2	2.035	0.000	R	35	10.2	906.710	907.489	909.525	909.527	0
2	22102708	251	Low	10.0	Precise	1	32	33	28	0.1	1.0	0.0	33	32	28	1.0	0.1	0.0	2	0.980	0.000	L	33	1.0	910.030	912.665	913.645	913.647	0
2	22102708	252	Low	10.0	Precise	1	31	36	30	0.0	0.0	0.0	36	30	31	0.0	0.0	0.0	2	2.602	0.000	L	36	0.0	914.150	914.955	917.557	917.559	0
2	22102708	253	Low	10.0	Vague	2	32	35	3	0.1	10.2	0.0	35	32	3	10.2	0.1	0.0	2	2.169	0.001	L	35	10.2	918.062	919.332	921.501	921.503	0
2	22102708	254	Low	10.0	Vague	2	33	34	9	1.0	8.9	0.0	9	34	33	0.0	8.9	1.0	2	0.862	0.000	D	34	8.9	922.006	924.166	925.029	925.031	0
2	22102708	255	Low	10.0	Vague	2	31	33	7	0.0	1.0	0.0	31	7	33	0.0	0.0	1.0	2	1.525	0.001	R	33	1.0	925.534	927.912	929.437	929.439	0
2	22102708	256	Low	10.0	Vague	2	36	34	1	0.0	8.9	0.0	1	34	36	0.0	8.9	0.0	2	0.992	0.001	D	34	8.9	929.942	932.894	933.885	933.888	0
2	22102708	257	Low	10.0	Precise	1	31	36	22	0.0	0.0	0.0	22	36	31	0.0	0.0	0.0	2	1.886	0.001	D	36	0.0	934.391	934.967	936.853	936.855	0
2	22102708	258	Low	10.0	Vague	2	36	33	7	0.0	1.0	0.0	33	36	7	1.0	0.0	0.0	2	1.172	0.001	L	33	1.0	937.358	939.009	940.181	940.184	0
2	22102708	259	Low	10.0	Precise	1	36	35	30	0.0	10.2	0.0	35	36	30	10.2	0.0	0.0	2	1.592	0.000	L	35	10.2	940.686	942.293	943.885	943.887	0
2	22102708	260	Low	10.0	Precise	1	36	35	24	0.0	10.2	0.0	35	36	24	10.2	0.0	0.0	2	1.032	0.001	L	35	10.2	944.390	944.917	945.949	945.951	0
2	22102708	261	Low	10.0	Precise	1	32	33	20	0.1	1.0	0.0	33	20	32	1.0	0.0	0.1	2	1.300	0.001	L	33	1.0	946.454	947.473	948.773	948.775	0
2	22102708	262	Low	10.0	Precise	1	36	32	26	0.0	0.1	0.0	26	32	36	0.0	0.1	0.0	1	1.914	0.001	R	36	0.0	949.278	949.835	951.749	951.751	0
2	22102708	263	Low	10.0	Vague	2	33	34	7	1.0	8.9	0.0	34	33	7	8.9	1.0	0.0	2	1.041	0.000	L	34	8.9	952.254	953.924	954.965	954.967	0
2	22102708	264	Low	10.0	Vague	2	32	35	7	0.1	10.2	0.0	35	32	7	10.2	0.1	0.0	2	1.054	0.001	L	35	10.2	955.471	958.375	959.429	959.432	0
2	22102708	265	Low	10.0	Vague	2	31	32	3	0.0	0.1	0.0	32	3	31	0.1	0.0	0.0	2	2.514	0.000	L	32	0.1	959.935	962.522	965.037	965.039	0
2	22102708	266	Low	10.0	Precise	1	32	33	22	0.1	1.0	0.0	22	32	33	0.0	0.1	1.0	2	1.618	0.001	R	33	1.0	965.542	966.554	968.173	968.175	0
2	22102708	267	Low	10.0	Vague	2	31	32	11	0.0	0.1	0.0	11	31	32	0.0	0.0	0.1	2	2.821	0.001	R	32	0.1	968.678	969.368	972.189	972.191	0
2	22102708	268	Low	10.0	Vague	2	32	35	5	0.1	10.2	0.0	35	5	32	10.2	0.0	0.1	2	1.654	0.001	L	35	10.2	972.694	973.639	975.293	975.295	0
2	22102708	269	Low	10.0	Vague	2	31	34	7	0.0	8.9	0.0	31	7	34	0.0	0.0	8.9	2	1.091	0.000	R	34	8.9	975.798	977.913	979.005	979.007	0
2	22102708	270	Low	10.0	Precise	1	34	35	26	8.9	10.2	0.0	34	26	35	8.9	0.0	10.2	1	0.673	0.000	L	34	8.9	979.510	980.611	981.285	981.287	0
2	22102708	271	Low	10.0	Vague	2	31	34	11	0.0	8.9	0.0	34	31	11	8.9	0.0	0.0	2	0.673	0.000	L	34	8.9	981.790	984.708	985.381	985.383	0
2	22102708	272	Low	10.0	Vague	2	36	33	11	0.0	1.0	0.0	33	36	11	1.0	0.0	0.0	2	1.261	0.000	L	33	1.0	985.886	986.392	987.653	987.655	0
2	22102708	273	Low	10.0	Vague	2	36	33	1	0.0	1.0	0.0	33	36	1	1.0	0.0	0.0	2	0.847	0.000	L	33	1.0	988.157	990.822	991.669	991.671	0
2	22102708	274	Low	10.0	Precise	1	36	34	26	0.0	8.9	0.0	36	34	26	0.0	8.9	0.0	2	0.979	0.001	D	34	8.9	992.173	994.514	995.493	995.495	0
2	22102708	275	Low	10.0	Vague	2	31	36	3	0.0	0.0	0.0	36	31	3	0.0	0.0	0.0	2	1.665	0.000	L	36	0.0	995.998	996.780	998.445	998.447	0
2	22102708	276	Low	10.0	Precise	1	34	35	24	8.9	10.2	0.0	34	24	35	8.9	0.0	10.2	1	1.103	0.001	L	34	8.9	998.949	999.902	1001.005	1001.007	0
2	22102708	277	Low	10.0	Precise	1	31	36	24	0.0	0.0	0.0	31	24	36	0.0	0.0	0.0	2	1.657	0.000	R	36	0.0	1001.510	1004.459	1006.116	1006.119	0
2	22102708	278	Low	10.0	Precise	1	33	35	20	1.0	10.2	0.0	33	20	35	1.0	0.0	10.2	1	1.521	0.000	L	33	1.0	1006.622	1007.836	1009.357	1009.360	0
2	22102708	279	Low	10.0	Vague	2	36	33	5	0.0	1.0	0.0	33	5	36	1.0	0.0	0.0	2	0.916	0.000	L	33	1.0	1009.862	1012.456	1013.373	1013.375	0
2	22102708	280	Low	10.0	Precise	1	31	34	22	0.0	8.9	0.0	34	31	22	8.9	0.0	0.0	2	1.110	0.001	L	34	8.9	1013.878	1015.623	1016.733	1016.736	0
2	22102708	281	Low	10.0	Vague	2	32	35	11	0.1	10.2	0.0	35	11	32	10.2	0.0	0.1	2	2.421	0.000	L	35	10.2	1017.239	1019.031	1021.453	1021.455	0
2	22102708	282	Low	10.0	Precise	1	32	35	30	0.1	10.2	0.0	30	35	32	0.0	10.2	0.1	2	3.026	0.001	D	35	10.2	1021.957	1022.947	1025.973	1025.975	0
2	22102708	283	Low	10.0	Vague	2	32	33	7	0.1	1.0	0.0	7	33	32	0.0	1.0	0.1	2	0.998	0.001	D	33	1.0	1026.478	1027.567	1028.565	1028.567	0
2	22102708	284	Low	10.0	Precise	1	33	35	26	1.0	10.2	0.0	35	26	33	10.2	0.0	1.0	1	1.644	0.001	R	33	1.0	1029.070	1032.041	1033.685	1033.687	0
2	22102708	285	Low	10.0	Precise	1	36	34	22	0.0	8.9	0.0	34	36	22	8.9	0.0	0.0	2	0.704	0.000	L	34	8.9	1034.190	1035.308	1036.012	1036.015	0
2	22102708	286	Low	10.0	Precise	1	32	34	30	0.1	8.9	0.0	32	30	34	0.1	0.0	8.9	2	1.087	0.000	R	34	8.9	1036.518	1038.701	1039.788	1039.791	0
2	22102708	287	Low	10.0	Precise	1	32	33	24	0.1	1.0	0.0	33	32	24	1.0	0.1	0.0	2	0.893	0.000	L	33	1.0	1040.294	1040.888	1041.780	1041.783	0
2	22102708	288	Low	10.0	Precise	1	34	35	30	8.9	10.2	0.0	30	35	34	0.0	10.2	8.9	1	0.837	0.000	R	34	8.9	1042.286	1044.152	1044.989	1044.991	0
2	22102708	289	Low	10.0	Precise	1	36	33	24	0.0	1.0	0.0	36	33	24	0.0	1.0	0.0	2	0.794	0.001	D	33	1.0	1045.494	1047.667	1048.461	1048.464	0
2	22102708	290	Low	10.0	Vague	2	33	35	3	1.0	10.2	0.0	33	3	35	1.0	0.0	10.2	1	2.008	0.001	L	33	1.0	1048.966	1050.973	1052.981	1052.983	0
2	22102708	291	Low	10.0	Precise	1	36	35	20	0.0	10.2	0.0	20	35	36	0.0	10.2	0.0	2	1.092	0.001	D	35	10.2	1053.486	1054.953	1056.045	1056.047	0
2	22102708	292	Low	10.0	Vague	2	31	33	1	0.0	1.0	0.0	31	1	33	0.0	0.0	1.0	2	1.201	0.001	R	33	1.0	1056.550	1057.148	1058.349	1058.351	0
2	22102708	293	Low	10.0	Vague	2	36	33	3	0.0	1.0	0.0	3	36	33	0.0	0.0	1.0	2	1.343	0.000	R	33	1.0	1058.854	1061.414	1062.756	1062.759	0
2	22102708	294	Low	10.0	Precise	1	33	35	30	1.0	10.2	0.0	35	30	33	10.2	0.0	1.0	1	2.711	0.001	R	33	1.0	1063.262	1063.862	1066.573	1066.575	0
2	22102708	295	Low	10.0	Vague	2	36	32	3	0.0	0.1	0.0	3	36	32	0.0	0.0	0.1	1	2.426	0.001	D	36	0.0	1067.078	1069.802	1072.229	1072.231	0
2	22102708	296	Low	10.0	Precise	1	32	34	26	0.1	8.9	0.0	32	26	34	0.1	0.0	8.9	2	0.873	0.001	R	34	8.9	1072.734	1074.308	1075.181	1075.183	0
2	22102708	297	Low	10.0	Vague	2	31	36	1	0.0	0.0	0.0	36	1	31	0.0	0.0	0.0	2	2.125	0.001	L	36	0.0	1075.686	1076.207	1078.333	1078.335	0
2	22102708	298	Low	10.0	Vague	2	31	33	11	0.0	1.0	0.0	31	33	11	0.0	1.0	0.0	2	1.183	0.001	D	33	1.0	1078.838	1081.182	1082.365	1082.367	0
2	22102708	299	Low	10.0	Precise	1	31	33	30	0.0	1.0	0.0	30	31	33	0.0	0.0	1.0	2	2.773	0.000	R	33	1.0	1082.870	1083.504	1086.276	1086.280	0
2	22102708	300	Low	10.0	Precise	1	36	33	20	0.0	1.0	0.0	36	20	33	0.0	0.0	1.0	2	1.528	0.001	R	33	1.0	1086.782	1087.916	1089.445	1089.447	0
2	22102708	301	Low	10.0	Vague	2	36	34	5	0.0	8.9	0.0	36	5	34	0.0	0.0	8.9	2	0.932	0.001	R	34	8.9	1096.642	1097.193	1098.125	1098.127	0
2	22102708	302	Low	10.0	Vague	2	36	34	11	0.0	8.9	0.0	34	11	36	8.9	0.0	0.0	2	1.381	0.000	L	34	8.9	1098.629	1101.144	1102.524	1102.527	0
2	22102708	303	Low	10.0	Vague	2	32	33	5	0.1	1.0	0.0	32	33	5	0.1	1.0	0.0	2	0.922	0.001	D	33	1.0	1103.029	1104.067	1104.989	1104.991	0
2	22102708	304	Low	10.0	Precise	1	31	32	26	0.0	0.1	0.0	26	32	31	0.0	0.1	0.0	2	3.043	0.001	D	32	0.1	1105.494	1106.322	1109.365	1109.367	0
2	22102708	305	Low	10.0	Vague	2	33	35	7	1.0	10.2	0.0	33	7	35	1.0	0.0	10.2	1	1.187	0.000	L	33	1.0	1109.870	1111.330	1112.517	1112.519	0
2	22102708	306	Low	10.0	Vague	2	34	35	9	8.9	10.2	0.0	9	34	35	0.0	8.9	10.2	1	0.921	0.000	D	34	8.9	1113.022	1113.812	1114.733	1114.735	0
2	22102708	307	Low	10.0	Precise	1	31	36	26	0.0	0.0	0.0	31	36	26	0.0	0.0	0.0	3	2.087	0.000	R	26	0.0	1115.238	1115.790	1117.877	1117.879	0
2	22102708	308	Low	10.0	Precise	1	36	32	28	0.0	0.1	0.0	36	32	28	0.0	0.1	0.0	1	1.452	0.000	L	36	0.0	1118.382	1120.760	1122.212	1122.215	0
2	22102708	309	Low	10.0	Vague	2	31	35	3	0.0	10.2	0.0	31	3	35	0.0	0.0	10.2	2	1.148	0.001	R	35	10.2	1122.718	1125.649	1126.797	1126.799	0
2	22102708	310	Low	10.0	Precise	1	36	35	28	0.0	10.2	0.0	28	35	36	0.0	10.2	0.0	2	1.342	0.000	D	35	10.2	1127.301	1129.703	1131.044	1131.047	0
2	22102708	311	Low	10.0	Vague	2	31	32	5	0.0	0.1	0.0	32	31	5	0.1	0.0	0.0	2	3.234	0.001	L	32	0.1	1131.550	1132.331	1135.565	1135.567	0
2	22102708	312	Low	10.0	Vague	2	31	35	11	0.0	10.2	0.0	31	11	35	0.0	0.0	10.2	2	1.625	0.000	R	35	10.2	1136.070	1136.932	1138.557	1138.559	0
2	22102708	313	Low	10.0	Precise	1	36	32	24	0.0	0.1	0.0	36	32	24	0.0	0.1	0.0	1	1.827	0.000	L	36	0.0	1139.062	1141.353	1143.180	1143.183	0
2	22102708	314	Low	10.0	Precise	1	36	34	24	0.0	8.9	0.0	34	24	36	8.9	0.0	0.0	2	0.656	0.000	L	34	8.9	1143.686	1146.317	1146.972	1146.975	0
2	22102708	315	Low	10.0	Vague	2	36	35	7	0.0	10.2	0.0	7	35	36	0.0	10.2	0.0	2	1.429	0.001	D	35	10.2	1147.478	1148.600	1150.029	1150.031	0
2	22102708	316	Low	10.0	Precise	1	33	35	22	1.0	10.2	0.0	35	33	22	10.2	1.0	0.0	2	0.666	0.000	L	35	10.2	1150.534	1152.043	1152.708	1152.711	0
2	22102708	317	Low	10.0	Precise	1	32	34	24	0.1	8.9	0.0	32	24	34	0.1	0.0	8.9	2	1.405	0.001	R	34	8.9	1153.215	1156.095	1157.501	1157.503	0
2	22102708	318	Low	10.0	Precise	1	31	32	20	0.0	0.1	0.0	20	31	32	0.0	0.0	0.1	2	2.924	0.001	R	32	0.1	1158.006	1160.368	1163.293	1163.295	0
2	22102708	319	Low	10.0	Precise	1	31	34	30	0.0	8.9	0.0	30	31	34	0.0	0.0	8.9	2	0.812	0.000	R	34	8.9	1163.798	1166.688	1167.500	1167.503	0
2	22102708	320	Low	10.0	Vague	2	34	35	11	8.9	10.2	0.0	11	35	34	0.0	10.2	8.9	2	1.063	0.001	D	35	10.2	1168.005	1170.534	1171.597	1171.599	0
2	22102708	321	Low	10.0	Precise	1	36	34	20	0.0	8.9	0.0	34	20	36	8.9	0.0	0.0	2	0.730	0.000	L	34	8.9	1172.102	1174.858	1175.588	1175.591	0
2	22102708	322	Low	10.0	Vague	2	36	34	3	0.0	8.9	0.0	34	3	36	8.9	0.0	0.0	2	0.661	0.001	L	34	8.9	1176.094	1178.344	1179.005	1179.007	0
2	22102708	323	Low	10.0	Vague	2	32	34	7	0.1	8.9	0.0	7	32	34	0.0	0.1	8.9	2	3.005	0.001	R	34	8.9	1179.509	1181.568	1184.573	1184.575	0
2	22102708	324	Low	10.0	Precise	1	31	34	20	0.0	8.9	0.0	31	34	20	0.0	8.9	0.0	2	0.739	0.001	D	34	8.9	1185.078	1185.961	1186.701	1186.703	0
2	22102708	325	Low	10.0	Precise	1	36	33	28	0.0	1.0	0.0	28	33	36	0.0	1.0	0.0	2	0.950	0.001	D	33	1.0	1187.206	1189.798	1190.749	1190.751	0
2	22102708	326	Low	10.0	Vague	2	32	35	1	0.1	10.2	0.0	1	35	32	0.0	10.2	0.1	2	0.927	0.001	D	35	10.2	1191.254	1194.150	1195.077	1195.079	0
2	22102708	327	Low	10.0	Precise	1	31	35	28	0.0	10.2	0.0	31	28	35	0.0	0.0	10.2	2	1.001	0.001	R	35	10.2	1195.582	1196.195	1197.197	1197.199	0
2	22102708	328	Low	10.0	Vague	2	31	36	11	0.0	0.0	0.0	31	11	36	0.0	0.0	0.0	2	2.217	0.001	R	36	0.0	1197.701	1199.323	1201.541	1201.543	0
2	22102708	329	Low	10.0	Precise	1	33	34	24	1.0	8.9	0.0	34	24	33	8.9	0.0	1.0	2	2.677	0.001	L	34	8.9	1202.046	1204.312	1206.989	1206.991	0
2	22102708	330	Low	10.0	Precise	1	34	35	28	8.9	10.2	0.0	34	28	35	8.9	0.0	10.2	1	0.682	0.001	L	34	8.9	1207.494	1208.659	1209.341	1209.343	0
2	22102708	331	Low	10.0	Vague	2	31	35	7	0.0	10.2	0.0	7	35	31	0.0	10.2	0.0	2	0.973	0.001	D	35	10.2	1209.847	1212.159	1213.133	1213.135	0
2	22102708	332	Low	10.0	Vague	2	32	34	9	0.1	8.9	0.0	9	34	32	0.0	8.9	0.1	2	1.027	0.001	D	34	8.9	1213.637	1216.162	1217.189	1217.191	0
2	22102708	333	Low	10.0	Precise	1	32	35	22	0.1	10.2	0.0	32	22	35	0.1	0.0	10.2	2	2.000	0.000	R	35	10.2	1217.694	1220.300	1222.300	1222.303	0
2	22102708	334	Low	10.0	Precise	1	31	32	28	0.0	0.1	0.0	28	31	32	0.0	0.0	0.1	2	2.461	0.001	R	32	0.1	1222.806	1225.120	1227.581	1227.583	0
2	22102708	335	Low	10.0	Vague	2	31	32	9	0.0	0.1	0.0	32	31	9	0.1	0.0	0.0	2	2.993	0.000	L	32	0.1	1228.086	1229.091	1232.085	1232.087	0
2	22102708	336	Low	10.0	Precise	1	32	34	28	0.1	8.9	0.0	32	28	34	0.1	0.0	8.9	2	1.305	0.001	R	34	8.9	1232.590	1233.996	1235.301	1235.303	0
2	22102708	337	Low	10.0	Vague	2	31	35	9	0.0	10.2	0.0	9	35	31	0.0	10.2	0.0	2	1.522	0.001	D	35	10.2	1235.805	1236.499	1238.021	1238.023	0
2	22102708	338	Low	10.0	Precise	1	33	34	22	1.0	8.9	0.0	22	33	34	0.0	1.0	8.9	1	1.204	0.000	D	33	1.0	1238.525	1241.049	1242.252	1242.255	0
2	22102708	339	Low	10.0	Vague	2	31	32	7	0.0	0.1	0.0	32	31	7	0.1	0.0	0.0	1	1.664	0.000	D	31	0.0	1242.757	1245.044	1246.708	1246.711	0
2	22102708	340	Low	10.0	Precise	1	33	34	20	1.0	8.9	0.0	33	34	20	1.0	8.9	0.0	1	1.232	0.001	L	33	1.0	1247.213	1250.181	1251.413	1251.415	0
2	22102708	341	Low	10.0	Precise	1	32	33	30	0.1	1.0	0.0	30	32	33	0.0	0.1	1.0	2	1.675	0.000	R	33	1.0	1251.917	1252.697	1254.372	1254.375	0
2	22102708	342	Low	10.0	Vague	2	36	32	1	0.0	0.1	0.0	36	1	32	0.0	0.0	0.1	2	2.773	0.001	R	32	0.1	1254.877	1255.936	1258.709	1258.711	0
2	22102708	343	Low	10.0	Precise	1	34	35	20	8.9	10.2	0.0	20	34	35	0.0	8.9	10.2	1	1.113	0.001	D	34	8.9	1259.213	1260.419	1261.533	1261.535	0
2	22102708	344	Low	10.0	Vague	2	36	34	9	0.0	8.9	0.0	36	9	34	0.0	0.0	8.9	2	0.807	0.000	R	34	8.9	1262.037	1262.989	1263.796	1263.799	0
2	22102708	345	Low	10.0	Vague	2	36	32	11	0.0	0.1	0.0	32	36	11	0.1	0.0	0.0	1	2.049	0.000	D	36	0.0	1264.301	1264.851	1266.900	1266.903	0
2	22102708	346	Low	10.0	Precise	1	31	32	30	0.0	0.1	0.0	31	32	30	0.0	0.1	0.0	2	2.465	0.001	D	32	0.1	1267.405	1270.395	1272.861	1272.863	0
2	22102708	347	Low	10.0	Vague	2	31	36	7	0.0	0.0	0.0	7	36	31	0.0	0.0	0.0	2	1.643	0.001	D	36	0.0	1273.366	1274.482	1276.125	1276.127	0
2	22102708	348	Low	10.0	Precise	1	33	35	28	1.0	10.2	0.0	28	35	33	0.0	10.2	1.0	1	1.339	0.001	R	33	1.0	1276.630	1278.314	1279.653	1279.655	0
2	22102708	349	Low	10.0	Vague	2	33	34	11	1.0	8.9	0.0	33	34	11	1.0	8.9	0.0	2	0.856	0.001	D	34	8.9	1280.158	1281.733	1282.589	1282.591	0
2	22102708	350	Low	10.0	Precise	1	31	35	20	0.0	10.2	0.0	20	31	35	0.0	0.0	10.2	2	1.067	0.001	R	35	10.2	1283.093	1285.794	1286.861	1286.863	0
2	22102708	351	Low	10.0	Vague	2	32	33	11	0.1	1.0	0.0	32	11	33	0.1	0.0	1.0	2	1.340	0.000	R	33	1.0	1287.365	1289.489	1290.828	1290.831	0
2	22102708	352	Low	10.0	Vague	2	34	35	3	8.9	10.2	0.0	35	34	3	10.2	8.9	0.0	2	1.550	0.001	L	35	10.2	1291.334	1292.447	1293.997	1293.999	0
2	22102708	353	Low	10.0	Precise	1	36	32	30	0.0	0.1	0.0	32	30	36	0.1	0.0	0.0	1	3.007	0.001	R	36	0.0	1294.502	1296.093	1299.100	1299.103	0
2	22102708	354	Low	10.0	Vague	2	34	35	7	8.9	10.2	0.0	35	7	34	10.2	0.0	8.9	2	0.907	0.001	L	35	10.2	1299.606	1300.346	1301.253	1301.255	0
2	22102708	355	Low	10.0	Vague	2	31	34	5	0.0	8.9	0.0	34	31	5	8.9	0.0	0.0	2	0.733	0.001	L	34	8.9	1301.757	1304.120	1304.853	1304.855	0
2	22102708	356	Low	10.0	Vague	2	33	35	1	1.0	10.2	0.0	1	33	35	0.0	1.0	10.2	1	1.308	0.001	D	33	1.0	1305.358	1306.809	1308.117	1308.119	0
2	22102708	357	Low	10.0	Precise	1	33	34	28	1.0	8.9	0.0	34	28	33	8.9	0.0	1.0	1	1.510	0.001	R	33	1.0	1308.622	1310.439	1311.948	1311.951	0
2	22102708	358	Low	10.0	Precise	1	36	33	26	0.0	1.0	0.0	33	26	36	1.0	0.0	0.0	2	2.135	0.001	L	33	1.0	1312.453	1315.205	1317.340	1317.343	0
2	22102708	359	Low	10.0	Vague	2	33	34	5	1.0	8.9	0.0	33	34	5	1.0	8.9	0.0	1	2.992	0.000	L	33	1.0	1317.846	1320.244	1323.236	1323.239	0
2	22102708	360	Low	10.0	Precise	1	31	36	28	0.0	0.0	0.0	31	28	36	0.0	0.0	0.0	2	3.584	0.000	R	36	0.0	1323.742	1326.588	1330.172	1330.175	0
