Group	subID	trial	TimePressure	TimeConstraint	Vagueness	Vaguenesscode	ID1	ID2	ID3	V1	V2	V3	ID_left	ID_middle	ID_right	Bid_left	Bid_middle	Bid_right	chosenItem	RT	RTvariance	chosenPosition	chosenID	chosenValue	fixation_time	option_time	choice_time	feedback_time	timeout
1	22102405	1	Low	10.0	Precise	1	14	18	3	0.0	0.0	0.0	18	14	3	0.0	0.0	0.0	1	0.140	0.000	D	14	0.0	4.034	6.360	6.500	6.504	0
1	22102405	2	Low	10.0	Vague	2	16	2	19	0.0	0.2	0.0	16	19	2	0.0	0.0	0.2	1	1.556	0.000	L	16	0.0	7.009	9.288	10.844	10.847	0
1	22102405	3	Low	10.0	Vague	2	17	2	25	0.0	0.2	0.0	17	25	2	0.0	0.0	0.2	3	3.110	0.000	D	25	0.0	11.353	13.015	16.125	16.128	0
1	22102405	4	Low	10.0	Vague	2	15	18	25	0.0	0.0	0.0	25	18	15	0.0	0.0	0.0	3	0.979	0.001	L	25	0.0	16.631	17.666	18.645	18.647	0
1	22102405	5	Low	10.0	Vague	2	17	18	25	0.0	0.0	0.0	18	17	25	0.0	0.0	0.0	1	1.364	0.000	D	17	0.0	19.151	21.552	22.917	22.921	0
1	22102405	6	Low	10.0	Vague	2	15	18	27	0.0	0.0	0.0	15	18	27	0.0	0.0	0.0	1	1.346	0.000	L	15	0.0	23.426	24.571	25.916	25.919	0
1	22102405	7	Low	10.0	Precise	1	16	2	11	0.0	0.2	0.0	16	2	11	0.0	0.2	0.0	1	0.887	0.000	L	16	0.0	26.421	29.262	30.149	30.151	0
1	22102405	8	Low	10.0	Vague	2	15	16	25	0.0	0.0	0.0	15	25	16	0.0	0.0	0.0	2	0.750	0.001	R	16	0.0	30.653	31.463	32.213	32.215	0
1	22102405	9	Low	10.0	Precise	1	14	15	5	0.0	0.0	0.0	15	5	14	0.0	0.0	0.0	3	1.977	0.001	D	5	0.0	32.718	35.364	37.341	37.344	0
1	22102405	10	Low	10.0	Precise	1	16	18	13	0.0	0.0	0.0	18	13	16	0.0	0.0	0.0	1	0.632	0.001	R	16	0.0	37.846	38.348	38.981	38.983	0
1	22102405	11	Low	10.0	Vague	2	14	15	29	0.0	0.0	0.0	29	14	15	0.0	0.0	0.0	2	0.621	0.001	R	15	0.0	39.486	41.472	42.093	42.095	0
1	22102405	12	Low	10.0	Precise	1	15	16	3	0.0	0.0	0.0	3	15	16	0.0	0.0	0.0	2	0.598	0.000	R	16	0.0	42.598	43.799	44.397	44.399	0
1	22102405	13	Low	10.0	Vague	2	18	2	23	0.0	0.2	0.0	2	18	23	0.2	0.0	0.0	1	1.167	0.000	D	18	0.0	44.902	45.654	46.821	46.823	0
1	22102405	14	Low	10.0	Precise	1	14	17	13	0.0	0.0	0.0	14	13	17	0.0	0.0	0.0	2	0.878	0.000	R	17	0.0	47.325	49.903	50.781	50.783	0
1	22102405	15	Low	10.0	Vague	2	16	2	23	0.0	0.2	0.0	16	23	2	0.0	0.0	0.2	3	1.287	0.000	D	23	0.0	51.287	54.238	55.524	55.527	0
1	22102405	16	Low	10.0	Vague	2	15	16	21	0.0	0.0	0.0	15	21	16	0.0	0.0	0.0	2	0.559	0.001	R	16	0.0	56.029	58.486	59.045	59.047	0
1	22102405	17	Low	10.0	Precise	1	16	17	7	0.0	0.0	0.0	17	7	16	0.0	0.0	0.0	1	0.511	0.001	R	16	0.0	59.550	60.822	61.333	61.335	0
1	22102405	18	Low	10.0	Vague	2	15	17	27	0.0	0.0	0.0	15	27	17	0.0	0.0	0.0	2	0.961	0.000	R	17	0.0	61.838	62.595	63.556	63.559	0
1	22102405	19	Low	10.0	Precise	1	14	2	7	0.0	0.2	0.0	2	14	7	0.2	0.0	0.0	1	1.266	0.001	D	14	0.0	64.061	65.411	66.677	66.679	0
1	22102405	20	Low	10.0	Precise	1	14	17	11	0.0	0.0	0.0	11	14	17	0.0	0.0	0.0	2	0.708	0.000	R	17	0.0	67.181	69.345	70.053	70.055	0
1	22102405	21	Low	10.0	Precise	1	15	18	5	0.0	0.0	0.0	15	5	18	0.0	0.0	0.0	2	1.123	0.000	R	18	0.0	70.557	71.586	72.709	72.712	0
1	22102405	22	Low	10.0	Vague	2	17	2	21	0.0	0.2	0.0	2	17	21	0.2	0.0	0.0	3	0.792	0.001	R	21	0.0	73.214	75.101	75.893	75.895	0
1	22102405	23	Low	10.0	Vague	2	14	18	29	0.0	0.0	0.0	14	18	29	0.0	0.0	0.0	2	0.394	0.000	D	18	0.0	76.398	78.738	79.133	79.135	0
1	22102405	24	Low	10.0	Vague	2	16	17	27	0.0	0.0	0.0	17	27	16	0.0	0.0	0.0	2	0.387	0.000	L	17	0.0	79.638	81.434	81.820	81.823	0
1	22102405	25	Low	10.0	Vague	2	14	16	21	0.0	0.0	0.0	21	16	14	0.0	0.0	0.0	2	0.690	0.000	D	16	0.0	82.326	84.067	84.757	84.759	0
1	22102405	26	Low	10.0	Vague	2	16	2	27	0.0	0.2	0.0	27	2	16	0.0	0.2	0.0	1	1.289	0.000	R	16	0.0	85.261	86.803	88.093	88.095	0
1	22102405	27	Low	10.0	Vague	2	16	17	19	0.0	0.0	0.0	19	17	16	0.0	0.0	0.0	1	0.618	0.000	R	16	0.0	88.598	89.426	90.045	90.047	0
1	22102405	28	Low	10.0	Vague	2	14	16	25	0.0	0.0	0.0	25	16	14	0.0	0.0	0.0	2	0.497	0.000	D	16	0.0	90.550	93.179	93.677	93.679	0
1	22102405	29	Low	10.0	Precise	1	14	15	3	0.0	0.0	0.0	15	14	3	0.0	0.0	0.0	1	1.101	0.001	D	14	0.0	94.182	96.064	97.165	97.167	0
1	22102405	30	Low	10.0	Vague	2	14	17	29	0.0	0.0	0.0	14	17	29	0.0	0.0	0.0	3	0.688	0.000	R	29	0.0	97.670	99.724	100.412	100.415	0
1	22102405	31	Low	10.0	Precise	1	16	18	11	0.0	0.0	0.0	16	11	18	0.0	0.0	0.0	1	0.505	0.000	L	16	0.0	100.917	101.635	102.140	102.143	0
1	22102405	32	Low	10.0	Precise	1	15	2	7	0.0	0.2	0.0	2	7	15	0.2	0.0	0.0	2	0.846	0.001	L	2	0.2	102.645	103.430	104.277	104.279	0
1	22102405	33	Low	10.0	Precise	1	15	16	11	0.0	0.0	0.0	15	11	16	0.0	0.0	0.0	2	0.552	0.000	R	16	0.0	104.781	106.933	107.485	107.487	0
1	22102405	34	Low	10.0	Vague	2	16	18	27	0.0	0.0	0.0	16	27	18	0.0	0.0	0.0	1	0.571	0.000	L	16	0.0	107.990	109.194	109.764	109.767	0
1	22102405	35	Low	10.0	Vague	2	14	17	23	0.0	0.0	0.0	23	17	14	0.0	0.0	0.0	1	1.021	0.000	R	14	0.0	110.269	111.783	112.804	112.807	0
1	22102405	36	Low	10.0	Vague	2	17	2	19	0.0	0.2	0.0	19	2	17	0.0	0.2	0.0	1	0.636	0.000	R	17	0.0	113.310	115.801	116.437	116.439	0
1	22102405	37	Low	10.0	Vague	2	15	2	25	0.0	0.2	0.0	2	15	25	0.2	0.0	0.0	1	0.880	0.001	D	15	0.0	116.941	118.372	119.253	119.255	0
1	22102405	38	Low	10.0	Vague	2	14	16	29	0.0	0.0	0.0	16	29	14	0.0	0.0	0.0	2	0.864	0.000	L	16	0.0	119.758	122.284	123.148	123.151	0
1	22102405	39	Low	10.0	Vague	2	14	17	27	0.0	0.0	0.0	14	17	27	0.0	0.0	0.0	2	1.032	0.000	D	17	0.0	123.654	126.381	127.413	127.415	0
1	22102405	40	Low	10.0	Vague	2	14	18	19	0.0	0.0	0.0	19	14	18	0.0	0.0	0.0	3	0.841	0.000	L	19	0.0	127.918	129.892	130.733	130.735	0
1	22102405	41	Low	10.0	Precise	1	16	2	5	0.0	0.2	0.0	2	16	5	0.2	0.0	0.0	1	0.953	0.000	D	16	0.0	131.237	132.340	133.292	133.295	0
1	22102405	42	Low	10.0	Vague	2	15	18	19	0.0	0.0	0.0	18	15	19	0.0	0.0	0.0	1	1.065	0.000	D	15	0.0	133.798	136.163	137.229	137.231	0
1	22102405	43	Low	10.0	Precise	1	15	18	9	0.0	0.0	0.0	9	18	15	0.0	0.0	0.0	2	0.720	0.001	D	18	0.0	137.734	139.173	139.893	139.895	0
1	22102405	44	Low	10.0	Precise	1	14	15	13	0.0	0.0	0.0	13	15	14	0.0	0.0	0.0	2	0.560	0.000	D	15	0.0	140.398	143.365	143.925	143.927	0
1	22102405	45	Low	10.0	Precise	1	14	17	9	0.0	0.0	0.0	9	17	14	0.0	0.0	0.0	2	1.387	0.000	D	17	0.0	144.430	146.889	148.276	148.279	0
1	22102405	46	Low	10.0	Vague	2	14	16	27	0.0	0.0	0.0	27	14	16	0.0	0.0	0.0	3	4.564	0.000	L	27	0.0	148.781	149.360	153.924	153.927	0
1	22102405	47	Low	10.0	Precise	1	15	2	5	0.0	0.2	0.0	15	5	2	0.0	0.0	0.2	2	0.613	0.000	R	2	0.2	154.430	156.752	157.364	157.367	0
1	22102405	48	Low	10.0	Vague	2	15	17	19	0.0	0.0	0.0	17	19	15	0.0	0.0	0.0	3	0.503	0.001	D	19	0.0	157.870	160.790	161.293	161.295	0
1	22102405	49	Low	10.0	Vague	2	14	15	19	0.0	0.0	0.0	14	19	15	0.0	0.0	0.0	2	0.591	0.000	R	15	0.0	161.797	163.486	164.076	164.079	0
1	22102405	50	Low	10.0	Precise	1	15	2	9	0.0	0.2	0.0	2	15	9	0.2	0.0	0.0	1	2.075	0.000	D	15	0.0	164.582	167.506	169.581	169.583	0
1	22102405	51	Low	10.0	Vague	2	17	18	23	0.0	0.0	0.0	18	23	17	0.0	0.0	0.0	3	0.415	0.000	D	23	0.0	170.086	170.837	171.253	171.255	0
1	22102405	52	Low	10.0	Vague	2	14	2	21	0.0	0.2	0.0	2	14	21	0.2	0.0	0.0	1	0.233	0.000	D	14	0.0	171.758	172.907	173.140	173.143	0
1	22102405	53	Low	10.0	Precise	1	17	2	3	0.0	0.2	0.0	17	2	3	0.0	0.2	0.0	1	0.902	0.000	L	17	0.0	173.645	176.238	177.141	177.143	0
1	22102405	54	Low	10.0	Vague	2	15	2	29	0.0	0.2	0.0	29	15	2	0.0	0.0	0.2	3	0.328	0.001	L	29	0.0	177.646	180.060	180.389	180.391	0
1	22102405	55	Low	10.0	Vague	2	18	2	27	0.0	0.2	0.0	2	27	18	0.2	0.0	0.0	1	0.473	0.000	R	18	0.0	180.894	182.363	182.837	182.839	0
1	22102405	56	Low	10.0	Precise	1	14	2	13	0.0	0.2	0.0	2	13	14	0.2	0.0	0.0	3	0.154	0.000	D	13	0.0	183.341	185.731	185.885	185.887	0
1	22102405	57	Low	10.0	Vague	2	16	2	25	0.0	0.2	0.0	25	2	16	0.0	0.2	0.0	1	0.827	0.000	R	16	0.0	186.389	187.009	187.837	187.839	0
1	22102405	58	Low	10.0	Vague	2	14	2	19	0.0	0.2	0.0	14	19	2	0.0	0.0	0.2	2	0.308	0.000	R	2	0.2	188.341	190.544	190.852	190.855	0
1	22102405	59	Low	10.0	Precise	1	17	2	13	0.0	0.2	0.0	13	2	17	0.0	0.2	0.0	2	0.723	0.001	D	2	0.2	191.358	194.330	195.053	195.056	0
1	22102405	60	Low	10.0	Precise	1	18	2	13	0.0	0.2	0.0	2	13	18	0.2	0.0	0.0	3	0.992	0.000	D	13	0.0	195.560	197.428	198.421	198.423	0
1	22102405	61	Low	10.0	Precise	1	14	17	7	0.0	0.0	0.0	14	7	17	0.0	0.0	0.0	3	0.434	0.000	D	7	0.0	205.716	206.699	207.132	207.135	0
1	22102405	62	Low	10.0	Precise	1	16	18	3	0.0	0.0	0.0	3	16	18	0.0	0.0	0.0	1	0.686	0.001	D	16	0.0	207.638	208.950	209.637	209.639	0
1	22102405	63	Low	10.0	Vague	2	14	15	23	0.0	0.0	0.0	14	23	15	0.0	0.0	0.0	2	0.651	0.001	R	15	0.0	210.142	210.818	211.469	211.471	0
1	22102405	64	Low	10.0	Vague	2	17	2	29	0.0	0.2	0.0	17	2	29	0.0	0.2	0.0	2	0.874	0.001	D	2	0.2	211.974	214.963	215.837	215.839	0
1	22102405	65	Low	10.0	Vague	2	15	17	25	0.0	0.0	0.0	25	17	15	0.0	0.0	0.0	1	0.630	0.000	R	15	0.0	216.342	217.959	218.589	218.591	0
1	22102405	66	Low	10.0	Precise	1	14	16	7	0.0	0.0	0.0	7	16	14	0.0	0.0	0.0	2	0.486	0.001	D	16	0.0	219.094	221.327	221.813	221.815	0
1	22102405	67	Low	10.0	Vague	2	15	16	27	0.0	0.0	0.0	27	15	16	0.0	0.0	0.0	2	0.558	0.000	R	16	0.0	222.317	224.759	225.317	225.319	0
1	22102405	68	Low	10.0	Precise	1	16	17	13	0.0	0.0	0.0	17	13	16	0.0	0.0	0.0	1	1.081	0.000	R	16	0.0	225.822	228.268	229.349	229.351	0
1	22102405	69	Low	10.0	Vague	2	18	2	19	0.0	0.2	0.0	2	19	18	0.2	0.0	0.0	1	3.431	0.000	R	18	0.0	229.854	230.846	234.276	234.279	0
1	22102405	70	Low	10.0	Precise	1	14	2	11	0.0	0.2	0.0	2	14	11	0.2	0.0	0.0	1	0.214	0.000	D	14	0.0	234.782	237.519	237.733	237.735	0
1	22102405	71	Low	10.0	Precise	1	15	18	11	0.0	0.0	0.0	15	18	11	0.0	0.0	0.0	3	3.713	0.000	R	11	0.0	238.238	241.027	244.740	244.743	0
1	22102405	72	Low	10.0	Vague	2	14	2	29	0.0	0.2	0.0	29	2	14	0.0	0.2	0.0	1	2.379	0.001	R	14	0.0	245.245	246.226	248.605	248.607	0
1	22102405	73	Low	10.0	Vague	2	16	2	29	0.0	0.2	0.0	2	16	29	0.2	0.0	0.0	1	1.670	0.000	D	16	0.0	249.109	249.791	251.461	251.463	0
1	22102405	74	Low	10.0	Precise	1	14	18	13	0.0	0.0	0.0	13	18	14	0.0	0.0	0.0	1	4.675	0.000	R	14	0.0	251.966	254.705	259.381	259.384	0
1	22102405	75	Low	10.0	Vague	2	17	18	29	0.0	0.0	0.0	18	29	17	0.0	0.0	0.0	3	6.483	0.000	D	29	0.0	259.887	261.490	267.973	267.975	0
1	22102405	76	Low	10.0	Precise	1	14	2	3	0.0	0.2	0.0	14	2	3	0.0	0.2	0.0	2	1.209	0.001	D	2	0.2	268.478	269.884	271.093	271.095	0
1	22102405	77	Low	10.0	Precise	1	14	18	7	0.0	0.0	0.0	14	18	7	0.0	0.0	0.0	3	2.087	0.000	R	7	0.0	271.598	273.293	275.380	275.383	0
1	22102405	78	Low	10.0	Vague	2	15	18	23	0.0	0.0	0.0	23	15	18	0.0	0.0	0.0	1	2.306	0.000	D	15	0.0	275.885	278.034	280.341	280.343	0
1	22102405	79	Low	10.0	Precise	1	14	16	5	0.0	0.0	0.0	14	16	5	0.0	0.0	0.0	3	1.122	0.000	R	5	0.0	280.846	281.618	282.740	282.743	0
1	22102405	80	Low	10.0	Vague	2	17	18	19	0.0	0.0	0.0	18	19	17	0.0	0.0	0.0	1	2.133	0.000	R	17	0.0	283.246	286.135	288.268	288.271	0
1	22102405	81	Low	10.0	Precise	1	16	2	3	0.0	0.2	0.0	16	3	2	0.0	0.0	0.2	3	3.740	0.000	D	3	0.0	288.774	290.521	294.261	294.263	0
1	22102405	82	Low	10.0	Precise	1	18	2	3	0.0	0.2	0.0	18	3	2	0.0	0.0	0.2	2	4.789	0.001	R	2	0.2	294.765	295.712	300.501	300.503	0
1	22102405	83	Low	10.0	Vague	2	14	2	25	0.0	0.2	0.0	14	2	25	0.0	0.2	0.0	3	4.997	0.000	R	25	0.0	301.006	301.791	306.788	306.791	0
1	22102405	84	Low	10.0	Precise	1	14	15	9	0.0	0.0	0.0	15	14	9	0.0	0.0	0.0	3	7.320	0.000	R	9	0.0	307.293	308.036	315.357	315.359	0
1	22102405	85	Low	10.0	Precise	1	15	2	3	0.0	0.2	0.0	15	2	3	0.0	0.2	0.0	2	6.547	0.001	D	2	0.2	315.862	316.746	323.293	323.295	0
1	22102405	86	Low	10.0	Precise	1	15	18	13	0.0	0.0	0.0	18	15	13	0.0	0.0	0.0	3	0.771	0.001	R	13	0.0	323.798	324.666	325.437	325.439	0
1	22102405	87	Low	10.0	Precise	1	17	18	11	0.0	0.0	0.0	17	18	11	0.0	0.0	0.0	3	0.522	0.001	R	11	0.0	325.941	327.499	328.021	328.023	0
1	22102405	88	Low	10.0	Precise	1	15	16	13	0.0	0.0	0.0	13	16	15	0.0	0.0	0.0	2	0.375	0.000	D	16	0.0	328.526	330.085	330.460	330.463	0
1	22102405	89	Low	10.0	Precise	1	14	17	3	0.0	0.0	0.0	3	17	14	0.0	0.0	0.0	2	0.661	0.000	D	17	0.0	330.966	331.664	332.324	332.327	0
1	22102405	90	Low	10.0	Vague	2	14	17	19	0.0	0.0	0.0	19	17	14	0.0	0.0	0.0	2	0.000	2.499	D	17	0.0	332.830	334.823	334.823	334.831	0
1	22102405	91	Low	10.0	Precise	1	16	2	7	0.0	0.2	0.0	2	7	16	0.2	0.0	0.0	3	0.318	0.001	D	7	0.0	335.334	336.343	336.661	336.663	0
1	22102405	92	Low	10.0	Vague	2	15	16	19	0.0	0.0	0.0	16	19	15	0.0	0.0	0.0	1	0.319	0.001	R	15	0.0	337.166	338.366	338.685	338.687	0
1	22102405	93	Low	10.0	Precise	1	18	2	5	0.0	0.2	0.0	18	5	2	0.0	0.0	0.2	1	2.283	0.000	L	18	0.0	339.191	341.394	343.677	343.680	0
1	22102405	94	Low	10.0	Vague	2	14	17	21	0.0	0.0	0.0	21	17	14	0.0	0.0	0.0	1	0.623	0.000	R	14	0.0	344.182	346.013	346.636	346.639	0
1	22102405	95	Low	10.0	Vague	2	14	18	27	0.0	0.0	0.0	18	14	27	0.0	0.0	0.0	3	0.793	0.000	R	27	0.0	347.142	348.364	349.156	349.159	0
1	22102405	96	Low	10.0	Precise	1	17	18	9	0.0	0.0	0.0	9	18	17	0.0	0.0	0.0	1	0.842	0.001	R	17	0.0	349.662	352.506	353.349	353.351	0
1	22102405	97	Low	10.0	Vague	2	14	15	27	0.0	0.0	0.0	15	14	27	0.0	0.0	0.0	1	0.347	0.000	D	14	0.0	353.854	356.458	356.805	356.807	0
1	22102405	98	Low	10.0	Precise	1	14	16	13	0.0	0.0	0.0	14	16	13	0.0	0.0	0.0	3	1.446	0.000	R	13	0.0	357.311	358.534	359.980	359.983	0
1	22102405	99	Low	10.0	Vague	2	16	18	19	0.0	0.0	0.0	19	16	18	0.0	0.0	0.0	3	0.669	0.001	L	19	0.0	360.486	361.304	361.973	361.975	0
1	22102405	100	Low	10.0	Vague	2	14	18	23	0.0	0.0	0.0	14	18	23	0.0	0.0	0.0	3	3.478	0.000	R	23	0.0	362.479	363.454	366.933	366.935	0
1	22102405	101	Low	10.0	Precise	1	17	2	9	0.0	0.2	0.0	17	9	2	0.0	0.0	0.2	3	0.323	0.000	D	9	0.0	367.438	368.922	369.245	369.247	0
1	22102405	102	Low	10.0	Precise	1	16	17	9	0.0	0.0	0.0	17	16	9	0.0	0.0	0.0	2	1.462	0.000	L	17	0.0	369.750	371.471	372.933	372.935	0
1	22102405	103	Low	10.0	Precise	1	17	18	13	0.0	0.0	0.0	18	17	13	0.0	0.0	0.0	1	1.013	0.000	D	17	0.0	373.438	375.656	376.669	376.671	0
1	22102405	104	Low	10.0	Vague	2	14	2	27	0.0	0.2	0.0	14	2	27	0.0	0.2	0.0	2	0.704	0.000	D	2	0.2	377.174	379.389	380.093	380.095	0
1	22102405	105	Low	10.0	Precise	1	15	17	7	0.0	0.0	0.0	17	7	15	0.0	0.0	0.0	1	0.532	0.000	R	15	0.0	380.598	381.249	381.781	381.783	0
1	22102405	106	Low	10.0	Vague	2	17	18	27	0.0	0.0	0.0	17	18	27	0.0	0.0	0.0	2	0.348	0.000	D	18	0.0	382.286	384.216	384.565	384.567	0
1	22102405	107	Low	10.0	Vague	2	16	18	29	0.0	0.0	0.0	18	16	29	0.0	0.0	0.0	2	0.345	0.000	L	18	0.0	385.070	387.620	387.965	387.967	0
1	22102405	108	Low	10.0	Precise	1	17	18	3	0.0	0.0	0.0	18	17	3	0.0	0.0	0.0	3	0.490	0.000	R	3	0.0	388.470	389.858	390.348	390.351	0
1	22102405	109	Low	10.0	Precise	1	15	2	11	0.0	0.2	0.0	15	11	2	0.0	0.0	0.2	3	0.284	0.001	D	11	0.0	390.853	392.465	392.749	392.752	0
1	22102405	110	Low	10.0	Vague	2	16	18	25	0.0	0.0	0.0	25	18	16	0.0	0.0	0.0	1	0.682	0.000	R	16	0.0	393.255	394.186	394.869	394.871	0
1	22102405	111	Low	10.0	Precise	1	15	17	5	0.0	0.0	0.0	5	15	17	0.0	0.0	0.0	1	0.556	0.001	D	15	0.0	395.374	396.145	396.701	396.703	0
1	22102405	112	Low	10.0	Precise	1	16	17	5	0.0	0.0	0.0	5	16	17	0.0	0.0	0.0	2	0.455	0.000	R	17	0.0	397.206	397.806	398.261	398.263	0
1	22102405	113	Low	10.0	Vague	2	15	18	21	0.0	0.0	0.0	18	15	21	0.0	0.0	0.0	3	0.413	0.000	R	21	0.0	398.766	399.655	400.069	400.071	0
1	22102405	114	Low	10.0	Vague	2	15	17	23	0.0	0.0	0.0	23	17	15	0.0	0.0	0.0	2	0.641	0.001	D	17	0.0	400.574	401.100	401.741	401.743	0
1	22102405	115	Low	10.0	Precise	1	14	2	9	0.0	0.2	0.0	9	2	14	0.0	0.2	0.0	1	0.000	1.820	R	14	0.0	402.246	403.560	403.560	403.574	0
1	22102405	116	Low	10.0	Precise	1	14	16	9	0.0	0.0	0.0	16	9	14	0.0	0.0	0.0	3	0.456	0.001	D	9	0.0	404.077	406.677	407.133	407.136	0
1	22102405	117	Low	10.0	Vague	2	17	18	21	0.0	0.0	0.0	18	21	17	0.0	0.0	0.0	2	0.775	0.001	L	18	0.0	407.639	409.726	410.501	410.503	0
1	22102405	118	Low	10.0	Precise	1	14	15	7	0.0	0.0	0.0	15	14	7	0.0	0.0	0.0	1	0.724	0.001	D	14	0.0	411.005	412.696	413.421	413.423	0
1	22102405	119	Low	10.0	Precise	1	17	2	5	0.0	0.2	0.0	5	17	2	0.0	0.0	0.2	2	0.710	0.000	R	2	0.2	413.926	415.270	415.980	415.984	0
1	22102405	120	Low	10.0	Precise	1	14	18	11	0.0	0.0	0.0	14	18	11	0.0	0.0	0.0	2	0.625	0.000	D	18	0.0	416.487	417.659	418.285	418.287	0
1	22102405	121	Low	10.0	Precise	1	16	18	9	0.0	0.0	0.0	16	18	9	0.0	0.0	0.0	1	0.563	0.000	L	16	0.0	424.820	426.682	427.245	427.247	0
1	22102405	122	Low	10.0	Precise	1	15	16	9	0.0	0.0	0.0	9	16	15	0.0	0.0	0.0	2	0.603	0.000	D	16	0.0	427.749	430.618	431.221	431.223	0
1	22102405	123	Low	10.0	Precise	1	16	2	9	0.0	0.2	0.0	2	9	16	0.2	0.0	0.0	1	0.586	0.000	R	16	0.0	431.726	432.778	433.365	433.367	0
1	22102405	124	Low	10.0	Precise	1	16	18	5	0.0	0.0	0.0	16	5	18	0.0	0.0	0.0	1	0.577	0.001	L	16	0.0	433.870	435.588	436.165	436.167	0
1	22102405	125	Low	10.0	Vague	2	15	2	27	0.0	0.2	0.0	2	27	15	0.2	0.0	0.0	3	1.094	0.000	D	27	0.0	436.670	438.743	439.837	439.839	0
1	22102405	126	Low	10.0	Precise	1	18	2	9	0.0	0.2	0.0	9	2	18	0.0	0.2	0.0	2	0.838	0.001	D	2	0.2	440.342	443.087	443.925	443.927	0
1	22102405	127	Low	10.0	Precise	1	15	2	13	0.0	0.2	0.0	2	13	15	0.2	0.0	0.0	2	1.127	0.000	L	2	0.2	444.430	445.462	446.589	446.591	0
1	22102405	128	Low	10.0	Precise	1	14	17	5	0.0	0.0	0.0	14	17	5	0.0	0.0	0.0	2	0.834	0.001	D	17	0.0	447.094	448.363	449.197	449.200	0
1	22102405	129	Low	10.0	Precise	1	14	15	11	0.0	0.0	0.0	11	15	14	0.0	0.0	0.0	2	0.790	0.001	D	15	0.0	449.703	450.623	451.413	451.415	0
1	22102405	130	Low	10.0	Vague	2	16	17	25	0.0	0.0	0.0	16	17	25	0.0	0.0	0.0	2	0.769	0.000	D	17	0.0	451.918	453.852	454.621	454.623	0
1	22102405	131	Low	10.0	Vague	2	16	18	23	0.0	0.0	0.0	16	23	18	0.0	0.0	0.0	3	1.814	0.001	D	23	0.0	455.127	457.863	459.677	459.679	0
1	22102405	132	Low	10.0	Vague	2	18	2	21	0.0	0.2	0.0	2	18	21	0.2	0.0	0.0	1	1.028	0.000	D	18	0.0	460.182	461.657	462.685	462.687	0
1	22102405	133	Low	10.0	Vague	2	15	2	23	0.0	0.2	0.0	2	15	23	0.2	0.0	0.0	1	0.974	0.001	D	15	0.0	463.190	465.271	466.245	466.247	0
1	22102405	134	Low	10.0	Precise	1	14	2	5	0.0	0.2	0.0	14	2	5	0.0	0.2	0.0	2	1.420	0.000	D	2	0.2	466.750	469.208	470.628	470.631	0
1	22102405	135	Low	10.0	Vague	2	15	2	21	0.0	0.2	0.0	2	21	15	0.2	0.0	0.0	1	1.381	0.001	R	15	0.0	471.134	473.016	474.397	474.399	0
1	22102405	136	Low	10.0	Vague	2	14	18	25	0.0	0.0	0.0	18	25	14	0.0	0.0	0.0	3	0.921	0.000	D	25	0.0	474.901	475.979	476.901	476.903	0
1	22102405	137	Low	10.0	Precise	1	17	2	11	0.0	0.2	0.0	17	2	11	0.0	0.2	0.0	1	0.814	0.000	L	17	0.0	477.406	479.783	480.597	480.599	0
1	22102405	138	Low	10.0	Vague	2	15	17	21	0.0	0.0	0.0	15	21	17	0.0	0.0	0.0	2	1.025	0.001	R	17	0.0	481.102	483.404	484.429	484.431	0
1	22102405	139	Low	10.0	Precise	1	16	17	11	0.0	0.0	0.0	11	17	16	0.0	0.0	0.0	2	0.816	0.000	D	17	0.0	484.934	485.829	486.645	486.647	0
1	22102405	140	Low	10.0	Precise	1	15	18	3	0.0	0.0	0.0	15	18	3	0.0	0.0	0.0	2	0.862	0.000	D	18	0.0	487.150	488.135	488.997	488.999	0
1	22102405	141	Low	10.0	Vague	2	18	2	25	0.0	0.2	0.0	25	2	18	0.0	0.2	0.0	2	0.684	0.000	D	2	0.2	489.502	490.337	491.021	491.023	0
1	22102405	142	Low	10.0	Precise	1	14	16	3	0.0	0.0	0.0	16	3	14	0.0	0.0	0.0	3	0.877	0.000	D	3	0.0	491.526	493.200	494.077	494.079	0
1	22102405	143	Low	10.0	Vague	2	14	17	25	0.0	0.0	0.0	14	17	25	0.0	0.0	0.0	1	0.311	0.000	L	14	0.0	494.582	496.454	496.765	496.767	0
1	22102405	144	Low	10.0	Precise	1	15	17	3	0.0	0.0	0.0	3	15	17	0.0	0.0	0.0	2	0.182	0.000	R	17	0.0	497.270	500.159	500.341	500.343	0
1	22102405	145	Low	10.0	Precise	1	16	18	7	0.0	0.0	0.0	16	18	7	0.0	0.0	0.0	2	1.152	0.001	D	18	0.0	500.846	502.773	503.925	503.927	0
1	22102405	146	Low	10.0	Precise	1	17	18	7	0.0	0.0	0.0	7	18	17	0.0	0.0	0.0	1	0.692	0.000	R	17	0.0	504.430	505.761	506.453	506.455	0
1	22102405	147	Low	10.0	Precise	1	14	16	11	0.0	0.0	0.0	11	16	14	0.0	0.0	0.0	1	3.321	0.001	R	14	0.0	506.958	508.220	511.541	511.543	0
1	22102405	148	Low	10.0	Vague	2	16	18	21	0.0	0.0	0.0	18	16	21	0.0	0.0	0.0	1	0.384	0.000	D	16	0.0	512.046	514.981	515.365	515.367	0
1	22102405	149	Low	10.0	Precise	1	14	18	9	0.0	0.0	0.0	9	18	14	0.0	0.0	0.0	2	0.562	0.001	D	18	0.0	515.870	516.651	517.213	517.215	0
1	22102405	150	Low	10.0	Precise	1	18	2	11	0.0	0.2	0.0	18	2	11	0.0	0.2	0.0	2	0.414	0.001	D	2	0.2	517.718	520.087	520.501	520.503	0
1	22102405	151	Low	10.0	Precise	1	15	17	13	0.0	0.0	0.0	15	17	13	0.0	0.0	0.0	1	1.059	0.001	L	15	0.0	521.006	523.241	524.301	524.303	0
1	22102405	152	Low	10.0	Vague	2	15	18	29	0.0	0.0	0.0	15	18	29	0.0	0.0	0.0	1	1.556	0.000	L	15	0.0	524.806	525.840	527.397	527.399	0
1	22102405	153	Low	10.0	Vague	2	16	17	29	0.0	0.0	0.0	17	29	16	0.0	0.0	0.0	1	0.811	0.000	R	16	0.0	527.901	529.642	530.453	530.455	0
1	22102405	154	Low	10.0	Precise	1	18	2	7	0.0	0.2	0.0	18	2	7	0.0	0.2	0.0	2	0.607	0.001	D	2	0.2	530.958	531.933	532.541	532.543	0
1	22102405	155	Low	10.0	Vague	2	14	16	23	0.0	0.0	0.0	23	16	14	0.0	0.0	0.0	2	0.803	0.000	D	16	0.0	533.045	534.609	535.412	535.415	0
1	22102405	156	Low	10.0	Vague	2	15	2	19	0.0	0.2	0.0	15	2	19	0.0	0.2	0.0	1	1.561	0.000	L	15	0.0	535.918	537.908	539.469	539.471	0
1	22102405	157	Low	10.0	Vague	2	16	17	21	0.0	0.0	0.0	16	17	21	0.0	0.0	0.0	2	1.178	0.000	D	17	0.0	539.974	542.731	543.909	543.911	0
1	22102405	158	Low	10.0	Precise	1	17	18	5	0.0	0.0	0.0	17	18	5	0.0	0.0	0.0	1	1.146	0.000	L	17	0.0	544.414	547.083	548.228	548.231	0
1	22102405	159	Low	10.0	Precise	1	15	17	9	0.0	0.0	0.0	9	17	15	0.0	0.0	0.0	2	0.744	0.001	D	17	0.0	548.735	549.452	550.197	550.199	0
1	22102405	160	Low	10.0	Vague	2	14	15	21	0.0	0.0	0.0	14	15	21	0.0	0.0	0.0	2	0.812	0.000	D	15	0.0	550.702	553.641	554.453	554.455	0
1	22102405	161	Low	10.0	Vague	2	15	16	23	0.0	0.0	0.0	15	23	16	0.0	0.0	0.0	3	0.995	0.000	D	23	0.0	554.958	555.770	556.765	556.767	0
1	22102405	162	Low	10.0	Vague	2	16	2	21	0.0	0.2	0.0	16	21	2	0.0	0.0	0.2	1	0.952	0.000	L	16	0.0	557.270	559.836	560.788	560.791	0
1	22102405	163	Low	10.0	Precise	1	17	2	7	0.0	0.2	0.0	17	7	2	0.0	0.0	0.2	1	5.231	0.000	L	17	0.0	561.294	562.766	567.997	567.999	0
1	22102405	164	Low	10.0	Precise	1	15	16	5	0.0	0.0	0.0	5	16	15	0.0	0.0	0.0	2	0.531	0.000	D	16	0.0	568.502	570.169	570.701	570.703	0
1	22102405	165	Low	10.0	Vague	2	15	16	29	0.0	0.0	0.0	15	16	29	0.0	0.0	0.0	2	0.480	0.000	D	16	0.0	571.206	574.149	574.629	574.631	0
1	22102405	166	Low	10.0	Vague	2	18	2	29	0.0	0.2	0.0	29	18	2	0.0	0.0	0.2	2	2.547	0.001	R	2	0.2	575.134	577.914	580.461	580.463	0
1	22102405	167	Low	10.0	Vague	2	17	2	27	0.0	0.2	0.0	27	2	17	0.0	0.2	0.0	3	1.816	0.000	L	27	0.0	580.966	581.757	583.572	583.575	0
1	22102405	168	Low	10.0	Vague	2	16	17	23	0.0	0.0	0.0	16	23	17	0.0	0.0	0.0	3	0.274	0.000	D	23	0.0	584.077	585.778	586.052	586.055	0
1	22102405	169	Low	10.0	Vague	2	15	17	29	0.0	0.0	0.0	17	15	29	0.0	0.0	0.0	1	0.484	0.000	D	15	0.0	586.557	587.729	588.212	588.215	0
1	22102405	170	Low	10.0	Precise	1	16	17	3	0.0	0.0	0.0	16	17	3	0.0	0.0	0.0	2	0.327	0.001	D	17	0.0	588.719	589.918	590.245	590.247	0
1	22102405	171	Low	10.0	Vague	2	17	2	23	0.0	0.2	0.0	23	17	2	0.0	0.0	0.2	3	0.301	0.001	L	23	0.0	590.750	591.864	592.165	592.167	0
1	22102405	172	Low	10.0	Precise	1	15	17	11	0.0	0.0	0.0	11	15	17	0.0	0.0	0.0	2	0.432	0.000	R	17	0.0	592.671	593.429	593.861	593.863	0
1	22102405	173	Low	10.0	Vague	2	14	15	25	0.0	0.0	0.0	25	15	14	0.0	0.0	0.0	1	0.774	0.000	R	14	0.0	594.366	596.735	597.509	597.511	0
1	22102405	174	Low	10.0	Vague	2	14	18	21	0.0	0.0	0.0	14	18	21	0.0	0.0	0.0	2	0.375	0.000	D	18	0.0	598.013	598.933	599.308	599.311	0
1	22102405	175	Low	10.0	Vague	2	14	2	23	0.0	0.2	0.0	23	14	2	0.0	0.0	0.2	1	0.325	0.000	D	14	0.0	599.814	601.999	602.325	602.327	0
1	22102405	176	Low	10.0	Vague	2	14	16	19	0.0	0.0	0.0	14	19	16	0.0	0.0	0.0	3	0.393	0.001	D	19	0.0	602.830	604.268	604.661	604.663	0
1	22102405	177	Low	10.0	Precise	1	15	18	7	0.0	0.0	0.0	18	7	15	0.0	0.0	0.0	3	0.253	0.000	D	7	0.0	605.166	607.784	608.037	608.039	0
1	22102405	178	Low	10.0	Precise	1	16	2	13	0.0	0.2	0.0	16	13	2	0.0	0.0	0.2	1	0.428	0.000	L	16	0.0	608.542	609.793	610.221	610.223	0
1	22102405	179	Low	10.0	Precise	1	15	16	7	0.0	0.0	0.0	15	16	7	0.0	0.0	0.0	2	0.753	0.001	D	16	0.0	610.725	613.196	613.949	613.951	0
1	22102405	180	Low	10.0	Precise	1	14	18	5	0.0	0.0	0.0	5	18	14	0.0	0.0	0.0	2	2.626	0.001	D	18	0.0	614.454	615.267	617.893	617.895	0
1	22102405	181	High	1.5	Precise	1	15	16	6	0.0	0.0	0.0	15	6	16	0.0	0.0	0.0	2	0.541	0.000	R	16	0.0	666.691	668.303	668.844	668.847	0
1	22102405	182	High	1.5	Precise	1	17	2	8	0.0	0.2	0.0	17	8	2	0.0	0.0	0.2	2	1.170	0.001	R	2	0.2	669.350	669.859	671.029	671.031	0
1	22102405	183	High	1.5	Vague	2	17	2	28	0.0	0.2	0.0	28	2	17	0.0	0.2	0.0	NaN	NaN	NaN	NaN	NaN	NaN	671.534	673.771	NaN	675.260	1
1	22102405	184	High	1.5	Vague	2	15	17	20	0.0	0.0	0.0	15	17	20	0.0	0.0	0.0	NaN	NaN	NaN	NaN	NaN	NaN	677.264	678.575	NaN	680.062	1
1	22102405	185	High	1.5	Vague	2	14	2	26	0.0	0.2	0.0	2	26	14	0.2	0.0	0.0	NaN	NaN	NaN	NaN	NaN	NaN	682.064	683.881	NaN	685.368	1
1	22102405	186	High	1.5	Vague	2	14	18	26	0.0	0.0	0.0	18	26	14	0.0	0.0	0.0	NaN	NaN	NaN	NaN	NaN	NaN	687.371	688.280	NaN	689.766	1
1	22102405	187	High	1.5	Vague	2	14	16	28	0.0	0.0	0.0	28	16	14	0.0	0.0	0.0	NaN	NaN	NaN	NaN	NaN	NaN	691.769	693.293	NaN	694.780	1
1	22102405	188	High	1.5	Precise	1	14	16	12	0.0	0.0	0.0	16	12	14	0.0	0.0	0.0	NaN	NaN	NaN	NaN	NaN	NaN	696.783	697.470	NaN	698.957	1
1	22102405	189	High	1.5	Precise	1	16	17	8	0.0	0.0	0.0	8	16	17	0.0	0.0	0.0	2	0.614	0.001	R	17	0.0	700.960	702.095	702.709	702.712	0
1	22102405	190	High	1.5	Vague	2	15	17	22	0.0	0.0	0.0	17	15	22	0.0	0.0	0.0	1	0.602	0.000	D	15	0.0	703.215	706.019	706.621	706.623	0
1	22102405	191	High	1.5	Precise	1	16	18	8	0.0	0.0	0.0	18	8	16	0.0	0.0	0.0	1	0.420	0.000	R	16	0.0	707.126	708.328	708.748	708.751	0
1	22102405	192	High	1.5	Precise	1	15	2	10	0.0	0.2	0.0	15	2	10	0.0	0.2	0.0	2	0.279	0.000	D	2	0.2	709.254	711.742	712.021	712.023	0
1	22102405	193	High	1.5	Precise	1	15	2	8	0.0	0.2	0.0	8	2	15	0.0	0.2	0.0	1	0.366	0.000	R	15	0.0	712.525	714.254	714.620	714.623	0
1	22102405	194	High	1.5	Precise	1	14	15	8	0.0	0.0	0.0	14	8	15	0.0	0.0	0.0	3	0.323	0.000	D	8	0.0	715.126	717.201	717.524	717.527	0
1	22102405	195	High	1.5	Precise	1	14	15	6	0.0	0.0	0.0	14	6	15	0.0	0.0	0.0	2	0.628	0.000	R	15	0.0	718.030	718.696	719.325	719.327	0
1	22102405	196	High	1.5	Vague	2	17	18	30	0.0	0.0	0.0	18	30	17	0.0	0.0	0.0	3	0.000	3.387	D	30	0.0	719.830	722.711	722.711	722.726	0
1	22102405	197	High	1.5	Vague	2	14	17	22	0.0	0.0	0.0	17	22	14	0.0	0.0	0.0	1	0.361	0.000	R	14	0.0	723.230	725.619	725.981	725.983	0
1	22102405	198	High	1.5	Precise	1	15	16	4	0.0	0.0	0.0	15	16	4	0.0	0.0	0.0	2	0.005	0.000	D	16	0.0	726.488	728.232	728.237	728.246	0
1	22102405	199	High	1.5	Vague	2	16	17	30	0.0	0.0	0.0	16	17	30	0.0	0.0	0.0	1	0.417	0.000	L	16	0.0	728.749	730.164	730.581	730.583	0
1	22102405	200	High	1.5	Vague	2	14	2	28	0.0	0.2	0.0	2	14	28	0.2	0.0	0.0	1	0.346	0.001	D	14	0.0	731.085	732.219	732.565	732.567	0
1	22102405	201	High	1.5	Precise	1	16	17	12	0.0	0.0	0.0	16	17	12	0.0	0.0	0.0	3	0.415	0.001	R	12	0.0	733.070	733.654	734.069	734.071	0
1	22102405	202	High	1.5	Vague	2	14	16	26	0.0	0.0	0.0	14	26	16	0.0	0.0	0.0	1	0.000	2.354	L	14	0.0	734.574	736.423	736.423	736.441	0
1	22102405	203	High	1.5	Precise	1	17	2	4	0.0	0.2	0.0	4	2	17	0.0	0.2	0.0	1	0.316	0.000	R	17	0.0	736.945	737.841	738.157	738.159	0
1	22102405	204	High	1.5	Vague	2	17	2	26	0.0	0.2	0.0	17	2	26	0.0	0.2	0.0	2	0.293	0.000	D	2	0.2	738.662	740.647	740.940	740.943	0
1	22102405	205	High	1.5	Vague	2	18	2	20	0.0	0.2	0.0	18	20	2	0.0	0.0	0.2	1	0.476	0.000	L	18	0.0	741.445	744.360	744.837	744.839	0
1	22102405	206	High	1.5	Vague	2	14	15	28	0.0	0.0	0.0	14	15	28	0.0	0.0	0.0	3	0.420	0.000	R	28	0.0	745.342	746.121	746.540	746.543	0
1	22102405	207	High	1.5	Precise	1	15	17	1	0.0	0.0	0.0	17	15	1	0.0	0.0	0.0	1	0.586	0.000	D	15	0.0	747.046	749.842	750.429	750.431	0
1	22102405	208	High	1.5	Precise	1	17	2	1	0.0	0.2	0.0	17	2	1	0.0	0.2	0.0	3	0.406	0.000	R	1	0.0	750.934	753.711	754.117	754.119	0
1	22102405	209	High	1.5	Precise	1	15	18	4	0.0	0.0	0.0	4	15	18	0.0	0.0	0.0	1	0.008	0.000	D	15	0.0	754.622	756.757	756.765	756.779	0
1	22102405	210	High	1.5	Vague	2	16	17	26	0.0	0.0	0.0	17	26	16	0.0	0.0	0.0	3	0.056	0.000	D	26	0.0	757.282	758.684	758.741	758.743	0
1	22102405	211	High	1.5	Vague	2	17	18	20	0.0	0.0	0.0	20	17	18	0.0	0.0	0.0	1	0.065	0.000	D	17	0.0	759.246	761.931	761.997	762.000	0
1	22102405	212	High	1.5	Precise	1	16	2	8	0.0	0.2	0.0	2	16	8	0.2	0.0	0.0	1	0.000	2.491	D	16	0.0	762.503	764.487	764.488	764.507	0
1	22102405	213	High	1.5	Precise	1	14	18	1	0.0	0.0	0.0	1	18	14	0.0	0.0	0.0	2	0.700	0.000	D	18	0.0	765.010	766.897	767.597	767.599	0
1	22102405	214	High	1.5	Vague	2	15	17	28	0.0	0.0	0.0	17	28	15	0.0	0.0	0.0	2	0.450	0.000	L	17	0.0	768.102	770.203	770.652	770.655	0
1	22102405	215	High	1.5	Precise	1	14	15	10	0.0	0.0	0.0	14	15	10	0.0	0.0	0.0	NaN	NaN	NaN	NaN	NaN	NaN	771.158	771.739	NaN	773.226	1
1	22102405	216	High	1.5	Vague	2	16	2	20	0.0	0.2	0.0	20	16	2	0.0	0.0	0.2	NaN	NaN	NaN	NaN	NaN	NaN	775.229	776.946	NaN	778.432	1
1	22102405	217	High	1.5	Vague	2	14	17	30	0.0	0.0	0.0	14	30	17	0.0	0.0	0.0	NaN	NaN	NaN	NaN	NaN	NaN	780.435	781.153	NaN	782.639	1
1	22102405	218	High	1.5	Precise	1	16	2	6	0.0	0.2	0.0	2	6	16	0.2	0.0	0.0	3	0.460	0.000	D	6	0.0	784.642	787.480	787.941	787.943	0
1	22102405	219	High	1.5	Precise	1	17	2	12	0.0	0.2	0.0	2	12	17	0.2	0.0	0.0	1	0.760	0.000	R	17	0.0	788.447	789.741	790.501	790.503	0
1	22102405	220	High	1.5	Vague	2	14	15	26	0.0	0.0	0.0	26	14	15	0.0	0.0	0.0	2	0.417	0.001	R	15	0.0	791.005	792.740	793.157	793.159	0
1	22102405	221	High	1.5	Precise	1	15	18	8	0.0	0.0	0.0	15	18	8	0.0	0.0	0.0	3	1.084	0.001	R	8	0.0	793.662	795.489	796.573	796.575	0
1	22102405	222	High	1.5	Precise	1	15	2	12	0.0	0.2	0.0	15	12	2	0.0	0.0	0.2	3	0.649	0.000	D	12	0.0	797.078	797.939	798.589	798.591	0
1	22102405	223	High	1.5	Vague	2	14	16	24	0.0	0.0	0.0	14	24	16	0.0	0.0	0.0	2	0.559	0.000	R	16	0.0	799.093	799.678	800.237	800.239	0
1	22102405	224	High	1.5	Precise	1	14	2	1	0.0	0.2	0.0	1	2	14	0.0	0.2	0.0	3	0.557	0.000	L	1	0.0	800.741	801.288	801.844	801.847	0
1	22102405	225	High	1.5	Vague	2	16	2	24	0.0	0.2	0.0	2	24	16	0.2	0.0	0.0	1	0.674	0.001	R	16	0.0	802.350	805.050	805.725	805.727	0
1	22102405	226	High	1.5	Vague	2	15	2	20	0.0	0.2	0.0	20	15	2	0.0	0.0	0.2	1	0.953	0.000	D	15	0.0	806.230	807.828	808.781	808.783	0
1	22102405	227	High	1.5	Precise	1	15	16	12	0.0	0.0	0.0	15	12	16	0.0	0.0	0.0	2	0.517	0.000	R	16	0.0	809.286	812.144	812.661	812.663	0
1	22102405	228	High	1.5	Precise	1	15	17	10	0.0	0.0	0.0	15	10	17	0.0	0.0	0.0	2	0.367	0.001	R	17	0.0	813.166	814.438	814.805	814.807	0
1	22102405	229	High	1.5	Vague	2	16	17	22	0.0	0.0	0.0	16	22	17	0.0	0.0	0.0	2	0.357	0.000	R	17	0.0	815.310	816.263	816.620	816.624	0
1	22102405	230	High	1.5	Vague	2	15	18	30	0.0	0.0	0.0	18	30	15	0.0	0.0	0.0	3	0.829	0.000	D	30	0.0	817.126	818.623	819.453	819.455	0
1	22102405	231	High	1.5	Vague	2	15	17	30	0.0	0.0	0.0	17	30	15	0.0	0.0	0.0	2	0.637	0.000	L	17	0.0	819.958	822.376	823.013	823.015	0
1	22102405	232	High	1.5	Precise	1	15	2	1	0.0	0.2	0.0	1	15	2	0.0	0.0	0.2	1	0.640	0.000	D	15	0.0	823.517	825.157	825.797	825.799	0
1	22102405	233	High	1.5	Vague	2	15	18	24	0.0	0.0	0.0	15	18	24	0.0	0.0	0.0	2	0.805	0.001	D	18	0.0	826.302	828.560	829.365	829.368	0
1	22102405	234	High	1.5	Precise	1	14	18	4	0.0	0.0	0.0	14	4	18	0.0	0.0	0.0	3	0.654	0.001	D	4	0.0	829.871	831.071	831.725	831.727	0
1	22102405	235	High	1.5	Precise	1	15	17	4	0.0	0.0	0.0	15	4	17	0.0	0.0	0.0	1	0.279	0.001	L	15	0.0	832.230	833.614	833.893	833.895	0
1	22102405	236	High	1.5	Precise	1	14	2	12	0.0	0.2	0.0	14	12	2	0.0	0.0	0.2	2	0.331	0.001	R	2	0.2	834.398	836.042	836.373	836.376	0
1	22102405	237	High	1.5	Precise	1	16	18	6	0.0	0.0	0.0	6	18	16	0.0	0.0	0.0	2	0.000	2.895	D	18	0.0	836.879	839.268	839.268	839.286	0
1	22102405	238	High	1.5	Precise	1	14	16	10	0.0	0.0	0.0	10	16	14	0.0	0.0	0.0	2	0.000	2.086	D	16	0.0	839.789	841.354	841.354	841.360	0
1	22102405	239	High	1.5	Precise	1	14	2	4	0.0	0.2	0.0	4	2	14	0.0	0.2	0.0	2	0.139	0.001	D	2	0.2	841.864	842.554	842.693	842.695	0
1	22102405	240	High	1.5	Precise	1	16	17	10	0.0	0.0	0.0	10	16	17	0.0	0.0	0.0	1	0.023	0.001	D	16	0.0	843.198	844.782	844.805	844.807	0
1	22102405	241	High	1.5	Vague	2	15	16	30	0.0	0.0	0.0	16	30	15	0.0	0.0	0.0	3	0.579	0.000	D	30	0.0	849.749	851.674	852.253	852.255	0
1	22102405	242	High	1.5	Precise	1	14	2	8	0.0	0.2	0.0	2	8	14	0.2	0.0	0.0	2	0.792	0.000	L	2	0.2	852.759	854.197	854.989	854.992	0
1	22102405	243	High	1.5	Vague	2	17	18	28	0.0	0.0	0.0	17	28	18	0.0	0.0	0.0	3	0.280	0.000	D	28	0.0	855.494	856.693	856.973	856.976	0
1	22102405	244	High	1.5	Vague	2	15	16	22	0.0	0.0	0.0	15	22	16	0.0	0.0	0.0	2	0.324	0.001	R	16	0.0	857.479	858.625	858.949	858.951	0
1	22102405	245	High	1.5	Vague	2	16	2	30	0.0	0.2	0.0	30	2	16	0.0	0.2	0.0	1	0.260	0.000	R	16	0.0	859.455	862.153	862.412	862.415	0
1	22102405	246	High	1.5	Vague	2	15	16	26	0.0	0.0	0.0	26	15	16	0.0	0.0	0.0	2	0.260	0.001	R	16	0.0	862.918	865.449	865.709	865.711	0
1	22102405	247	High	1.5	Vague	2	14	15	30	0.0	0.0	0.0	14	15	30	0.0	0.0	0.0	3	0.391	0.000	R	30	0.0	866.215	868.654	869.045	869.047	0
1	22102405	248	High	1.5	Vague	2	16	18	20	0.0	0.0	0.0	18	20	16	0.0	0.0	0.0	3	0.440	0.000	D	20	0.0	869.549	872.309	872.749	872.751	0
1	22102405	249	High	1.5	Vague	2	14	2	30	0.0	0.2	0.0	30	14	2	0.0	0.0	0.2	2	0.904	0.000	R	2	0.2	873.254	874.973	875.876	875.879	0
1	22102405	250	High	1.5	Vague	2	17	2	24	0.0	0.2	0.0	17	2	24	0.0	0.2	0.0	2	0.489	0.000	D	2	0.2	876.382	877.788	878.277	878.279	0
1	22102405	251	High	1.5	Precise	1	14	17	12	0.0	0.0	0.0	12	17	14	0.0	0.0	0.0	3	0.626	0.000	L	12	0.0	878.782	879.547	880.173	880.175	0
1	22102405	252	High	1.5	Precise	1	16	2	4	0.0	0.2	0.0	16	2	4	0.0	0.2	0.0	3	0.292	0.001	R	4	0.0	880.677	882.240	882.533	882.535	0
1	22102405	253	High	1.5	Precise	1	14	17	4	0.0	0.0	0.0	14	17	4	0.0	0.0	0.0	1	0.294	0.000	L	14	0.0	883.038	884.519	884.812	884.815	0
1	22102405	254	High	1.5	Vague	2	16	17	20	0.0	0.0	0.0	20	16	17	0.0	0.0	0.0	2	0.310	0.000	R	17	0.0	885.317	887.759	888.068	888.071	0
1	22102405	255	High	1.5	Vague	2	17	2	20	0.0	0.2	0.0	20	2	17	0.0	0.2	0.0	2	0.430	0.000	D	2	0.2	888.574	889.566	889.996	889.999	0
1	22102405	256	High	1.5	Vague	2	14	17	28	0.0	0.0	0.0	17	28	14	0.0	0.0	0.0	2	0.366	0.000	L	17	0.0	890.502	891.510	891.876	891.879	0
1	22102405	257	High	1.5	Precise	1	14	18	10	0.0	0.0	0.0	10	18	14	0.0	0.0	0.0	1	0.178	0.000	R	14	0.0	892.382	894.027	894.205	894.207	0
1	22102405	258	High	1.5	Vague	2	14	18	30	0.0	0.0	0.0	14	18	30	0.0	0.0	0.0	2	0.504	0.000	D	18	0.0	894.710	895.253	895.757	895.759	0
1	22102405	259	High	1.5	Vague	2	14	18	24	0.0	0.0	0.0	18	14	24	0.0	0.0	0.0	2	0.330	0.000	L	18	0.0	896.262	899.083	899.412	899.415	0
1	22102405	260	High	1.5	Precise	1	16	17	4	0.0	0.0	0.0	4	16	17	0.0	0.0	0.0	1	0.382	0.000	D	16	0.0	899.918	901.343	901.725	901.727	0
1	22102405	261	High	1.5	Precise	1	15	17	6	0.0	0.0	0.0	6	15	17	0.0	0.0	0.0	2	0.502	0.000	R	17	0.0	902.229	903.031	903.533	903.535	0
1	22102405	262	High	1.5	Vague	2	16	2	22	0.0	0.2	0.0	2	16	22	0.2	0.0	0.0	1	0.594	0.000	D	16	0.0	904.038	906.555	907.148	907.151	0
1	22102405	263	High	1.5	Vague	2	17	2	22	0.0	0.2	0.0	17	2	22	0.0	0.2	0.0	1	0.915	0.000	L	17	0.0	907.654	909.553	910.468	910.471	0
1	22102405	264	High	1.5	Precise	1	17	18	10	0.0	0.0	0.0	10	18	17	0.0	0.0	0.0	1	0.679	0.001	R	17	0.0	910.974	913.910	914.589	914.591	0
1	22102405	265	High	1.5	Vague	2	14	15	22	0.0	0.0	0.0	14	15	22	0.0	0.0	0.0	2	1.002	0.001	D	15	0.0	915.094	915.762	916.765	916.767	0
1	22102405	266	High	1.5	Vague	2	16	17	28	0.0	0.0	0.0	16	17	28	0.0	0.0	0.0	2	0.917	0.000	D	17	0.0	917.270	919.439	920.356	920.359	0
1	22102405	267	High	1.5	Vague	2	14	16	22	0.0	0.0	0.0	22	16	14	0.0	0.0	0.0	2	0.603	0.000	D	16	0.0	920.861	923.058	923.660	923.663	0
1	22102405	268	High	1.5	Precise	1	15	16	8	0.0	0.0	0.0	8	15	16	0.0	0.0	0.0	2	0.667	0.000	R	16	0.0	924.166	925.337	926.004	926.008	0
1	22102405	269	High	1.5	Precise	1	17	18	1	0.0	0.0	0.0	18	1	17	0.0	0.0	0.0	1	0.624	0.000	R	17	0.0	926.510	929.004	929.628	929.631	0
1	22102405	270	High	1.5	Vague	2	15	2	26	0.0	0.2	0.0	15	26	2	0.0	0.0	0.2	3	0.521	0.000	D	26	0.0	930.134	932.204	932.725	932.727	0
1	22102405	271	High	1.5	Precise	1	14	17	8	0.0	0.0	0.0	17	8	14	0.0	0.0	0.0	3	0.407	0.001	D	8	0.0	933.229	934.213	934.621	934.623	0
1	22102405	272	High	1.5	Precise	1	17	18	8	0.0	0.0	0.0	17	18	8	0.0	0.0	0.0	1	0.435	0.000	L	17	0.0	935.126	937.945	938.380	938.383	0
1	22102405	273	High	1.5	Precise	1	16	2	12	0.0	0.2	0.0	16	2	12	0.0	0.2	0.0	3	0.974	0.001	R	12	0.0	938.886	939.751	940.725	940.727	0
1	22102405	274	High	1.5	Vague	2	17	18	26	0.0	0.0	0.0	18	17	26	0.0	0.0	0.0	3	0.717	0.001	R	26	0.0	941.230	944.032	944.749	944.751	0
1	22102405	275	High	1.5	Vague	2	18	2	30	0.0	0.2	0.0	18	2	30	0.0	0.2	0.0	2	0.593	0.000	D	2	0.2	945.254	948.156	948.749	948.751	0
1	22102405	276	High	1.5	Vague	2	16	18	24	0.0	0.0	0.0	24	16	18	0.0	0.0	0.0	1	0.694	0.001	D	16	0.0	949.254	951.087	951.781	951.783	0
1	22102405	277	High	1.5	Vague	2	16	17	24	0.0	0.0	0.0	17	24	16	0.0	0.0	0.0	1	0.604	0.001	R	16	0.0	952.286	954.353	954.957	954.959	0
1	22102405	278	High	1.5	Precise	1	15	18	12	0.0	0.0	0.0	12	18	15	0.0	0.0	0.0	1	0.695	0.000	R	15	0.0	955.462	957.302	957.997	957.999	0
1	22102405	279	High	1.5	Vague	2	15	17	24	0.0	0.0	0.0	17	24	15	0.0	0.0	0.0	3	0.648	0.001	D	24	0.0	958.502	960.205	960.853	960.855	0
1	22102405	280	High	1.5	Precise	1	14	18	8	0.0	0.0	0.0	8	14	18	0.0	0.0	0.0	1	0.620	0.000	D	14	0.0	961.358	962.136	962.756	962.759	0
1	22102405	281	High	1.5	Precise	1	18	2	8	0.0	0.2	0.0	2	18	8	0.2	0.0	0.0	3	0.693	0.000	R	8	0.0	963.261	964.280	964.972	964.975	0
1	22102405	282	High	1.5	Vague	2	14	18	22	0.0	0.0	0.0	14	22	18	0.0	0.0	0.0	3	0.498	0.000	D	22	0.0	965.477	966.851	967.349	967.351	0
1	22102405	283	High	1.5	Vague	2	17	18	24	0.0	0.0	0.0	24	18	17	0.0	0.0	0.0	1	1.294	0.000	R	17	0.0	967.854	968.503	969.797	969.799	0
1	22102405	284	High	1.5	Vague	2	15	18	26	0.0	0.0	0.0	15	18	26	0.0	0.0	0.0	2	0.617	0.000	D	18	0.0	970.302	971.083	971.701	971.703	0
1	22102405	285	High	1.5	Vague	2	16	18	28	0.0	0.0	0.0	18	16	28	0.0	0.0	0.0	3	0.932	0.000	R	28	0.0	972.206	973.201	974.133	974.135	0
1	22102405	286	High	1.5	Vague	2	14	2	24	0.0	0.2	0.0	24	2	14	0.0	0.2	0.0	2	0.556	0.000	D	2	0.2	974.638	976.017	976.573	976.575	0
1	22102405	287	High	1.5	Vague	2	14	17	24	0.0	0.0	0.0	14	24	17	0.0	0.0	0.0	2	1.382	0.000	R	17	0.0	977.078	978.503	979.884	979.887	0
1	22102405	288	High	1.5	Precise	1	14	18	6	0.0	0.0	0.0	14	6	18	0.0	0.0	0.0	3	0.736	0.000	D	6	0.0	980.389	981.933	982.669	982.671	0
1	22102405	289	High	1.5	Vague	2	18	2	26	0.0	0.2	0.0	2	26	18	0.2	0.0	0.0	3	0.578	0.001	D	26	0.0	983.175	985.947	986.525	986.527	0
1	22102405	290	High	1.5	Vague	2	14	18	28	0.0	0.0	0.0	18	14	28	0.0	0.0	0.0	3	0.619	0.000	R	28	0.0	987.030	989.289	989.909	989.911	0
1	22102405	291	High	1.5	Precise	1	17	2	6	0.0	0.2	0.0	6	2	17	0.0	0.2	0.0	3	1.313	0.000	L	6	0.0	990.414	991.532	992.845	992.847	0
1	22102405	292	High	1.5	Vague	2	15	18	22	0.0	0.0	0.0	22	15	18	0.0	0.0	0.0	NaN	NaN	NaN	NaN	NaN	NaN	993.350	995.425	NaN	996.914	1
1	22102405	293	High	1.5	Precise	1	15	18	10	0.0	0.0	0.0	15	10	18	0.0	0.0	0.0	NaN	NaN	NaN	NaN	NaN	NaN	998.916	1001.672	NaN	1003.158	1
1	22102405	294	High	1.5	Precise	1	15	18	6	0.0	0.0	0.0	18	6	15	0.0	0.0	0.0	NaN	NaN	NaN	NaN	NaN	NaN	1005.162	1006.996	NaN	1008.483	1
1	22102405	295	High	1.5	Vague	2	14	2	22	0.0	0.2	0.0	2	22	14	0.2	0.0	0.0	NaN	NaN	NaN	NaN	NaN	NaN	1010.485	1012.853	NaN	1014.339	1
1	22102405	296	High	1.5	Vague	2	14	17	26	0.0	0.0	0.0	26	17	14	0.0	0.0	0.0	2	1.224	0.000	D	17	0.0	1016.343	1017.357	1018.581	1018.583	0
1	22102405	297	High	1.5	Precise	1	16	17	6	0.0	0.0	0.0	6	16	17	0.0	0.0	0.0	NaN	NaN	NaN	NaN	NaN	NaN	1019.085	1021.730	NaN	1023.216	1
1	22102405	298	High	1.5	Vague	2	15	18	28	0.0	0.0	0.0	15	18	28	0.0	0.0	0.0	1	1.438	0.000	L	15	0.0	1025.219	1026.111	1027.549	1027.551	0
1	22102405	299	High	1.5	Vague	2	14	2	20	0.0	0.2	0.0	20	14	2	0.0	0.0	0.2	1	1.034	0.000	D	14	0.0	1028.054	1030.755	1031.789	1031.791	0
1	22102405	300	High	1.5	Precise	1	18	2	12	0.0	0.2	0.0	2	18	12	0.2	0.0	0.0	1	1.357	0.000	D	18	0.0	1032.294	1033.144	1034.501	1034.503	0
1	22102405	301	High	1.5	Vague	2	15	16	28	0.0	0.0	0.0	16	28	15	0.0	0.0	0.0	2	0.770	0.000	L	16	0.0	1050.106	1050.778	1051.548	1051.551	0
1	22102405	302	High	1.5	Precise	1	14	17	6	0.0	0.0	0.0	17	6	14	0.0	0.0	0.0	2	0.795	0.000	L	17	0.0	1052.054	1052.921	1053.716	1053.719	0
1	22102405	303	High	1.5	Precise	1	17	18	12	0.0	0.0	0.0	18	17	12	0.0	0.0	0.0	2	0.298	0.000	L	18	0.0	1054.222	1056.642	1056.941	1056.943	0
1	22102405	304	High	1.5	Precise	1	18	2	4	0.0	0.2	0.0	2	4	18	0.2	0.0	0.0	3	0.491	0.000	D	4	0.0	1057.446	1058.250	1058.741	1058.743	0
1	22102405	305	High	1.5	Precise	1	16	2	1	0.0	0.2	0.0	1	16	2	0.0	0.0	0.2	2	0.667	0.000	R	2	0.2	1059.247	1059.802	1060.469	1060.471	0
1	22102405	306	High	1.5	Vague	2	14	16	30	0.0	0.0	0.0	14	30	16	0.0	0.0	0.0	2	0.599	0.000	R	16	0.0	1060.974	1061.853	1062.452	1062.455	0
1	22102405	307	High	1.5	Vague	2	14	16	20	0.0	0.0	0.0	14	16	20	0.0	0.0	0.0	2	0.475	0.000	D	16	0.0	1062.957	1064.209	1064.685	1064.687	0
1	22102405	308	High	1.5	Vague	2	16	18	30	0.0	0.0	0.0	30	18	16	0.0	0.0	0.0	1	0.541	0.000	R	16	0.0	1065.190	1067.479	1068.020	1068.023	0
1	22102405	309	High	1.5	Vague	2	14	17	20	0.0	0.0	0.0	14	17	20	0.0	0.0	0.0	2	0.594	0.000	D	17	0.0	1068.526	1069.707	1070.301	1070.303	0
1	22102405	310	High	1.5	Vague	2	18	2	22	0.0	0.2	0.0	18	2	22	0.0	0.2	0.0	2	0.554	0.001	D	2	0.2	1070.805	1071.539	1072.093	1072.095	0
1	22102405	311	High	1.5	Precise	1	14	15	1	0.0	0.0	0.0	1	14	15	0.0	0.0	0.0	1	1.260	0.001	D	14	0.0	1072.597	1075.273	1076.533	1076.536	0
1	22102405	312	High	1.5	Vague	2	15	2	30	0.0	0.2	0.0	2	15	30	0.2	0.0	0.0	1	0.426	0.000	D	15	0.0	1077.038	1079.482	1079.908	1079.911	0
1	22102405	313	High	1.5	Precise	1	15	16	10	0.0	0.0	0.0	15	16	10	0.0	0.0	0.0	1	0.405	0.000	L	15	0.0	1080.414	1082.471	1082.876	1082.879	0
1	22102405	314	High	1.5	Precise	1	14	15	4	0.0	0.0	0.0	4	15	14	0.0	0.0	0.0	1	0.447	0.001	R	14	0.0	1083.382	1086.046	1086.493	1086.496	0
1	22102405	315	High	1.5	Vague	2	17	18	22	0.0	0.0	0.0	18	22	17	0.0	0.0	0.0	3	0.588	0.000	D	22	0.0	1086.998	1088.273	1088.861	1088.863	0
1	22102405	316	High	1.5	Precise	1	15	18	1	0.0	0.0	0.0	1	15	18	0.0	0.0	0.0	2	0.395	0.000	R	18	0.0	1089.366	1090.025	1090.421	1090.423	0
1	22102405	317	High	1.5	Precise	1	15	2	6	0.0	0.2	0.0	6	2	15	0.0	0.2	0.0	2	0.296	0.000	D	2	0.2	1090.926	1091.612	1091.909	1091.911	0
1	22102405	318	High	1.5	Vague	2	18	2	24	0.0	0.2	0.0	18	2	24	0.0	0.2	0.0	1	0.337	0.000	L	18	0.0	1092.413	1095.332	1095.669	1095.671	0
1	22102405	319	High	1.5	Vague	2	17	2	30	0.0	0.2	0.0	2	30	17	0.2	0.0	0.0	NaN	NaN	NaN	NaN	NaN	NaN	1096.175	1098.039	NaN	1099.528	1
1	22102405	320	High	1.5	Precise	1	14	16	6	0.0	0.0	0.0	16	14	6	0.0	0.0	0.0	1	0.385	0.000	D	14	0.0	1101.530	1103.148	1103.533	1103.535	0
1	22102405	321	High	1.5	Precise	1	17	18	6	0.0	0.0	0.0	18	6	17	0.0	0.0	0.0	2	0.605	0.001	L	18	0.0	1104.038	1106.720	1107.325	1107.328	0
1	22102405	322	High	1.5	Vague	2	14	18	20	0.0	0.0	0.0	20	18	14	0.0	0.0	0.0	1	0.567	0.000	R	14	0.0	1107.831	1109.677	1110.244	1110.247	0
1	22102405	323	High	1.5	Vague	2	14	15	20	0.0	0.0	0.0	14	20	15	0.0	0.0	0.0	3	0.334	0.000	D	20	0.0	1110.750	1112.687	1113.021	1113.023	0
1	22102405	324	High	1.5	Precise	1	14	18	12	0.0	0.0	0.0	12	18	14	0.0	0.0	0.0	1	0.324	0.000	R	14	0.0	1113.526	1114.897	1115.221	1115.223	0
1	22102405	325	High	1.5	Precise	1	16	18	10	0.0	0.0	0.0	10	16	18	0.0	0.0	0.0	3	0.500	0.000	L	10	0.0	1115.726	1117.777	1118.277	1118.279	0
1	22102405	326	High	1.5	Vague	2	16	18	22	0.0	0.0	0.0	22	16	18	0.0	0.0	0.0	2	1.207	0.000	R	18	0.0	1118.782	1119.581	1120.789	1120.791	0
1	22102405	327	High	1.5	Vague	2	16	2	28	0.0	0.2	0.0	28	2	16	0.0	0.2	0.0	1	0.537	0.000	R	16	0.0	1121.294	1122.235	1122.773	1122.775	0
1	22102405	328	High	1.5	Vague	2	15	2	24	0.0	0.2	0.0	15	2	24	0.0	0.2	0.0	NaN	NaN	NaN	NaN	NaN	NaN	1123.278	1125.440	NaN	1126.926	1
1	22102405	329	High	1.5	Precise	1	16	17	1	0.0	0.0	0.0	1	16	17	0.0	0.0	0.0	2	0.643	0.000	R	17	0.0	1128.929	1131.458	1132.101	1132.103	0
1	22102405	330	High	1.5	Precise	1	14	17	1	0.0	0.0	0.0	1	14	17	0.0	0.0	0.0	1	0.440	0.000	D	14	0.0	1132.606	1135.157	1135.597	1135.599	0
1	22102405	331	High	1.5	Precise	1	14	17	10	0.0	0.0	0.0	17	14	10	0.0	0.0	0.0	3	0.893	0.001	R	10	0.0	1136.102	1137.288	1138.181	1138.183	0
1	22102405	332	High	1.5	Precise	1	15	16	1	0.0	0.0	0.0	1	16	15	0.0	0.0	0.0	2	0.352	0.001	D	16	0.0	1138.686	1140.140	1140.493	1140.495	0
1	22102405	333	High	1.5	Vague	2	16	18	26	0.0	0.0	0.0	26	16	18	0.0	0.0	0.0	1	0.364	0.000	D	16	0.0	1140.998	1143.577	1143.941	1143.943	0
1	22102405	334	High	1.5	Precise	1	16	18	4	0.0	0.0	0.0	18	4	16	0.0	0.0	0.0	3	0.855	0.001	D	4	0.0	1144.446	1145.094	1145.949	1145.951	0
1	22102405	335	High	1.5	Precise	1	14	16	8	0.0	0.0	0.0	14	8	16	0.0	0.0	0.0	2	0.489	0.000	R	16	0.0	1146.454	1148.556	1149.045	1149.047	0
1	22102405	336	High	1.5	Precise	1	14	16	4	0.0	0.0	0.0	14	16	4	0.0	0.0	0.0	2	0.832	0.001	D	16	0.0	1149.549	1152.061	1152.893	1152.896	0
1	22102405	337	High	1.5	Precise	1	16	18	12	0.0	0.0	0.0	18	16	12	0.0	0.0	0.0	NaN	NaN	NaN	NaN	NaN	NaN	1153.399	1154.660	NaN	1156.146	1
1	22102405	338	High	1.5	Precise	1	17	2	10	0.0	0.2	0.0	10	2	17	0.0	0.2	0.0	NaN	NaN	NaN	NaN	NaN	NaN	1158.149	1159.665	NaN	1161.151	1
1	22102405	339	High	1.5	Vague	2	15	17	26	0.0	0.0	0.0	15	17	26	0.0	0.0	0.0	2	0.533	0.000	D	17	0.0	1163.154	1164.168	1164.701	1164.703	0
1	22102405	340	High	1.5	Precise	1	18	2	1	0.0	0.2	0.0	2	18	1	0.2	0.0	0.0	NaN	NaN	NaN	NaN	NaN	NaN	1165.206	1166.141	NaN	1167.628	1
1	22102405	341	High	1.5	Precise	1	16	18	1	0.0	0.0	0.0	1	18	16	0.0	0.0	0.0	3	1.330	0.001	L	1	0.0	1169.630	1172.107	1173.437	1173.439	0
1	22102405	342	High	1.5	Precise	1	17	18	4	0.0	0.0	0.0	4	17	18	0.0	0.0	0.0	3	0.542	0.000	L	4	0.0	1173.942	1175.463	1176.004	1176.007	0
1	22102405	343	High	1.5	Vague	2	15	2	22	0.0	0.2	0.0	22	15	2	0.0	0.0	0.2	1	0.000	2.140	D	15	0.0	1176.509	1178.144	1178.145	1178.159	0
1	22102405	344	High	1.5	Precise	1	15	17	12	0.0	0.0	0.0	12	17	15	0.0	0.0	0.0	NaN	NaN	NaN	NaN	NaN	NaN	1178.662	1179.605	NaN	1181.091	1
1	22102405	345	High	1.5	Vague	2	15	18	20	0.0	0.0	0.0	18	20	15	0.0	0.0	0.0	2	0.328	0.000	L	18	0.0	1183.095	1185.749	1186.077	1186.079	0
1	22102405	346	High	1.5	Precise	1	15	2	4	0.0	0.2	0.0	2	15	4	0.2	0.0	0.0	3	0.514	0.001	R	4	0.0	1186.582	1188.995	1189.509	1189.511	0
1	22102405	347	High	1.5	Precise	1	14	15	12	0.0	0.0	0.0	12	15	14	0.0	0.0	0.0	NaN	NaN	NaN	NaN	NaN	NaN	1190.014	1191.665	NaN	1193.151	1
1	22102405	348	High	1.5	Vague	2	15	16	24	0.0	0.0	0.0	15	24	16	0.0	0.0	0.0	1	0.035	0.001	L	15	0.0	1195.154	1195.978	1196.013	1196.015	0
1	22102405	349	High	1.5	Vague	2	16	2	26	0.0	0.2	0.0	2	26	16	0.2	0.0	0.0	1	0.083	0.001	R	16	0.0	1196.517	1199.306	1199.389	1199.391	0
1	22102405	350	High	1.5	Vague	2	15	16	20	0.0	0.0	0.0	15	20	16	0.0	0.0	0.0	2	0.502	0.000	R	16	0.0	1199.895	1201.974	1202.477	1202.479	0
1	22102405	351	High	1.5	Vague	2	15	2	28	0.0	0.2	0.0	2	28	15	0.2	0.0	0.0	1	0.746	0.000	R	15	0.0	1202.982	1204.931	1205.677	1205.679	0
1	22102405	352	High	1.5	Precise	1	18	2	10	0.0	0.2	0.0	2	18	10	0.2	0.0	0.0	1	0.142	0.000	D	18	0.0	1206.181	1209.127	1209.269	1209.271	0
1	22102405	353	High	1.5	Precise	1	14	2	6	0.0	0.2	0.0	14	2	6	0.0	0.2	0.0	2	0.723	0.000	D	2	0.2	1209.774	1211.890	1212.613	1212.615	0
1	22102405	354	High	1.5	Precise	1	14	16	1	0.0	0.0	0.0	1	14	16	0.0	0.0	0.0	2	0.819	0.000	R	16	0.0	1213.117	1213.986	1214.805	1214.807	0
1	22102405	355	High	1.5	Precise	1	14	2	10	0.0	0.2	0.0	14	10	2	0.0	0.0	0.2	3	0.963	0.000	D	10	0.0	1215.310	1216.562	1217.525	1217.527	0
1	22102405	356	High	1.5	Vague	2	18	2	28	0.0	0.2	0.0	2	28	18	0.2	0.0	0.0	3	0.732	0.001	D	28	0.0	1218.030	1219.393	1220.125	1220.127	0
1	22102405	357	High	1.5	Precise	1	16	2	10	0.0	0.2	0.0	16	2	10	0.0	0.2	0.0	1	1.173	0.001	L	16	0.0	1220.631	1222.920	1224.093	1224.095	0
1	22102405	358	High	1.5	Precise	1	15	17	8	0.0	0.0	0.0	17	8	15	0.0	0.0	0.0	3	0.775	0.001	D	8	0.0	1224.597	1225.374	1226.149	1226.151	0
1	22102405	359	High	1.5	Vague	2	14	15	24	0.0	0.0	0.0	15	24	14	0.0	0.0	0.0	2	0.678	0.000	L	15	0.0	1226.654	1228.959	1229.637	1229.639	0
1	22102405	360	High	1.5	Precise	1	18	2	6	0.0	0.2	0.0	18	6	2	0.0	0.0	0.2	3	0.915	0.000	D	6	0.0	1230.142	1232.970	1233.885	1233.887	0
