Group	subID	trial	TimePressure	TimeConstraint	Vagueness	Vaguenesscode	ID1	ID2	ID3	V1	V2	V3	ID_left	ID_middle	ID_right	Bid_left	Bid_middle	Bid_right	chosenItem	RT	RTvariance	chosenPosition	chosenID	chosenValue	fixation_time	option_time	choice_time	feedback_time	timeout
2	22071402	1	High	1.5	Vague	2	30	34	7	52.0	89.7	11.2	7	34	30	11.2	89.7	52.0	2	0.739	0.000	D	34	89.7	7.818	9.806	10.546	10.550	0
2	22071402	2	High	1.5	Precise	1	35	34	25	64.0	89.7	25.4	25	35	34	25.4	64.0	89.7	2	0.834	0.000	R	34	89.7	11.053	13.015	13.850	13.853	0
2	22071402	3	High	1.5	Precise	1	26	33	25	67.3	82.1	25.4	33	26	25	82.1	67.3	25.4	1	0.814	0.001	D	26	67.3	14.358	16.708	17.522	17.525	0
2	22071402	4	High	1.5	Precise	1	36	33	31	47.0	82.1	18.7	31	33	36	18.7	82.1	47.0	2	0.791	0.001	D	33	82.1	18.028	20.507	21.298	21.301	0
2	22071402	5	High	1.5	Vague	2	36	26	18	47.0	67.3	43.2	18	36	26	43.2	47.0	67.3	2	0.749	0.000	R	26	67.3	21.805	23.533	24.282	24.286	0
2	22071402	6	High	1.5	Precise	1	33	34	28	82.1	89.7	33.1	28	33	34	33.1	82.1	89.7	2	0.678	0.001	R	34	89.7	24.791	26.020	26.698	26.701	0
2	22071402	7	High	1.5	Vague	2	30	33	1	52.0	82.1	7.1	30	1	33	52.0	7.1	82.1	3	0.662	0.001	D	1	7.1	27.204	29.597	30.258	30.261	0
2	22071402	8	High	1.5	Vague	2	36	33	1	47.0	82.1	7.1	33	1	36	82.1	7.1	47.0	2	0.876	0.001	L	33	82.1	30.764	31.678	32.554	32.557	0
2	22071402	9	High	1.5	Vague	2	30	34	5	52.0	89.7	40.7	30	5	34	52.0	40.7	89.7	2	0.547	0.000	R	34	89.7	33.060	35.798	36.346	36.348	0
2	22071402	10	High	1.5	Vague	2	26	34	9	67.3	89.7	21.6	26	9	34	67.3	21.6	89.7	2	0.517	0.001	R	34	89.7	36.851	37.997	38.514	38.517	0
2	22071402	11	High	1.5	Vague	2	30	35	18	52.0	64.0	43.2	35	30	18	64.0	52.0	43.2	2	0.737	0.000	L	35	64.0	39.019	41.113	41.850	41.853	0
2	22071402	12	High	1.5	Vague	2	35	33	2	64.0	82.1	2.6	33	35	2	82.1	64.0	2.6	1	0.904	0.000	D	35	64.0	42.355	43.970	44.874	44.877	0
2	22071402	13	High	1.5	Vague	2	30	34	9	52.0	89.7	21.6	30	9	34	52.0	21.6	89.7	2	0.482	0.000	R	34	89.7	45.379	47.097	47.578	47.580	0
2	22071402	14	High	1.5	Precise	1	36	35	20	47.0	64.0	1.7	36	20	35	47.0	1.7	64.0	1	0.647	0.000	L	36	47.0	48.083	49.867	50.514	50.516	0
2	22071402	15	High	1.5	Precise	1	36	33	24	47.0	82.1	22.4	36	33	24	47.0	82.1	22.4	1	0.527	0.000	L	36	47.0	51.019	53.498	54.026	54.029	0
2	22071402	16	High	1.5	Precise	1	26	34	20	67.3	89.7	1.7	20	26	34	1.7	67.3	89.7	2	0.469	0.000	R	34	89.7	54.532	56.413	56.882	56.884	0
2	22071402	17	High	1.5	Precise	1	35	33	28	64.0	82.1	33.1	28	33	35	33.1	82.1	64.0	3	0.675	0.000	L	28	33.1	57.387	59.399	60.074	60.077	0
2	22071402	18	High	1.5	Vague	2	36	34	7	47.0	89.7	11.2	7	34	36	11.2	89.7	47.0	2	0.815	0.000	D	34	89.7	60.579	61.979	62.794	62.797	0
2	22071402	19	High	1.5	Vague	2	35	34	2	64.0	89.7	2.6	2	34	35	2.6	89.7	64.0	2	0.566	0.000	D	34	89.7	63.299	64.508	65.074	65.076	0
2	22071402	20	High	1.5	Vague	2	36	35	5	47.0	64.0	40.7	35	36	5	64.0	47.0	40.7	3	0.727	0.001	R	5	40.7	65.579	66.468	67.194	67.198	0
2	22071402	21	High	1.5	Precise	1	36	26	24	47.0	67.3	22.4	24	36	26	22.4	47.0	67.3	2	0.721	0.000	R	26	67.3	67.700	70.225	70.946	70.948	0
2	22071402	22	High	1.5	Vague	2	36	26	9	47.0	67.3	21.6	26	9	36	67.3	21.6	47.0	2	0.565	0.000	L	26	67.3	71.451	73.845	74.410	74.413	0
2	22071402	23	High	1.5	Precise	1	35	26	25	64.0	67.3	25.4	26	35	25	67.3	64.0	25.4	2	0.510	0.000	L	26	67.3	74.915	75.948	76.458	76.460	0
2	22071402	24	High	1.5	Vague	2	36	33	7	47.0	82.1	11.2	7	36	33	11.2	47.0	82.1	1	0.782	0.000	D	36	47.0	76.963	79.628	80.410	80.412	0
2	22071402	25	High	1.5	Precise	1	36	30	28	47.0	52.0	33.1	36	30	28	47.0	52.0	33.1	1	0.626	0.001	L	36	47.0	80.915	81.544	82.170	82.172	0
2	22071402	26	High	1.5	Precise	1	36	30	20	47.0	52.0	1.7	36	30	20	47.0	52.0	1.7	1	0.481	0.000	L	36	47.0	82.675	83.833	84.314	84.316	0
2	22071402	27	High	1.5	Precise	1	36	33	28	47.0	82.1	33.1	28	36	33	33.1	47.0	82.1	1	0.783	0.000	D	36	47.0	84.819	85.419	86.202	86.204	0
2	22071402	28	High	1.5	Precise	1	35	34	28	64.0	89.7	33.1	28	35	34	33.1	64.0	89.7	2	0.549	0.000	R	34	89.7	86.707	87.261	87.810	87.812	0
2	22071402	29	High	1.5	Precise	1	30	33	20	52.0	82.1	1.7	33	30	20	82.1	52.0	1.7	2	0.650	0.000	L	33	82.1	88.315	90.944	91.594	91.596	0
2	22071402	30	High	1.5	Precise	1	36	30	23	47.0	52.0	2.7	36	30	23	47.0	52.0	2.7	1	0.540	0.000	L	36	47.0	92.099	94.222	94.762	94.764	0
2	22071402	31	High	1.5	Vague	2	36	34	2	47.0	89.7	2.6	36	34	2	47.0	89.7	2.6	1	0.514	0.000	L	36	47.0	95.267	97.536	98.050	98.052	0
2	22071402	32	High	1.5	Precise	1	35	33	24	64.0	82.1	22.4	35	33	24	64.0	82.1	22.4	2	0.952	0.000	D	33	82.1	98.555	101.378	102.330	102.332	0
2	22071402	33	High	1.5	Vague	2	30	26	1	52.0	67.3	7.1	30	1	26	52.0	7.1	67.3	2	0.817	0.001	R	26	67.3	102.835	104.129	104.946	104.949	0
2	22071402	34	High	1.5	Vague	2	30	26	2	52.0	67.3	2.6	2	30	26	2.6	52.0	67.3	2	0.616	0.000	R	26	67.3	105.451	106.393	107.010	107.012	0
2	22071402	35	High	1.5	Precise	1	36	26	23	47.0	67.3	2.7	23	36	26	2.7	47.0	67.3	2	0.828	0.001	R	26	67.3	107.515	108.142	108.970	108.973	0
2	22071402	36	High	1.5	Precise	1	35	34	24	64.0	89.7	22.4	35	24	34	64.0	22.4	89.7	2	0.439	0.001	R	34	89.7	109.475	112.051	112.490	112.492	0
2	22071402	37	High	1.5	Vague	2	36	26	2	47.0	67.3	2.6	2	26	36	2.6	67.3	47.0	2	0.930	0.000	D	26	67.3	112.995	115.016	115.946	115.948	0
2	22071402	38	High	1.5	Vague	2	26	34	7	67.3	89.7	11.2	34	7	26	89.7	11.2	67.3	2	0.601	0.001	L	34	89.7	116.450	118.273	118.874	118.877	0
2	22071402	39	High	1.5	Precise	1	36	35	28	47.0	64.0	33.1	28	36	35	33.1	47.0	64.0	1	0.577	0.001	D	36	47.0	119.379	122.001	122.578	122.580	0
2	22071402	40	High	1.5	Vague	2	33	34	5	82.1	89.7	40.7	34	5	33	89.7	40.7	82.1	2	0.488	0.000	L	34	89.7	123.083	125.705	126.194	126.196	0
2	22071402	41	High	1.5	Precise	1	36	35	31	47.0	64.0	18.7	36	35	31	47.0	64.0	18.7	1	0.481	0.000	L	36	47.0	126.699	127.656	128.138	128.140	0
2	22071402	42	High	1.5	Vague	2	36	33	18	47.0	82.1	43.2	18	33	36	43.2	82.1	47.0	1	0.538	0.001	R	36	47.0	128.643	131.336	131.874	131.876	0
2	22071402	43	High	1.5	Vague	2	30	26	5	52.0	67.3	40.7	26	30	5	67.3	52.0	40.7	2	0.550	0.001	L	26	67.3	132.379	135.324	135.874	135.876	0
2	22071402	44	High	1.5	Precise	1	36	34	24	47.0	89.7	22.4	24	36	34	22.4	47.0	89.7	2	0.455	0.000	R	34	89.7	136.379	137.324	137.778	137.780	0
2	22071402	45	High	1.5	Vague	2	36	35	7	47.0	64.0	11.2	7	36	35	11.2	47.0	64.0	1	0.548	0.000	D	36	47.0	138.283	140.862	141.410	141.412	0
2	22071402	46	High	1.5	Precise	1	30	26	23	52.0	67.3	2.7	23	26	30	2.7	67.3	52.0	2	0.545	0.000	D	26	67.3	141.915	144.257	144.802	144.804	0
2	22071402	47	High	1.5	Vague	2	35	33	7	64.0	82.1	11.2	33	35	7	82.1	64.0	11.2	3	0.692	0.000	R	7	11.2	145.307	147.622	148.314	148.316	0
2	22071402	48	High	1.5	Precise	1	35	26	31	64.0	67.3	18.7	35	31	26	64.0	18.7	67.3	2	0.513	0.000	R	26	67.3	148.819	151.368	151.882	151.884	0
2	22071402	49	High	1.5	Precise	1	33	34	31	82.1	89.7	18.7	33	31	34	82.1	18.7	89.7	2	0.504	0.000	R	34	89.7	152.386	155.106	155.610	155.612	0
2	22071402	50	High	1.5	Vague	2	35	34	5	64.0	89.7	40.7	34	35	5	89.7	64.0	40.7	2	0.468	0.000	L	34	89.7	156.115	158.446	158.914	158.916	0
2	22071402	51	High	1.5	Vague	2	36	33	9	47.0	82.1	21.6	36	9	33	47.0	21.6	82.1	1	0.758	0.000	L	36	47.0	159.419	160.092	160.850	160.852	0
2	22071402	52	High	1.5	Vague	2	35	34	18	64.0	89.7	43.2	18	35	34	43.2	64.0	89.7	2	0.475	0.000	R	34	89.7	161.354	163.815	164.290	164.292	0
2	22071402	53	High	1.5	Vague	2	30	34	18	52.0	89.7	43.2	18	34	30	43.2	89.7	52.0	2	0.572	0.000	D	34	89.7	164.795	166.862	167.434	167.436	0
2	22071402	54	High	1.5	Vague	2	33	34	9	82.1	89.7	21.6	33	9	34	82.1	21.6	89.7	2	0.436	0.000	R	34	89.7	167.939	170.342	170.778	170.780	0
2	22071402	55	High	1.5	Precise	1	36	34	23	47.0	89.7	2.7	34	23	36	89.7	2.7	47.0	2	0.448	0.000	L	34	89.7	171.283	173.482	173.930	173.932	0
2	22071402	56	High	1.5	Vague	2	26	33	18	67.3	82.1	43.2	18	33	26	43.2	82.1	67.3	1	0.562	0.000	R	26	67.3	174.435	175.920	176.482	176.484	0
2	22071402	57	High	1.5	Precise	1	36	26	20	47.0	67.3	1.7	26	36	20	67.3	47.0	1.7	2	0.499	0.000	L	26	67.3	176.987	178.159	178.658	178.660	0
2	22071402	58	High	1.5	Vague	2	26	33	7	67.3	82.1	11.2	7	33	26	11.2	82.1	67.3	1	0.404	0.000	R	26	67.3	179.163	181.318	181.722	181.724	0
2	22071402	59	High	1.5	Precise	1	26	33	31	67.3	82.1	18.7	31	26	33	18.7	67.3	82.1	1	0.706	0.000	D	26	67.3	182.227	183.223	183.930	183.932	0
2	22071402	60	High	1.5	Vague	2	36	34	5	47.0	89.7	40.7	34	5	36	89.7	40.7	47.0	2	0.461	0.001	L	34	89.7	184.435	185.749	186.210	186.212	0
2	22071402	61	High	1.5	Precise	1	30	34	31	52.0	89.7	18.7	34	31	30	89.7	18.7	52.0	2	0.662	0.001	L	34	89.7	205.074	206.924	207.586	207.588	0
2	22071402	62	High	1.5	Vague	2	26	33	1	67.3	82.1	7.1	1	33	26	7.1	82.1	67.3	1	0.662	0.000	R	26	67.3	208.092	210.124	210.786	210.788	0
2	22071402	63	High	1.5	Vague	2	26	33	5	67.3	82.1	40.7	5	33	26	40.7	82.1	67.3	1	0.506	0.000	R	26	67.3	211.291	213.624	214.130	214.132	0
2	22071402	64	High	1.5	Vague	2	30	26	7	52.0	67.3	11.2	30	7	26	52.0	11.2	67.3	2	0.485	0.000	R	26	67.3	214.635	217.533	218.018	218.020	0
2	22071402	65	High	1.5	Precise	1	33	34	20	82.1	89.7	1.7	33	20	34	82.1	1.7	89.7	2	0.413	0.000	R	34	89.7	218.523	221.445	221.858	221.860	0
2	22071402	66	High	1.5	Vague	2	36	26	1	47.0	67.3	7.1	26	36	1	67.3	47.0	7.1	2	0.664	0.000	L	26	67.3	222.363	222.881	223.546	223.548	0
2	22071402	67	High	1.5	Vague	2	30	33	9	52.0	82.1	21.6	9	30	33	21.6	52.0	82.1	3	0.779	0.000	L	9	21.6	224.051	225.375	226.154	226.156	0
2	22071402	68	High	1.5	Vague	2	36	26	5	47.0	67.3	40.7	26	36	5	67.3	47.0	40.7	2	0.584	0.000	L	26	67.3	226.659	227.369	227.954	227.956	0
2	22071402	69	High	1.5	Vague	2	26	33	9	67.3	82.1	21.6	26	9	33	67.3	21.6	82.1	1	0.419	0.001	L	26	67.3	228.459	231.231	231.650	231.652	0
2	22071402	70	High	1.5	Precise	1	36	30	31	47.0	52.0	18.7	36	31	30	47.0	18.7	52.0	1	0.476	0.001	L	36	47.0	232.155	235.062	235.538	235.540	0
2	22071402	71	High	1.5	Vague	2	26	34	18	67.3	89.7	43.2	18	34	26	43.2	89.7	67.3	2	0.576	0.000	D	34	89.7	236.043	238.473	239.050	239.052	0
2	22071402	72	High	1.5	Precise	1	36	30	24	47.0	52.0	22.4	36	24	30	47.0	22.4	52.0	1	0.474	0.000	L	36	47.0	239.554	240.968	241.442	241.444	0
2	22071402	73	High	1.5	Vague	2	26	34	5	67.3	89.7	40.7	34	5	26	89.7	40.7	67.3	2	0.455	0.000	L	34	89.7	241.947	244.371	244.826	244.828	0
2	22071402	74	High	1.5	Vague	2	35	26	18	64.0	67.3	43.2	18	35	26	43.2	64.0	67.3	2	0.487	0.001	R	26	67.3	245.331	247.267	247.754	247.756	0
2	22071402	75	High	1.5	Precise	1	35	26	20	64.0	67.3	1.7	20	26	35	1.7	67.3	64.0	2	0.654	0.001	D	26	67.3	248.259	251.148	251.802	251.805	0
2	22071402	76	High	1.5	Vague	2	36	30	9	47.0	52.0	21.6	36	9	30	47.0	21.6	52.0	1	0.471	0.000	L	36	47.0	252.307	254.171	254.642	254.644	0
2	22071402	77	High	1.5	Vague	2	35	34	1	64.0	89.7	7.1	1	34	35	7.1	89.7	64.0	2	0.514	0.000	D	34	89.7	255.147	255.784	256.298	256.300	0
2	22071402	78	High	1.5	Precise	1	30	35	25	52.0	64.0	25.4	30	25	35	52.0	25.4	64.0	1	0.441	0.000	L	30	52.0	256.803	258.657	259.098	259.100	0
2	22071402	79	High	1.5	Precise	1	36	35	23	47.0	64.0	2.7	35	23	36	64.0	2.7	47.0	1	0.655	0.001	R	36	47.0	259.602	262.043	262.698	262.700	0
2	22071402	80	High	1.5	Precise	1	26	34	25	67.3	89.7	25.4	34	26	25	89.7	67.3	25.4	2	0.451	0.000	L	34	89.7	263.203	264.775	265.226	265.228	0
2	22071402	81	High	1.5	Precise	1	26	34	23	67.3	89.7	2.7	23	34	26	2.7	89.7	67.3	2	0.531	0.001	D	34	89.7	265.731	267.751	268.282	268.284	0
2	22071402	82	High	1.5	Precise	1	36	34	28	47.0	89.7	33.1	28	34	36	33.1	89.7	47.0	2	0.524	0.000	D	34	89.7	268.788	271.398	271.922	271.924	0
2	22071402	83	High	1.5	Vague	2	35	34	9	64.0	89.7	21.6	34	35	9	89.7	64.0	21.6	2	0.518	0.001	L	34	89.7	272.427	274.900	275.418	275.420	0
2	22071402	84	High	1.5	Vague	2	26	33	2	67.3	82.1	2.6	2	26	33	2.6	67.3	82.1	3	1.126	0.000	L	2	2.6	275.923	276.419	277.546	277.548	0
2	22071402	85	High	1.5	Precise	1	36	30	25	47.0	52.0	25.4	36	30	25	47.0	52.0	25.4	1	0.552	0.000	L	36	47.0	278.050	278.658	279.210	279.212	0
2	22071402	86	High	1.5	Vague	2	30	33	2	52.0	82.1	2.6	2	33	30	2.6	82.1	52.0	3	0.576	0.001	L	2	2.6	279.715	282.681	283.258	283.260	0
2	22071402	87	High	1.5	Vague	2	36	33	5	47.0	82.1	40.7	33	36	5	82.1	47.0	40.7	1	0.677	0.001	D	36	47.0	283.763	285.397	286.074	286.077	0
2	22071402	88	High	1.5	Precise	1	30	26	20	52.0	67.3	1.7	20	26	30	1.7	67.3	52.0	2	0.631	0.001	D	26	67.3	286.579	287.419	288.050	288.052	0
2	22071402	89	High	1.5	Vague	2	26	34	2	67.3	89.7	2.6	34	26	2	89.7	67.3	2.6	2	0.464	0.001	L	34	89.7	288.555	290.282	290.746	290.749	0
2	22071402	90	High	1.5	Precise	1	30	35	23	52.0	64.0	2.7	35	30	23	64.0	52.0	2.7	1	0.656	0.001	D	30	52.0	291.251	292.666	293.322	293.324	0
2	22071402	91	High	1.5	Vague	2	30	35	9	52.0	64.0	21.6	35	30	9	64.0	52.0	21.6	1	0.846	0.000	D	30	52.0	293.827	294.388	295.234	295.236	0
2	22071402	92	High	1.5	Vague	2	30	35	2	52.0	64.0	2.6	2	35	30	2.6	64.0	52.0	3	0.492	0.000	L	2	2.6	295.739	297.758	298.250	298.252	0
2	22071402	93	High	1.5	Precise	1	36	33	23	47.0	82.1	2.7	36	23	33	47.0	2.7	82.1	1	0.515	0.000	L	36	47.0	298.755	300.863	301.378	301.380	0
2	22071402	94	High	1.5	Precise	1	35	26	28	64.0	67.3	33.1	26	35	28	67.3	64.0	33.1	2	0.428	0.000	L	26	67.3	301.883	303.517	303.946	303.948	0
2	22071402	95	High	1.5	Precise	1	30	26	24	52.0	67.3	22.4	30	26	24	52.0	67.3	22.4	2	0.556	0.001	D	26	67.3	304.451	306.414	306.970	306.972	0
2	22071402	96	High	1.5	Vague	2	36	34	1	47.0	89.7	7.1	34	1	36	89.7	7.1	47.0	2	0.522	0.000	L	34	89.7	307.475	308.799	309.322	309.324	0
2	22071402	97	High	1.5	Vague	2	30	35	1	52.0	64.0	7.1	30	1	35	52.0	7.1	64.0	3	0.894	0.001	D	1	7.1	309.826	310.724	311.618	311.620	0
2	22071402	98	High	1.5	Vague	2	35	26	1	64.0	67.3	7.1	26	35	1	67.3	64.0	7.1	2	0.532	0.000	L	26	67.3	312.123	314.877	315.409	315.412	0
2	22071402	99	High	1.5	Precise	1	36	35	25	47.0	64.0	25.4	25	35	36	25.4	64.0	47.0	1	0.779	0.000	R	36	47.0	315.914	317.031	317.810	317.812	0
2	22071402	100	High	1.5	Vague	2	30	33	18	52.0	82.1	43.2	30	33	18	52.0	82.1	43.2	2	0.762	0.001	D	33	82.1	318.315	319.776	320.538	320.540	0
2	22071402	101	High	1.5	Precise	1	35	34	20	64.0	89.7	1.7	20	35	34	1.7	64.0	89.7	2	0.511	0.000	R	34	89.7	321.043	322.995	323.505	323.508	0
2	22071402	102	High	1.5	Vague	2	36	34	9	47.0	89.7	21.6	9	34	36	21.6	89.7	47.0	3	0.699	0.000	L	9	21.6	324.011	326.855	327.554	327.556	0
2	22071402	103	High	1.5	Precise	1	36	34	25	47.0	89.7	25.4	36	25	34	47.0	25.4	89.7	2	0.535	0.001	R	34	89.7	328.058	328.731	329.266	329.268	0
2	22071402	104	High	1.5	Precise	1	36	33	25	47.0	82.1	25.4	33	25	36	82.1	25.4	47.0	3	0.643	0.000	D	25	25.4	329.771	332.303	332.946	332.948	0
2	22071402	105	High	1.5	Vague	2	30	35	7	52.0	64.0	11.2	35	7	30	64.0	11.2	52.0	3	0.704	0.001	D	7	11.2	333.450	334.010	334.714	334.716	0
2	22071402	106	High	1.5	Precise	1	33	34	23	82.1	89.7	2.7	34	33	23	89.7	82.1	2.7	2	0.432	0.001	L	34	89.7	335.219	337.122	337.554	337.556	0
2	22071402	107	High	1.5	Precise	1	30	34	25	52.0	89.7	25.4	25	34	30	25.4	89.7	52.0	2	0.548	0.000	D	34	89.7	338.059	338.974	339.522	339.524	0
2	22071402	108	High	1.5	Vague	2	35	26	2	64.0	67.3	2.6	26	2	35	67.3	2.6	64.0	2	0.738	0.000	L	26	67.3	340.027	341.311	342.050	342.052	0
2	22071402	109	High	1.5	Precise	1	35	33	31	64.0	82.1	18.7	35	33	31	64.0	82.1	18.7	3	0.580	0.001	R	31	18.7	342.555	344.110	344.690	344.692	0
2	22071402	110	High	1.5	Vague	2	36	30	5	47.0	52.0	40.7	5	30	36	40.7	52.0	47.0	1	0.430	0.000	R	36	47.0	345.195	346.156	346.586	346.588	0
2	22071402	111	High	1.5	Vague	2	36	33	2	47.0	82.1	2.6	36	33	2	47.0	82.1	2.6	1	0.522	0.001	L	36	47.0	347.091	348.096	348.618	348.620	0
2	22071402	112	High	1.5	Precise	1	30	35	20	52.0	64.0	1.7	30	35	20	52.0	64.0	1.7	2	0.717	0.001	D	35	64.0	349.122	349.989	350.706	350.709	0
2	22071402	113	High	1.5	Vague	2	30	35	5	52.0	64.0	40.7	30	35	5	52.0	64.0	40.7	2	0.637	0.000	D	35	64.0	351.211	354.149	354.786	354.788	0
2	22071402	114	High	1.5	Vague	2	35	33	18	64.0	82.1	43.2	35	33	18	64.0	82.1	43.2	1	0.782	0.001	L	35	64.0	355.291	355.884	356.666	356.668	0
2	22071402	115	High	1.5	Precise	1	30	35	24	52.0	64.0	22.4	35	24	30	64.0	22.4	52.0	3	0.665	0.000	D	24	22.4	357.171	360.064	360.730	360.732	0
2	22071402	116	High	1.5	Vague	2	30	34	1	52.0	89.7	7.1	34	1	30	89.7	7.1	52.0	2	0.557	0.001	L	34	89.7	361.235	362.157	362.714	362.717	0
2	22071402	117	High	1.5	Precise	1	36	35	24	47.0	64.0	22.4	35	24	36	64.0	22.4	47.0	1	0.636	0.000	R	36	47.0	363.220	365.070	365.706	365.708	0
2	22071402	118	High	1.5	Precise	1	36	33	20	47.0	82.1	1.7	33	36	20	82.1	47.0	1.7	1	0.563	0.000	D	36	47.0	366.210	368.727	369.290	369.292	0
2	22071402	119	High	1.5	Vague	2	35	26	9	64.0	67.3	21.6	26	35	9	67.3	64.0	21.6	2	0.535	0.000	L	26	67.3	369.795	371.827	372.361	372.364	0
2	22071402	120	High	1.5	Precise	1	30	35	31	52.0	64.0	18.7	35	30	31	64.0	52.0	18.7	1	0.587	0.000	D	30	52.0	372.866	375.086	375.674	375.676	0
2	22071402	121	High	1.5	Precise	1	35	26	24	64.0	67.3	22.4	24	35	26	22.4	64.0	67.3	2	0.520	0.001	R	26	67.3	381.803	383.994	384.514	384.517	0
2	22071402	122	High	1.5	Precise	1	26	33	28	67.3	82.1	33.1	28	26	33	33.1	67.3	82.1	1	0.686	0.000	D	26	67.3	385.019	387.467	388.154	388.157	0
2	22071402	123	High	1.5	Vague	2	35	34	7	64.0	89.7	11.2	34	7	35	89.7	11.2	64.0	2	0.442	0.000	L	34	89.7	388.659	391.023	391.466	391.468	0
2	22071402	124	High	1.5	Vague	2	36	35	9	47.0	64.0	21.6	9	35	36	21.6	64.0	47.0	1	0.582	0.001	R	36	47.0	391.971	392.604	393.186	393.188	0
2	22071402	125	High	1.5	Precise	1	30	33	24	52.0	82.1	22.4	30	33	24	52.0	82.1	22.4	1	0.646	0.001	L	30	52.0	393.691	394.652	395.298	395.300	0
2	22071402	126	High	1.5	Precise	1	26	33	23	67.3	82.1	2.7	23	26	33	2.7	67.3	82.1	1	0.668	0.000	D	26	67.3	395.803	398.150	398.818	398.820	0
2	22071402	127	High	1.5	Vague	2	33	34	18	82.1	89.7	43.2	34	33	18	89.7	82.1	43.2	2	0.552	0.000	L	34	89.7	399.323	401.354	401.906	401.908	0
2	22071402	128	High	1.5	Precise	1	33	34	25	82.1	89.7	25.4	34	33	25	89.7	82.1	25.4	2	0.406	0.000	L	34	89.7	402.411	405.147	405.553	405.556	0
2	22071402	129	High	1.5	Precise	1	26	34	24	67.3	89.7	22.4	24	26	34	22.4	67.3	89.7	2	0.488	0.001	R	34	89.7	406.058	406.754	407.242	407.244	0
2	22071402	130	High	1.5	Vague	2	33	34	7	82.1	89.7	11.2	7	34	33	11.2	89.7	82.1	2	0.508	0.001	D	34	89.7	407.747	409.846	410.354	410.356	0
2	22071402	131	High	1.5	Precise	1	36	26	25	47.0	67.3	25.4	36	26	25	47.0	67.3	25.4	1	0.606	0.000	L	36	47.0	410.859	411.476	412.082	412.084	0
2	22071402	132	High	1.5	Vague	2	35	33	1	64.0	82.1	7.1	1	33	35	7.1	82.1	64.0	2	0.646	0.001	D	33	82.1	412.586	415.388	416.034	416.036	0
2	22071402	133	High	1.5	Precise	1	30	35	28	52.0	64.0	33.1	28	30	35	33.1	52.0	64.0	1	0.580	0.001	D	30	52.0	416.539	417.558	418.138	418.140	0
2	22071402	134	High	1.5	Vague	2	30	34	2	52.0	89.7	2.6	2	34	30	2.6	89.7	52.0	2	0.552	0.000	D	34	89.7	418.643	420.202	420.754	420.756	0
2	22071402	135	High	1.5	Precise	1	30	33	25	52.0	82.1	25.4	33	25	30	82.1	25.4	52.0	1	0.635	0.000	R	30	52.0	421.258	422.735	423.370	423.372	0
2	22071402	136	High	1.5	Precise	1	30	26	25	52.0	67.3	25.4	26	30	25	67.3	52.0	25.4	2	0.602	0.000	L	26	67.3	423.875	426.720	427.322	427.324	0
2	22071402	137	High	1.5	Precise	1	35	26	23	64.0	67.3	2.7	23	35	26	2.7	64.0	67.3	1	0.653	0.000	D	35	64.0	427.827	428.605	429.258	429.260	0
2	22071402	138	High	1.5	Vague	2	30	33	7	52.0	82.1	11.2	30	33	7	52.0	82.1	11.2	3	0.577	0.000	R	7	11.2	429.763	431.864	432.442	432.444	0
2	22071402	139	High	1.5	Vague	2	30	26	18	52.0	67.3	43.2	18	26	30	43.2	67.3	52.0	2	0.755	0.000	D	26	67.3	432.947	434.366	435.122	435.124	0
2	22071402	140	High	1.5	Vague	2	26	34	1	67.3	89.7	7.1	1	26	34	7.1	67.3	89.7	2	0.580	0.000	R	34	89.7	435.627	437.437	438.018	438.020	0
2	22071402	141	High	1.5	Precise	1	36	26	31	47.0	67.3	18.7	26	31	36	67.3	18.7	47.0	2	0.611	0.000	L	26	67.3	438.522	439.167	439.778	439.780	0
2	22071402	142	High	1.5	Vague	2	33	34	2	82.1	89.7	2.6	34	33	2	89.7	82.1	2.6	2	0.452	0.000	L	34	89.7	440.283	442.582	443.034	443.036	0
2	22071402	143	High	1.5	Precise	1	35	33	25	64.0	82.1	25.4	25	35	33	25.4	64.0	82.1	1	0.843	0.001	D	35	64.0	443.538	445.439	446.282	446.284	0
2	22071402	144	High	1.5	Vague	2	35	26	7	64.0	67.3	11.2	35	26	7	64.0	67.3	11.2	2	0.731	0.001	D	26	67.3	446.787	449.551	450.282	450.284	0
2	22071402	145	High	1.5	Precise	1	26	34	28	67.3	89.7	33.1	34	26	28	89.7	67.3	33.1	2	0.613	0.000	L	34	89.7	450.787	453.620	454.233	454.236	0
2	22071402	146	High	1.5	Vague	2	36	30	2	47.0	52.0	2.6	2	30	36	2.6	52.0	47.0	2	0.796	0.001	D	30	52.0	454.738	457.334	458.130	458.132	0
2	22071402	147	High	1.5	Vague	2	30	26	9	52.0	67.3	21.6	26	9	30	67.3	21.6	52.0	2	0.586	0.001	L	26	67.3	458.635	460.472	461.058	461.060	0
2	22071402	148	High	1.5	Precise	1	30	34	23	52.0	89.7	2.7	34	30	23	89.7	52.0	2.7	2	0.571	0.000	L	34	89.7	461.564	462.071	462.642	462.644	0
2	22071402	149	High	1.5	Precise	1	26	33	24	67.3	82.1	22.4	24	26	33	22.4	67.3	82.1	3	0.557	0.001	L	24	22.4	463.147	464.324	464.882	464.884	0
2	22071402	150	High	1.5	Precise	1	26	34	31	67.3	89.7	18.7	26	34	31	67.3	89.7	18.7	2	0.523	0.000	D	34	89.7	465.387	466.023	466.546	466.548	0
2	22071402	151	High	1.5	Vague	2	36	34	18	47.0	89.7	43.2	34	36	18	89.7	47.0	43.2	2	0.464	0.001	L	34	89.7	467.051	468.250	468.714	468.716	0
2	22071402	152	High	1.5	Vague	2	36	35	2	47.0	64.0	2.6	2	35	36	2.6	64.0	47.0	2	0.767	0.000	D	35	64.0	469.219	470.867	471.634	471.636	0
2	22071402	153	High	1.5	Vague	2	36	30	18	47.0	52.0	43.2	30	36	18	52.0	47.0	43.2	1	0.589	0.001	D	36	47.0	472.139	473.029	473.618	473.620	0
2	22071402	154	High	1.5	Vague	2	36	35	18	47.0	64.0	43.2	35	18	36	64.0	43.2	47.0	1	0.744	0.001	R	36	47.0	474.123	474.666	475.410	475.412	0
2	22071402	155	High	1.5	Precise	1	35	33	20	64.0	82.1	1.7	33	20	35	82.1	1.7	64.0	3	0.759	0.000	D	20	1.7	475.915	477.331	478.089	478.092	0
2	22071402	156	High	1.5	Precise	1	33	34	24	82.1	89.7	22.4	24	33	34	22.4	82.1	89.7	2	0.577	0.000	R	34	89.7	478.595	480.977	481.553	481.556	0
2	22071402	157	High	1.5	Precise	1	30	34	20	52.0	89.7	1.7	34	30	20	89.7	52.0	1.7	2	0.668	0.000	L	34	89.7	482.058	482.597	483.265	483.268	0
2	22071402	158	High	1.5	Vague	2	36	30	1	47.0	52.0	7.1	1	30	36	7.1	52.0	47.0	1	0.599	0.000	R	36	47.0	483.770	486.483	487.082	487.084	0
2	22071402	159	High	1.5	Precise	1	26	33	20	67.3	82.1	1.7	26	33	20	67.3	82.1	1.7	1	0.529	0.000	L	26	67.3	487.587	489.304	489.833	489.836	0
2	22071402	160	High	1.5	Precise	1	30	33	23	52.0	82.1	2.7	23	30	33	2.7	52.0	82.1	1	0.686	0.000	D	30	52.0	490.338	493.075	493.762	493.764	0
2	22071402	161	High	1.5	Vague	2	35	26	5	64.0	67.3	40.7	35	5	26	64.0	40.7	67.3	2	0.670	0.000	R	26	67.3	494.267	494.867	495.537	495.540	0
2	22071402	162	High	1.5	Vague	2	36	26	7	47.0	67.3	11.2	7	26	36	11.2	67.3	47.0	1	0.715	0.000	R	36	47.0	496.043	498.886	499.602	499.604	0
2	22071402	163	High	1.5	Precise	1	30	34	24	52.0	89.7	22.4	34	30	24	89.7	52.0	22.4	2	0.488	0.000	L	34	89.7	500.106	503.057	503.546	503.548	0
2	22071402	164	High	1.5	Vague	2	30	33	5	52.0	82.1	40.7	30	33	5	52.0	82.1	40.7	3	0.499	0.000	R	5	40.7	504.051	505.566	506.065	506.068	0
2	22071402	165	High	1.5	Precise	1	30	26	31	52.0	67.3	18.7	26	31	30	67.3	18.7	52.0	2	0.443	0.000	L	26	67.3	506.572	507.911	508.354	508.356	0
2	22071402	166	High	1.5	Vague	2	36	35	1	47.0	64.0	7.1	1	35	36	7.1	64.0	47.0	1	0.526	0.000	R	36	47.0	508.859	510.619	511.145	511.148	0
2	22071402	167	High	1.5	Vague	2	36	30	7	47.0	52.0	11.2	7	36	30	11.2	47.0	52.0	1	0.757	0.000	D	36	47.0	511.650	514.621	515.378	515.380	0
2	22071402	168	High	1.5	Vague	2	35	33	5	64.0	82.1	40.7	35	33	5	64.0	82.1	40.7	3	0.754	0.000	R	5	40.7	515.882	517.632	518.386	518.388	0
2	22071402	169	High	1.5	Vague	2	35	33	9	64.0	82.1	21.6	33	35	9	82.1	64.0	21.6	3	0.509	0.001	R	9	21.6	518.891	520.516	521.026	521.028	0
2	22071402	170	High	1.5	Precise	1	35	34	23	64.0	89.7	2.7	23	34	35	2.7	89.7	64.0	2	0.476	0.001	D	34	89.7	521.531	523.342	523.818	523.820	0
2	22071402	171	High	1.5	Precise	1	30	33	31	52.0	82.1	18.7	30	31	33	52.0	18.7	82.1	3	0.614	0.000	D	31	18.7	524.323	525.644	526.258	526.260	0
2	22071402	172	High	1.5	Precise	1	30	34	28	52.0	89.7	33.1	28	34	30	33.1	89.7	52.0	2	0.498	0.000	D	34	89.7	526.763	528.120	528.618	528.620	0
2	22071402	173	High	1.5	Precise	1	35	33	23	64.0	82.1	2.7	35	23	33	64.0	2.7	82.1	2	0.668	0.001	R	33	82.1	529.123	530.133	530.802	530.804	0
2	22071402	174	High	1.5	Precise	1	36	34	31	47.0	89.7	18.7	31	34	36	18.7	89.7	47.0	2	0.450	0.000	D	34	89.7	531.307	534.023	534.474	534.476	0
2	22071402	175	High	1.5	Precise	1	35	34	31	64.0	89.7	18.7	31	35	34	18.7	64.0	89.7	2	0.566	0.001	R	34	89.7	534.978	537.452	538.018	538.020	0
2	22071402	176	High	1.5	Precise	1	36	26	28	47.0	67.3	33.1	26	36	28	67.3	47.0	33.1	1	0.598	0.000	D	36	47.0	538.523	541.060	541.657	541.660	0
2	22071402	177	High	1.5	Precise	1	36	34	20	47.0	89.7	1.7	36	34	20	47.0	89.7	1.7	3	0.488	0.000	R	20	1.7	542.163	543.866	544.354	544.356	0
2	22071402	178	High	1.5	Precise	1	30	26	28	52.0	67.3	33.1	26	30	28	67.3	52.0	33.1	2	0.687	0.000	L	26	67.3	544.859	546.458	547.145	547.148	0
2	22071402	179	High	1.5	Vague	2	33	34	1	82.1	89.7	7.1	1	34	33	7.1	89.7	82.1	2	0.455	0.001	D	34	89.7	547.651	548.995	549.450	549.452	0
2	22071402	180	High	1.5	Precise	1	30	33	28	52.0	82.1	33.1	30	33	28	52.0	82.1	33.1	3	0.766	0.001	R	28	33.1	549.955	552.772	553.538	553.540	0
2	22071402	181	Low	10.0	Vague	2	35	33	14	64.0	82.1	18.0	14	33	35	18.0	82.1	64.0	3	1.028	0.001	L	14	18.0	562.790	564.278	565.306	565.308	0
2	22071402	182	Low	10.0	Vague	2	26	33	11	67.3	82.1	23.9	33	11	26	82.1	23.9	67.3	1	0.652	0.000	R	26	67.3	565.811	567.853	568.506	568.508	0
2	22071402	183	Low	10.0	Precise	1	36	33	22	47.0	82.1	20.9	33	36	22	82.1	47.0	20.9	1	1.519	0.001	D	36	47.0	569.010	571.483	573.002	573.005	0
2	22071402	184	Low	10.0	Precise	1	26	33	22	67.3	82.1	20.9	26	33	22	67.3	82.1	20.9	1	0.730	0.000	L	26	67.3	573.507	575.160	575.890	575.892	0
2	22071402	185	Low	10.0	Precise	1	30	34	27	52.0	89.7	30.1	30	27	34	52.0	30.1	89.7	2	1.199	0.000	R	34	89.7	576.395	577.939	579.137	579.140	0
2	22071402	186	Low	10.0	Vague	2	36	35	11	47.0	64.0	23.9	11	35	36	23.9	64.0	47.0	1	1.499	0.000	R	36	47.0	579.643	582.278	583.778	583.780	0
2	22071402	187	Low	10.0	Vague	2	36	30	14	47.0	52.0	18.0	14	36	30	18.0	47.0	52.0	3	0.609	0.001	L	14	18.0	584.282	586.521	587.130	587.132	0
2	22071402	188	Low	10.0	Precise	1	35	26	32	64.0	67.3	22.5	32	35	26	22.5	64.0	67.3	2	1.216	0.000	R	26	67.3	587.635	589.481	590.697	590.700	0
2	22071402	189	Low	10.0	Vague	2	30	33	14	52.0	82.1	18.0	33	14	30	82.1	18.0	52.0	2	1.399	0.000	L	33	82.1	591.202	593.147	594.546	594.548	0
2	22071402	190	Low	10.0	Precise	1	30	35	22	52.0	64.0	20.9	30	35	22	52.0	64.0	20.9	3	0.517	0.000	R	22	20.9	595.051	596.956	597.474	597.476	0
2	22071402	191	Low	10.0	Vague	2	33	34	6	82.1	89.7	3.0	6	34	33	3.0	89.7	82.1	2	0.735	0.001	D	34	89.7	597.978	598.706	599.442	599.444	0
2	22071402	192	Low	10.0	Precise	1	35	26	19	64.0	67.3	2.8	19	35	26	2.8	64.0	67.3	2	0.596	0.000	R	26	67.3	599.947	600.829	601.425	601.428	0
2	22071402	193	Low	10.0	Vague	2	30	34	14	52.0	89.7	18.0	30	14	34	52.0	18.0	89.7	2	0.498	0.000	R	34	89.7	601.930	603.727	604.225	604.228	0
2	22071402	194	Low	10.0	Precise	1	26	33	29	67.3	82.1	35.9	29	26	33	35.9	67.3	82.1	1	0.733	0.001	D	26	67.3	604.730	607.460	608.194	608.196	0
2	22071402	195	Low	10.0	Precise	1	35	34	32	64.0	89.7	22.5	32	35	34	22.5	64.0	89.7	2	0.963	0.000	R	34	89.7	608.699	609.198	610.162	610.164	0
2	22071402	196	Low	10.0	Precise	1	33	34	27	82.1	89.7	30.1	27	33	34	30.1	82.1	89.7	2	0.640	0.000	R	34	89.7	610.667	613.298	613.937	613.940	0
2	22071402	197	Low	10.0	Precise	1	36	33	29	47.0	82.1	35.9	33	36	29	82.1	47.0	35.9	1	0.607	0.001	D	36	47.0	614.442	616.162	616.770	616.772	0
2	22071402	198	Low	10.0	Vague	2	35	33	3	64.0	82.1	8.1	3	33	35	8.1	82.1	64.0	1	2.253	0.001	R	35	64.0	617.275	618.132	620.386	620.388	0
2	22071402	199	Low	10.0	Vague	2	36	33	8	47.0	82.1	43.8	33	8	36	82.1	43.8	47.0	3	1.762	0.001	D	8	43.8	620.890	622.264	624.026	624.028	0
2	22071402	200	Low	10.0	Precise	1	35	33	27	64.0	82.1	30.1	35	27	33	64.0	30.1	82.1	3	1.131	0.001	D	27	30.1	624.531	626.927	628.058	628.060	0
2	22071402	201	Low	10.0	Precise	1	35	34	29	64.0	89.7	35.9	35	34	29	64.0	89.7	35.9	2	1.336	0.001	D	34	89.7	628.563	630.818	632.154	632.156	0
2	22071402	202	Low	10.0	Precise	1	36	30	19	47.0	52.0	2.8	30	36	19	52.0	47.0	2.8	1	1.319	0.000	D	36	47.0	632.659	633.611	634.930	634.932	0
2	22071402	203	Low	10.0	Vague	2	36	33	3	47.0	82.1	8.1	36	3	33	47.0	8.1	82.1	1	0.658	0.001	L	36	47.0	635.435	637.096	637.754	637.756	0
2	22071402	204	Low	10.0	Vague	2	33	34	11	82.1	89.7	23.9	34	33	11	89.7	82.1	23.9	2	0.501	0.000	L	34	89.7	638.258	640.420	640.921	640.924	0
2	22071402	205	Low	10.0	Vague	2	33	34	14	82.1	89.7	18.0	33	34	14	82.1	89.7	18.0	2	0.546	0.000	D	34	89.7	641.427	643.096	643.641	643.644	0
2	22071402	206	Low	10.0	Precise	1	26	34	22	67.3	89.7	20.9	26	22	34	67.3	20.9	89.7	2	0.636	0.000	R	34	89.7	644.146	645.861	646.498	646.500	0
2	22071402	207	Low	10.0	Vague	2	30	33	4	52.0	82.1	42.6	33	4	30	82.1	42.6	52.0	3	1.094	0.000	D	4	42.6	647.003	648.684	649.777	649.780	0
2	22071402	208	Low	10.0	Precise	1	30	34	19	52.0	89.7	2.8	19	30	34	2.8	52.0	89.7	2	0.573	0.000	R	34	89.7	650.282	652.260	652.833	652.836	0
2	22071402	209	Low	10.0	Vague	2	26	33	6	67.3	82.1	3.0	6	26	33	3.0	67.3	82.1	3	0.626	0.000	L	6	3.0	653.339	656.015	656.641	656.644	0
2	22071402	210	Low	10.0	Vague	2	26	34	3	67.3	89.7	8.1	26	3	34	67.3	8.1	89.7	2	0.575	0.000	R	34	89.7	657.146	659.266	659.842	659.844	0
2	22071402	211	Low	10.0	Vague	2	30	35	11	52.0	64.0	23.9	35	30	11	64.0	52.0	23.9	1	1.028	0.000	D	30	52.0	660.347	660.934	661.962	661.964	0
2	22071402	212	Low	10.0	Precise	1	36	33	27	47.0	82.1	30.1	33	36	27	82.1	47.0	30.1	1	1.750	0.000	D	36	47.0	662.466	663.379	665.129	665.132	0
2	22071402	213	Low	10.0	Vague	2	30	26	3	52.0	67.3	8.1	3	26	30	8.1	67.3	52.0	2	0.868	0.000	D	26	67.3	665.634	668.230	669.098	669.100	0
2	22071402	214	Low	10.0	Precise	1	36	30	22	47.0	52.0	20.9	30	22	36	52.0	20.9	47.0	3	0.869	0.001	D	22	20.9	669.602	671.748	672.618	672.621	0
2	22071402	215	Low	10.0	Vague	2	35	34	6	64.0	89.7	3.0	6	34	35	3.0	89.7	64.0	2	0.547	0.000	D	34	89.7	673.123	675.798	676.346	676.348	0
2	22071402	216	Low	10.0	Vague	2	36	35	3	47.0	64.0	8.1	35	3	36	64.0	8.1	47.0	1	0.581	0.000	R	36	47.0	676.851	678.100	678.681	678.684	0
2	22071402	217	Low	10.0	Precise	1	36	34	32	47.0	89.7	22.5	34	32	36	89.7	22.5	47.0	2	0.514	0.000	L	34	89.7	679.186	681.767	682.282	682.284	0
2	22071402	218	Low	10.0	Precise	1	36	34	19	47.0	89.7	2.8	36	34	19	47.0	89.7	2.8	2	0.530	0.000	D	34	89.7	682.786	684.344	684.874	684.876	0
2	22071402	219	Low	10.0	Vague	2	36	33	6	47.0	82.1	3.0	6	36	33	3.0	47.0	82.1	1	1.149	0.000	D	36	47.0	685.378	686.445	687.593	687.596	0
2	22071402	220	Low	10.0	Precise	1	30	35	29	52.0	64.0	35.9	29	35	30	35.9	64.0	52.0	3	1.145	0.000	L	29	35.9	688.099	690.921	692.065	692.068	0
2	22071402	221	Low	10.0	Vague	2	33	34	8	82.1	89.7	43.8	8	34	33	43.8	89.7	82.1	2	1.490	0.001	D	34	89.7	692.571	693.199	694.690	694.692	0
2	22071402	222	Low	10.0	Precise	1	26	33	21	67.3	82.1	2.1	33	26	21	82.1	67.3	2.1	1	0.670	0.001	D	26	67.3	695.195	697.916	698.586	698.588	0
2	22071402	223	Low	10.0	Vague	2	30	34	4	52.0	89.7	42.6	34	30	4	89.7	52.0	42.6	2	0.569	0.000	L	34	89.7	699.091	700.161	700.730	700.732	0
2	22071402	224	Low	10.0	Precise	1	35	26	27	64.0	67.3	30.1	26	27	35	67.3	30.1	64.0	2	0.520	0.000	L	26	67.3	701.235	703.625	704.146	704.148	0
2	22071402	225	Low	10.0	Vague	2	36	26	14	47.0	67.3	18.0	36	14	26	47.0	18.0	67.3	2	1.945	0.000	R	26	67.3	704.651	706.416	708.361	708.364	0
2	22071402	226	Low	10.0	Vague	2	26	33	14	67.3	82.1	18.0	26	33	14	67.3	82.1	18.0	1	0.657	0.000	L	26	67.3	708.866	709.800	710.457	710.460	0
2	22071402	227	Low	10.0	Precise	1	35	34	22	64.0	89.7	20.9	22	34	35	20.9	89.7	64.0	2	0.665	0.001	D	34	89.7	710.962	713.641	714.306	714.308	0
2	22071402	228	Low	10.0	Vague	2	35	26	14	64.0	67.3	18.0	35	26	14	64.0	67.3	18.0	2	0.716	0.000	D	26	67.3	714.810	716.861	717.578	717.580	0
2	22071402	229	Low	10.0	Precise	1	30	34	29	52.0	89.7	35.9	30	29	34	52.0	35.9	89.7	2	0.557	0.000	R	34	89.7	718.082	719.453	720.009	720.012	0
2	22071402	230	Low	10.0	Vague	2	33	34	4	82.1	89.7	42.6	34	33	4	89.7	82.1	42.6	2	0.562	0.001	L	34	89.7	720.515	721.311	721.874	721.877	0
2	22071402	231	Low	10.0	Precise	1	33	34	29	82.1	89.7	35.9	29	33	34	35.9	82.1	89.7	2	0.542	0.000	R	34	89.7	722.379	723.715	724.257	724.260	0
2	22071402	232	Low	10.0	Precise	1	30	26	21	52.0	67.3	2.1	21	30	26	2.1	52.0	67.3	2	0.600	0.000	R	26	67.3	724.763	726.282	726.882	726.884	0
2	22071402	233	Low	10.0	Precise	1	36	26	22	47.0	67.3	20.9	36	22	26	47.0	20.9	67.3	2	0.559	0.000	R	26	67.3	727.386	729.515	730.073	730.076	0
2	22071402	234	Low	10.0	Vague	2	26	33	4	67.3	82.1	42.6	4	33	26	42.6	82.1	67.3	3	0.649	0.001	L	4	42.6	730.578	731.345	731.994	731.996	0
2	22071402	235	Low	10.0	Precise	1	35	34	27	64.0	89.7	30.1	34	35	27	89.7	64.0	30.1	2	0.590	0.000	L	34	89.7	732.499	735.291	735.881	735.884	0
2	22071402	236	Low	10.0	Vague	2	36	33	4	47.0	82.1	42.6	36	4	33	47.0	42.6	82.1	1	2.718	0.000	L	36	47.0	736.387	738.908	741.626	741.628	0
2	22071402	237	Low	10.0	Vague	2	30	34	3	52.0	89.7	8.1	34	3	30	89.7	8.1	52.0	2	0.488	0.000	L	34	89.7	742.131	743.225	743.713	743.716	0
2	22071402	238	Low	10.0	Precise	1	30	26	29	52.0	67.3	35.9	26	30	29	67.3	52.0	35.9	2	0.580	0.000	L	26	67.3	744.218	744.950	745.530	745.532	0
2	22071402	239	Low	10.0	Precise	1	35	33	29	64.0	82.1	35.9	33	29	35	82.1	35.9	64.0	3	0.801	0.001	D	29	35.9	746.034	748.313	749.114	749.116	0
2	22071402	240	Low	10.0	Vague	2	30	26	11	52.0	67.3	23.9	30	26	11	52.0	67.3	23.9	2	0.691	0.001	D	26	67.3	749.619	751.606	752.298	752.300	0
2	22071402	241	Low	10.0	Precise	1	30	26	22	52.0	67.3	20.9	22	30	26	20.9	52.0	67.3	2	0.629	0.000	R	26	67.3	758.683	761.172	761.801	761.804	0
2	22071402	242	Low	10.0	Precise	1	36	30	27	47.0	52.0	30.1	36	27	30	47.0	30.1	52.0	1	0.956	0.000	L	36	47.0	762.306	765.246	766.201	766.204	0
2	22071402	243	Low	10.0	Precise	1	35	26	21	64.0	67.3	2.1	35	26	21	64.0	67.3	2.1	2	0.622	0.000	D	26	67.3	766.706	767.355	767.977	767.980	0
2	22071402	244	Low	10.0	Precise	1	35	34	21	64.0	89.7	2.1	21	35	34	2.1	64.0	89.7	2	0.549	0.000	R	34	89.7	768.482	771.133	771.681	771.685	0
2	22071402	245	Low	10.0	Vague	2	30	26	4	52.0	67.3	42.6	26	4	30	67.3	42.6	52.0	2	0.612	0.000	L	26	67.3	772.187	773.061	773.673	773.676	0
2	22071402	246	Low	10.0	Precise	1	36	30	29	47.0	52.0	35.9	30	36	29	52.0	47.0	35.9	1	0.661	0.000	D	36	47.0	774.178	776.820	777.482	777.484	0
2	22071402	247	Low	10.0	Precise	1	30	26	27	52.0	67.3	30.1	30	27	26	52.0	30.1	67.3	2	0.588	0.001	R	26	67.3	777.987	779.862	780.449	780.452	0
2	22071402	248	Low	10.0	Precise	1	35	33	22	64.0	82.1	20.9	35	22	33	64.0	20.9	82.1	3	0.869	0.000	D	22	20.9	780.955	782.820	783.690	783.692	0
2	22071402	249	Low	10.0	Vague	2	35	34	8	64.0	89.7	43.8	34	8	35	89.7	43.8	64.0	2	0.550	0.000	L	34	89.7	784.195	786.540	787.089	787.092	0
2	22071402	250	Low	10.0	Vague	2	26	34	8	67.3	89.7	43.8	26	8	34	67.3	43.8	89.7	2	0.473	0.000	R	34	89.7	787.594	789.513	789.985	789.988	0
2	22071402	251	Low	10.0	Vague	2	36	26	8	47.0	67.3	43.8	8	36	26	43.8	47.0	67.3	1	1.021	0.000	D	36	47.0	790.490	791.205	792.226	792.228	0
2	22071402	252	Low	10.0	Precise	1	30	26	32	52.0	67.3	22.5	30	26	32	52.0	67.3	22.5	2	0.589	0.001	D	26	67.3	792.730	794.508	795.098	795.100	0
2	22071402	253	Low	10.0	Vague	2	36	34	8	47.0	89.7	43.8	36	8	34	47.0	43.8	89.7	2	0.579	0.000	R	34	89.7	795.603	797.646	798.225	798.228	0
2	22071402	254	Low	10.0	Precise	1	36	35	21	47.0	64.0	2.1	21	36	35	2.1	47.0	64.0	1	0.681	0.000	D	36	47.0	798.730	800.665	801.345	801.348	0
2	22071402	255	Low	10.0	Precise	1	26	33	32	67.3	82.1	22.5	26	32	33	67.3	22.5	82.1	1	0.958	0.000	L	26	67.3	801.850	803.163	804.121	804.124	0
2	22071402	256	Low	10.0	Precise	1	30	35	21	52.0	64.0	2.1	30	35	21	52.0	64.0	2.1	2	0.817	0.000	D	35	64.0	804.626	805.632	806.449	806.452	0
2	22071402	257	Low	10.0	Precise	1	36	30	32	47.0	52.0	22.5	30	32	36	52.0	22.5	47.0	1	0.733	0.000	R	36	47.0	806.954	807.645	808.377	808.380	0
2	22071402	258	Low	10.0	Vague	2	35	33	8	64.0	82.1	43.8	35	33	8	64.0	82.1	43.8	3	1.048	0.000	R	8	43.8	808.883	811.185	812.233	812.236	0
2	22071402	259	Low	10.0	Vague	2	30	33	6	52.0	82.1	3.0	30	6	33	52.0	3.0	82.1	1	1.515	0.000	L	30	52.0	812.738	815.438	816.953	816.956	0
2	22071402	260	Low	10.0	Precise	1	26	33	27	67.3	82.1	30.1	27	26	33	30.1	67.3	82.1	3	1.622	0.001	L	27	30.1	817.458	818.340	819.961	819.964	0
2	22071402	261	Low	10.0	Vague	2	35	34	11	64.0	89.7	23.9	11	34	35	23.9	89.7	64.0	2	0.632	0.000	D	34	89.7	820.467	823.290	823.922	823.924	0
2	22071402	262	Low	10.0	Precise	1	36	33	19	47.0	82.1	2.8	33	36	19	82.1	47.0	2.8	1	1.210	0.001	D	36	47.0	824.427	825.583	826.794	826.796	0
2	22071402	263	Low	10.0	Vague	2	36	34	6	47.0	89.7	3.0	36	34	6	47.0	89.7	3.0	2	0.643	0.000	D	34	89.7	827.299	828.863	829.505	829.508	0
2	22071402	264	Low	10.0	Precise	1	36	35	32	47.0	64.0	22.5	36	32	35	47.0	22.5	64.0	1	0.621	0.000	L	36	47.0	830.011	832.596	833.217	833.220	0
2	22071402	265	Low	10.0	Precise	1	30	33	22	52.0	82.1	20.9	22	30	33	20.9	52.0	82.1	3	0.572	0.000	L	22	20.9	833.723	835.501	836.073	836.076	0
2	22071402	266	Low	10.0	Vague	2	35	26	3	64.0	67.3	8.1	3	26	35	8.1	67.3	64.0	2	0.495	0.000	D	26	67.3	836.579	838.882	839.377	839.380	0
2	22071402	267	Low	10.0	Vague	2	26	34	14	67.3	89.7	18.0	26	34	14	67.3	89.7	18.0	1	0.713	0.001	L	26	67.3	839.882	841.673	842.386	842.388	0
2	22071402	268	Low	10.0	Precise	1	30	34	21	52.0	89.7	2.1	34	21	30	89.7	2.1	52.0	2	0.844	0.000	L	34	89.7	842.890	843.741	844.585	844.588	0
2	22071402	269	Low	10.0	Vague	2	30	33	8	52.0	82.1	43.8	33	30	8	82.1	52.0	43.8	3	0.849	0.001	R	8	43.8	845.091	847.881	848.730	848.732	0
2	22071402	270	Low	10.0	Precise	1	36	35	27	47.0	64.0	30.1	35	27	36	64.0	30.1	47.0	1	1.447	0.000	R	36	47.0	849.235	850.491	851.937	851.940	0
2	22071402	271	Low	10.0	Precise	1	36	34	21	47.0	89.7	2.1	21	36	34	2.1	47.0	89.7	2	0.525	0.000	R	34	89.7	852.443	854.916	855.441	855.444	0
2	22071402	272	Low	10.0	Precise	1	36	35	19	47.0	64.0	2.8	35	19	36	64.0	2.8	47.0	3	1.515	0.000	D	19	2.8	855.947	858.926	860.441	860.444	0
2	22071402	273	Low	10.0	Vague	2	36	26	6	47.0	67.3	3.0	6	26	36	3.0	67.3	47.0	1	1.263	0.001	R	36	47.0	860.946	862.987	864.250	864.252	0
2	22071402	274	Low	10.0	Vague	2	30	35	3	52.0	64.0	8.1	30	3	35	52.0	8.1	64.0	3	0.771	0.000	D	3	8.1	864.755	865.935	866.705	866.708	0
2	22071402	275	Low	10.0	Precise	1	36	26	19	47.0	67.3	2.8	26	36	19	67.3	47.0	2.8	2	1.063	0.001	L	26	67.3	867.211	868.699	869.761	869.764	0
2	22071402	276	Low	10.0	Precise	1	30	34	32	52.0	89.7	22.5	32	34	30	22.5	89.7	52.0	2	0.627	0.000	D	34	89.7	870.267	871.006	871.633	871.635	0
2	22071402	277	Low	10.0	Vague	2	35	33	6	64.0	82.1	3.0	6	33	35	3.0	82.1	64.0	2	1.175	0.000	D	33	82.1	872.138	874.234	875.409	875.412	0
2	22071402	278	Low	10.0	Vague	2	30	26	8	52.0	67.3	43.8	8	30	26	43.8	52.0	67.3	2	0.970	0.000	R	26	67.3	875.915	878.584	879.553	879.556	0
2	22071402	279	Low	10.0	Precise	1	30	33	27	52.0	82.1	30.1	30	27	33	52.0	30.1	82.1	3	0.998	0.000	D	27	30.1	880.059	882.044	883.042	883.044	0
2	22071402	280	Low	10.0	Precise	1	36	26	32	47.0	67.3	22.5	36	32	26	47.0	22.5	67.3	2	1.049	0.000	R	26	67.3	883.547	885.049	886.097	886.100	0
2	22071402	281	Low	10.0	Vague	2	35	34	14	64.0	89.7	18.0	14	34	35	18.0	89.7	64.0	2	0.532	0.000	D	34	89.7	886.602	888.789	889.321	889.324	0
2	22071402	282	Low	10.0	Precise	1	36	26	27	47.0	67.3	30.1	27	36	26	30.1	47.0	67.3	2	0.636	0.000	R	26	67.3	889.826	890.565	891.201	891.204	0
2	22071402	283	Low	10.0	Vague	2	30	34	6	52.0	89.7	3.0	30	34	6	52.0	89.7	3.0	2	0.512	0.001	D	34	89.7	891.707	894.097	894.609	894.612	0
2	22071402	284	Low	10.0	Vague	2	36	30	6	47.0	52.0	3.0	6	30	36	3.0	52.0	47.0	1	1.377	0.000	R	36	47.0	895.114	896.984	898.361	898.364	0
2	22071402	285	Low	10.0	Vague	2	36	34	14	47.0	89.7	18.0	34	36	14	89.7	47.0	18.0	2	0.763	0.001	L	34	89.7	898.867	899.822	900.585	900.588	0
2	22071402	286	Low	10.0	Vague	2	36	30	4	47.0	52.0	42.6	36	4	30	47.0	42.6	52.0	1	0.851	0.001	L	36	47.0	901.090	903.046	903.897	903.900	0
2	22071402	287	Low	10.0	Precise	1	30	33	29	52.0	82.1	35.9	30	29	33	52.0	35.9	82.1	3	1.576	0.000	D	29	35.9	904.402	905.713	907.289	907.292	0
2	22071402	288	Low	10.0	Vague	2	30	35	8	52.0	64.0	43.8	8	35	30	43.8	64.0	52.0	3	3.388	0.000	L	8	43.8	907.795	910.182	913.569	913.572	0
2	22071402	289	Low	10.0	Vague	2	36	30	8	47.0	52.0	43.8	30	8	36	52.0	43.8	47.0	1	2.971	0.001	R	36	47.0	914.075	915.406	918.377	918.380	0
2	22071402	290	Low	10.0	Precise	1	30	26	19	52.0	67.3	2.8	19	26	30	2.8	67.3	52.0	2	1.730	0.001	D	26	67.3	918.882	920.424	922.153	922.156	0
2	22071402	291	Low	10.0	Vague	2	35	26	4	64.0	67.3	42.6	4	35	26	42.6	64.0	67.3	2	2.356	0.000	R	26	67.3	922.658	925.374	927.729	927.732	0
2	22071402	292	Low	10.0	Vague	2	35	34	4	64.0	89.7	42.6	34	35	4	89.7	64.0	42.6	2	1.626	0.001	L	34	89.7	928.234	930.343	931.970	931.972	0
2	22071402	293	Low	10.0	Vague	2	26	34	11	67.3	89.7	23.9	11	26	34	23.9	67.3	89.7	2	1.482	0.000	R	34	89.7	932.475	933.471	934.953	934.956	0
2	22071402	294	Low	10.0	Vague	2	30	34	11	52.0	89.7	23.9	11	34	30	23.9	89.7	52.0	2	2.413	0.001	D	34	89.7	935.459	936.693	939.105	939.108	0
2	22071402	295	Low	10.0	Precise	1	26	34	32	67.3	89.7	22.5	32	26	34	22.5	67.3	89.7	2	1.759	0.001	R	34	89.7	939.611	941.138	942.898	942.900	0
2	22071402	296	Low	10.0	Vague	2	36	30	3	47.0	52.0	8.1	3	36	30	8.1	47.0	52.0	1	0.970	0.000	D	36	47.0	943.402	944.664	945.633	945.636	0
2	22071402	297	Low	10.0	Precise	1	35	26	22	64.0	67.3	20.9	26	35	22	67.3	64.0	20.9	2	1.646	0.000	L	26	67.3	946.138	949.003	950.649	950.652	0
2	22071402	298	Low	10.0	Precise	1	36	34	22	47.0	89.7	20.9	34	36	22	89.7	47.0	20.9	2	2.178	0.000	L	34	89.7	951.154	951.887	954.065	954.067	0
2	22071402	299	Low	10.0	Vague	2	36	33	14	47.0	82.1	18.0	33	14	36	82.1	18.0	47.0	3	1.064	0.001	D	14	18.0	954.570	956.058	957.121	957.124	0
2	22071402	300	Low	10.0	Precise	1	36	26	29	47.0	67.3	35.9	36	29	26	47.0	35.9	67.3	1	1.382	0.000	L	36	47.0	957.626	959.796	961.177	961.180	0
2	22071402	301	Low	10.0	Vague	2	36	35	8	47.0	64.0	43.8	36	8	35	47.0	43.8	64.0	3	0.754	0.001	D	8	43.8	968.246	970.984	971.738	971.740	0
2	22071402	302	Low	10.0	Precise	1	26	34	19	67.3	89.7	2.8	26	19	34	67.3	2.8	89.7	2	1.173	0.001	R	34	89.7	972.242	975.117	976.290	976.292	0
2	22071402	303	Low	10.0	Vague	2	36	26	3	47.0	67.3	8.1	36	26	3	47.0	67.3	8.1	1	1.378	0.001	L	36	47.0	976.795	978.815	980.193	980.196	0
2	22071402	304	Low	10.0	Precise	1	26	34	21	67.3	89.7	2.1	34	21	26	89.7	2.1	67.3	2	1.209	0.001	L	34	89.7	980.698	982.785	983.994	983.996	0
2	22071402	305	Low	10.0	Vague	2	26	33	3	67.3	82.1	8.1	3	26	33	8.1	67.3	82.1	1	1.601	0.000	D	26	67.3	984.498	986.992	988.593	988.596	0
2	22071402	306	Low	10.0	Precise	1	36	34	27	47.0	89.7	30.1	27	36	34	30.1	47.0	89.7	2	0.514	0.000	R	34	89.7	989.098	992.071	992.585	992.587	0
2	22071402	307	Low	10.0	Precise	1	26	33	19	67.3	82.1	2.8	33	19	26	82.1	2.8	67.3	2	1.418	0.000	L	33	82.1	993.090	993.719	995.137	995.139	0
2	22071402	308	Low	10.0	Precise	1	26	34	29	67.3	89.7	35.9	29	26	34	35.9	67.3	89.7	2	0.564	0.001	R	34	89.7	995.642	997.069	997.633	997.636	0
2	22071402	309	Low	10.0	Vague	2	26	34	4	67.3	89.7	42.6	26	4	34	67.3	42.6	89.7	2	0.705	0.000	R	34	89.7	998.138	999.968	1000.673	1000.676	0
2	22071402	310	Low	10.0	Precise	1	36	33	21	47.0	82.1	2.1	36	21	33	47.0	2.1	82.1	1	0.722	0.001	L	36	47.0	1001.178	1002.671	1003.393	1003.396	0
2	22071402	311	Low	10.0	Vague	2	30	34	8	52.0	89.7	43.8	8	34	30	43.8	89.7	52.0	2	0.960	0.001	D	34	89.7	1003.899	1005.586	1006.545	1006.548	0
2	22071402	312	Low	10.0	Vague	2	26	33	8	67.3	82.1	43.8	26	8	33	67.3	43.8	82.1	1	1.644	0.000	L	26	67.3	1007.050	1008.837	1010.481	1010.484	0
2	22071402	313	Low	10.0	Vague	2	36	30	11	47.0	52.0	23.9	11	36	30	23.9	47.0	52.0	1	1.361	0.001	D	36	47.0	1010.987	1013.481	1014.841	1014.844	0
2	22071402	314	Low	10.0	Vague	2	36	34	4	47.0	89.7	42.6	4	34	36	42.6	89.7	47.0	2	1.016	0.000	D	34	89.7	1015.347	1018.026	1019.041	1019.044	0
2	22071402	315	Low	10.0	Vague	2	26	34	6	67.3	89.7	3.0	6	34	26	3.0	89.7	67.3	2	3.016	0.001	D	34	89.7	1019.546	1020.625	1023.641	1023.644	0
2	22071402	316	Low	10.0	Precise	1	35	33	32	64.0	82.1	22.5	32	33	35	22.5	82.1	64.0	2	2.924	0.001	D	33	82.1	1024.147	1026.357	1029.282	1029.284	0
2	22071402	317	Low	10.0	Vague	2	30	26	6	52.0	67.3	3.0	6	30	26	3.0	52.0	67.3	2	2.351	0.000	R	26	67.3	1029.787	1030.882	1033.233	1033.236	0
2	22071402	318	Low	10.0	Precise	1	30	33	19	52.0	82.1	2.8	19	33	30	2.8	82.1	52.0	2	1.247	0.000	D	33	82.1	1033.738	1035.962	1037.209	1037.212	0
2	22071402	319	Low	10.0	Vague	2	36	26	4	47.0	67.3	42.6	26	36	4	67.3	47.0	42.6	3	2.884	0.001	R	4	42.6	1037.715	1039.109	1041.993	1041.996	0
2	22071402	320	Low	10.0	Vague	2	35	33	4	64.0	82.1	42.6	33	35	4	82.1	64.0	42.6	3	1.303	0.000	R	4	42.6	1042.498	1043.178	1044.481	1044.484	0
2	22071402	321	Low	10.0	Precise	1	35	33	21	64.0	82.1	2.1	35	33	21	64.0	82.1	2.1	2	1.240	0.001	D	33	82.1	1044.986	1046.089	1047.329	1047.332	0
2	22071402	322	Low	10.0	Precise	1	33	34	22	82.1	89.7	20.9	33	34	22	82.1	89.7	20.9	2	1.190	0.001	D	34	89.7	1047.834	1049.891	1051.081	1051.084	0
2	22071402	323	Low	10.0	Vague	2	36	35	14	47.0	64.0	18.0	36	14	35	47.0	18.0	64.0	3	1.073	0.000	D	14	18.0	1051.586	1052.352	1053.425	1053.428	0
2	22071402	324	Low	10.0	Vague	2	35	26	11	64.0	67.3	23.9	26	35	11	67.3	64.0	23.9	2	1.330	0.001	L	26	67.3	1053.930	1056.392	1057.721	1057.724	0
2	22071402	325	Low	10.0	Precise	1	33	34	21	82.1	89.7	2.1	34	33	21	89.7	82.1	2.1	2	1.291	0.000	L	34	89.7	1058.226	1060.238	1061.529	1061.532	0
2	22071402	326	Low	10.0	Vague	2	36	35	4	47.0	64.0	42.6	36	4	35	47.0	42.6	64.0	3	1.187	0.000	D	4	42.6	1062.034	1063.350	1064.537	1064.539	0
2	22071402	327	Low	10.0	Vague	2	36	34	3	47.0	89.7	8.1	34	3	36	89.7	8.1	47.0	2	1.066	0.001	L	34	89.7	1065.042	1066.423	1067.489	1067.492	0
2	22071402	328	Low	10.0	Vague	2	30	33	3	52.0	82.1	8.1	33	3	30	82.1	8.1	52.0	3	0.850	0.001	D	3	8.1	1067.994	1069.959	1070.809	1070.812	0
2	22071402	329	Low	10.0	Precise	1	36	35	29	47.0	64.0	35.9	35	36	29	64.0	47.0	35.9	1	0.996	0.001	D	36	47.0	1071.315	1073.005	1074.001	1074.004	0
2	22071402	330	Low	10.0	Precise	1	30	33	32	52.0	82.1	22.5	32	30	33	22.5	52.0	82.1	1	1.327	0.000	D	30	52.0	1074.506	1075.011	1076.337	1076.340	0
2	22071402	331	Low	10.0	Vague	2	30	35	6	52.0	64.0	3.0	30	35	6	52.0	64.0	3.0	2	2.253	0.000	D	35	64.0	1076.842	1078.548	1080.801	1080.804	0
2	22071402	332	Low	10.0	Precise	1	33	34	19	82.1	89.7	2.8	19	33	34	2.8	82.1	89.7	2	2.513	0.000	R	34	89.7	1081.306	1083.408	1085.921	1085.924	0
2	22071402	333	Low	10.0	Precise	1	36	33	32	47.0	82.1	22.5	32	36	33	22.5	47.0	82.1	NaN	NaN	NaN	NaN	NaN	NaN	1086.426	1087.830	NaN	1097.821	1
2	22071402	334	Low	10.0	Vague	2	30	33	11	52.0	82.1	23.9	33	11	30	82.1	23.9	52.0	3	1.314	0.000	D	11	23.9	1099.825	1101.607	1102.921	1102.925	0
2	22071402	335	Low	10.0	Precise	1	30	35	32	52.0	64.0	22.5	32	35	30	22.5	64.0	52.0	3	0.627	0.001	L	32	22.5	1103.427	1105.206	1105.833	1105.836	0
2	22071402	336	Low	10.0	Precise	1	30	34	22	52.0	89.7	20.9	34	30	22	89.7	52.0	20.9	2	0.500	0.000	L	34	89.7	1106.339	1108.037	1108.537	1108.540	0
2	22071402	337	Low	10.0	Vague	2	36	26	11	47.0	67.3	23.9	36	26	11	47.0	67.3	23.9	1	0.531	0.001	L	36	47.0	1109.042	1110.423	1110.953	1110.956	0
2	22071402	338	Low	10.0	Precise	1	30	33	21	52.0	82.1	2.1	21	30	33	2.1	52.0	82.1	3	0.440	0.000	L	21	2.1	1111.458	1114.097	1114.537	1114.540	0
2	22071402	339	Low	10.0	Vague	2	35	26	6	64.0	67.3	3.0	6	35	26	3.0	64.0	67.3	2	0.606	0.000	R	26	67.3	1115.044	1117.083	1117.689	1117.691	0
2	22071402	340	Low	10.0	Vague	2	30	35	4	52.0	64.0	42.6	35	30	4	64.0	52.0	42.6	3	0.516	0.000	R	4	42.6	1118.194	1119.989	1120.505	1120.508	0
2	22071402	341	Low	10.0	Precise	1	30	35	27	52.0	64.0	30.1	35	27	30	64.0	30.1	52.0	1	0.688	0.000	R	30	52.0	1121.010	1123.185	1123.873	1123.875	0
2	22071402	342	Low	10.0	Precise	1	36	26	21	47.0	67.3	2.1	36	26	21	47.0	67.3	2.1	3	0.633	0.000	R	21	2.1	1124.378	1127.176	1127.809	1127.811	0
2	22071402	343	Low	10.0	Vague	2	36	33	11	47.0	82.1	23.9	36	11	33	47.0	23.9	82.1	2	2.554	0.000	R	33	82.1	1128.314	1130.975	1133.529	1133.532	0
2	22071402	344	Low	10.0	Vague	2	35	34	3	64.0	89.7	8.1	3	34	35	8.1	89.7	64.0	2	3.681	0.000	D	34	89.7	1134.034	1135.256	1138.937	1138.940	0
2	22071402	345	Low	10.0	Vague	2	36	34	11	47.0	89.7	23.9	36	34	11	47.0	89.7	23.9	2	1.232	0.000	D	34	89.7	1139.442	1141.825	1143.057	1143.060	0
2	22071402	346	Low	10.0	Precise	1	35	33	19	64.0	82.1	2.8	33	19	35	82.1	2.8	64.0	3	1.920	0.001	D	19	2.8	1143.562	1146.249	1148.169	1148.172	0
2	22071402	347	Low	10.0	Vague	2	35	26	8	64.0	67.3	43.8	26	35	8	67.3	64.0	43.8	2	1.774	0.001	L	26	67.3	1148.675	1151.083	1152.857	1152.860	0
2	22071402	348	Low	10.0	Vague	2	30	26	14	52.0	67.3	18.0	14	30	26	18.0	52.0	67.3	1	1.937	0.001	D	30	52.0	1153.362	1154.337	1156.273	1156.276	0
2	22071402	349	Low	10.0	Precise	1	35	34	19	64.0	89.7	2.8	35	19	34	64.0	2.8	89.7	2	1.657	0.001	R	34	89.7	1156.778	1157.936	1159.593	1159.596	0
2	22071402	350	Low	10.0	Vague	2	30	35	14	52.0	64.0	18.0	30	14	35	52.0	18.0	64.0	3	0.937	0.001	D	14	18.0	1160.098	1162.049	1162.985	1162.988	0
2	22071402	351	Low	10.0	Vague	2	33	34	3	82.1	89.7	8.1	34	33	3	89.7	82.1	8.1	2	2.421	0.000	L	34	89.7	1163.491	1166.068	1168.489	1168.492	0
2	22071402	352	Low	10.0	Vague	2	35	33	11	64.0	82.1	23.9	33	35	11	82.1	64.0	23.9	1	1.245	0.000	D	35	64.0	1168.995	1171.052	1172.297	1172.300	0
2	22071402	353	Low	10.0	Precise	1	30	35	19	52.0	64.0	2.8	19	35	30	2.8	64.0	52.0	2	1.243	0.000	D	35	64.0	1172.802	1174.150	1175.393	1175.396	0
2	22071402	354	Low	10.0	Precise	1	36	35	22	47.0	64.0	20.9	35	36	22	64.0	47.0	20.9	1	1.149	0.001	D	36	47.0	1175.898	1177.572	1178.721	1178.724	0
2	22071402	355	Low	10.0	Precise	1	36	34	29	47.0	89.7	35.9	29	34	36	35.9	89.7	47.0	2	0.846	0.001	D	34	89.7	1179.226	1180.163	1181.009	1181.011	0
2	22071402	356	Low	10.0	Precise	1	35	26	29	64.0	67.3	35.9	26	29	35	67.3	35.9	64.0	2	1.517	0.001	L	26	67.3	1181.514	1183.620	1185.137	1185.140	0
2	22071402	357	Low	10.0	Precise	1	26	34	27	67.3	89.7	30.1	26	27	34	67.3	30.1	89.7	2	1.579	0.000	R	34	89.7	1185.642	1187.583	1189.161	1189.164	0
2	22071402	358	Low	10.0	Precise	1	36	30	21	47.0	52.0	2.1	30	36	21	52.0	47.0	2.1	1	1.697	0.001	D	36	47.0	1189.667	1191.096	1192.793	1192.795	0
2	22071402	359	Low	10.0	Vague	2	36	35	6	47.0	64.0	3.0	35	36	6	64.0	47.0	3.0	1	2.748	0.000	D	36	47.0	1193.298	1194.285	1197.033	1197.035	0
2	22071402	360	Low	10.0	Precise	1	33	34	32	82.1	89.7	22.5	34	33	32	89.7	82.1	22.5	2	1.425	0.000	L	34	89.7	1197.538	1200.041	1201.465	1201.468	0
