Group	subID	trial	TimePressure	TimeConstraint	Vagueness	Vaguenesscode	ID1	ID2	ID3	V1	V2	V3	ID_left	ID_middle	ID_right	Bid_left	Bid_middle	Bid_right	chosenItem	RT	RTvariance	chosenPosition	chosenID	chosenValue	fixation_time	option_time	choice_time	feedback_time	timeout
2	22110307	1	Low	10.0	Precise	1	27	36	31	5.1	5.7	2.1	27	31	36	5.1	2.1	5.7	2	3.603	0.001	R	36	5.7	4.958	5.610	9.213	9.217	0
2	22110307	2	Low	10.0	Vague	2	27	33	3	5.1	6.0	0.5	33	3	27	6.0	0.5	5.1	2	4.311	0.000	L	33	6.0	9.723	11.710	16.021	16.024	0
2	22110307	3	Low	10.0	Precise	1	29	36	28	5.6	5.7	2.6	36	29	28	5.7	5.6	2.6	1	1.573	0.000	D	29	5.6	16.530	19.001	20.573	20.576	0
2	22110307	4	Low	10.0	Precise	1	29	33	21	5.6	6.0	0.3	21	29	33	0.3	5.6	6.0	1	0.986	0.001	D	29	5.6	21.079	23.779	24.765	24.768	0
2	22110307	5	Low	10.0	Vague	2	27	33	4	5.1	6.0	0.0	4	33	27	0.0	6.0	5.1	2	1.713	0.000	D	33	6.0	25.272	25.860	27.573	27.578	0
2	22110307	6	Low	10.0	Vague	2	27	35	14	5.1	5.4	0.3	35	14	27	5.4	0.3	5.1	2	1.663	0.001	L	35	5.4	28.082	29.558	31.221	31.224	0
2	22110307	7	Low	10.0	Precise	1	27	29	20	5.1	5.6	0.6	29	27	20	5.6	5.1	0.6	2	0.920	0.001	L	29	5.6	31.727	34.694	35.613	35.616	0
2	22110307	8	Low	10.0	Vague	2	27	33	16	5.1	6.0	1.4	33	16	27	6.0	1.4	5.1	1	1.318	0.000	R	27	5.1	36.119	38.887	40.205	40.208	0
2	22110307	9	Low	10.0	Precise	1	29	36	32	5.6	5.7	5.0	32	36	29	5.0	5.7	5.6	1	1.522	0.000	R	29	5.6	40.710	41.875	43.397	43.400	0
2	22110307	10	Low	10.0	Precise	1	27	29	34	5.1	5.6	1.5	34	27	29	1.5	5.1	5.6	2	0.848	0.000	R	29	5.6	43.902	44.853	45.701	45.704	0
2	22110307	11	Low	10.0	Precise	1	27	26	32	5.1	5.8	5.0	26	27	32	5.8	5.1	5.0	3	4.185	0.000	R	32	5.0	46.207	47.996	52.181	52.184	0
2	22110307	12	Low	10.0	Vague	2	29	33	3	5.6	6.0	0.5	33	3	29	6.0	0.5	5.6	1	0.965	0.000	R	29	5.6	52.686	55.200	56.165	56.168	0
2	22110307	13	Low	10.0	Precise	1	35	36	34	5.4	5.7	1.5	35	34	36	5.4	1.5	5.7	1	0.828	0.000	L	35	5.4	56.670	59.129	59.957	59.960	0
2	22110307	14	Low	10.0	Vague	2	26	33	16	5.8	6.0	1.4	26	16	33	5.8	1.4	6.0	2	2.536	0.000	R	33	6.0	60.462	62.429	64.965	64.967	0
2	22110307	15	Low	10.0	Precise	1	35	29	32	5.4	5.6	5.0	29	35	32	5.6	5.4	5.0	2	0.665	0.000	L	29	5.6	65.470	67.036	67.701	67.704	0
2	22110307	16	Low	10.0	Vague	2	29	33	14	5.6	6.0	0.3	33	14	29	6.0	0.3	5.6	1	1.073	0.000	R	29	5.6	68.206	69.508	70.581	70.583	0
2	22110307	17	Low	10.0	Vague	2	35	26	16	5.4	5.8	1.4	35	16	26	5.4	1.4	5.8	1	0.575	0.001	L	35	5.4	71.086	74.054	74.629	74.632	0
2	22110307	18	Low	10.0	Precise	1	27	29	28	5.1	5.6	2.6	29	28	27	5.6	2.6	5.1	2	0.809	0.001	L	29	5.6	75.134	76.116	76.925	76.928	0
2	22110307	19	Low	10.0	Precise	1	27	26	34	5.1	5.8	1.5	26	27	34	5.8	5.1	1.5	2	1.779	0.001	L	26	5.8	77.430	78.859	80.637	80.640	0
2	22110307	20	Low	10.0	Vague	2	27	35	3	5.1	5.4	0.5	3	27	35	0.5	5.1	5.4	2	0.650	0.000	R	35	5.4	81.142	81.771	82.421	82.424	0
2	22110307	21	Low	10.0	Precise	1	27	29	21	5.1	5.6	0.3	21	29	27	0.3	5.6	5.1	2	0.864	0.001	D	29	5.6	82.926	84.694	85.557	85.560	0
2	22110307	22	Low	10.0	Precise	1	27	35	20	5.1	5.4	0.6	20	35	27	0.6	5.4	5.1	2	0.699	0.000	D	35	5.4	86.063	86.762	87.461	87.464	0
2	22110307	23	Low	10.0	Precise	1	35	26	34	5.4	5.8	1.5	26	35	34	5.8	5.4	1.5	1	0.805	0.001	D	35	5.4	87.966	89.696	90.501	90.504	0
2	22110307	24	Low	10.0	Vague	2	29	36	1	5.6	5.7	0.7	1	29	36	0.7	5.6	5.7	1	0.935	0.000	D	29	5.6	91.006	93.758	94.693	94.696	0
2	22110307	25	Low	10.0	Vague	2	36	33	3	5.7	6.0	0.5	33	36	3	6.0	5.7	0.5	1	2.085	0.001	D	36	5.7	95.198	96.240	98.325	98.328	0
2	22110307	26	Low	10.0	Precise	1	29	26	21	5.6	5.8	0.3	29	21	26	5.6	0.3	5.8	1	0.871	0.000	L	29	5.6	98.830	100.286	101.157	101.160	0
2	22110307	27	Low	10.0	Vague	2	27	29	3	5.1	5.6	0.5	3	29	27	0.5	5.6	5.1	2	0.819	0.001	D	29	5.6	101.662	104.475	105.293	105.296	0
2	22110307	28	Low	10.0	Vague	2	29	36	3	5.6	5.7	0.5	3	36	29	0.5	5.7	5.6	1	0.739	0.000	R	29	5.6	105.799	106.634	107.373	107.376	0
2	22110307	29	Low	10.0	Vague	2	27	26	4	5.1	5.8	0.0	26	4	27	5.8	0.0	5.1	1	1.844	0.000	R	27	5.1	107.878	110.537	112.381	112.383	0
2	22110307	30	Low	10.0	Vague	2	35	26	14	5.4	5.8	0.3	26	14	35	5.8	0.3	5.4	1	0.675	0.000	R	35	5.4	112.886	114.218	114.893	114.896	0
2	22110307	31	Low	10.0	Vague	2	35	29	4	5.4	5.6	0.0	4	35	29	0.0	5.4	5.6	1	0.751	0.000	D	35	5.4	115.399	118.342	119.093	119.096	0
2	22110307	32	Low	10.0	Precise	1	35	36	20	5.4	5.7	0.6	20	36	35	0.6	5.7	5.4	1	0.668	0.000	R	35	5.4	119.598	122.313	122.981	122.984	0
2	22110307	33	Low	10.0	Vague	2	26	33	14	5.8	6.0	0.3	26	14	33	5.8	0.3	6.0	2	3.259	0.000	R	33	6.0	123.486	125.186	128.445	128.448	0
2	22110307	34	Low	10.0	Precise	1	36	33	28	5.7	6.0	2.6	36	28	33	5.7	2.6	6.0	1	1.515	0.001	L	36	5.7	128.950	129.658	131.173	131.176	0
2	22110307	35	Low	10.0	Precise	1	26	33	20	5.8	6.0	0.6	20	33	26	0.6	6.0	5.8	1	3.304	0.000	R	26	5.8	131.678	133.733	137.037	137.040	0
2	22110307	36	Low	10.0	Precise	1	27	33	31	5.1	6.0	2.1	31	33	27	2.1	6.0	5.1	1	1.615	0.000	R	27	5.1	137.543	138.926	140.541	140.543	0
2	22110307	37	Low	10.0	Precise	1	35	26	20	5.4	5.8	0.6	35	26	20	5.4	5.8	0.6	1	0.650	0.000	L	35	5.4	141.046	141.587	142.237	142.239	0
2	22110307	38	Low	10.0	Vague	2	27	35	16	5.1	5.4	1.4	35	16	27	5.4	1.4	5.1	2	0.722	0.000	L	35	5.4	142.743	145.019	145.741	145.744	0
2	22110307	39	Low	10.0	Precise	1	26	33	32	5.8	6.0	5.0	33	26	32	6.0	5.8	5.0	3	1.951	0.000	R	32	5.0	146.246	147.686	149.637	149.639	0
2	22110307	40	Low	10.0	Vague	2	27	26	1	5.1	5.8	0.7	1	26	27	0.7	5.8	5.1	1	1.999	0.000	R	27	5.1	150.142	151.134	153.133	153.135	0
2	22110307	41	Low	10.0	Precise	1	36	26	21	5.7	5.8	0.3	21	26	36	0.3	5.8	5.7	1	1.299	0.000	R	36	5.7	153.638	154.602	155.901	155.903	0
2	22110307	42	Low	10.0	Precise	1	35	36	31	5.4	5.7	2.1	31	36	35	2.1	5.7	5.4	1	0.678	0.001	R	35	5.4	156.406	158.839	159.517	159.520	0
2	22110307	43	Low	10.0	Vague	2	27	33	14	5.1	6.0	0.3	14	33	27	0.3	6.0	5.1	1	2.961	0.000	R	27	5.1	160.023	161.252	164.213	164.216	0
2	22110307	44	Low	10.0	Vague	2	27	35	4	5.1	5.4	0.0	4	35	27	0.0	5.4	5.1	1	1.179	0.000	R	27	5.1	164.719	165.938	167.117	167.119	0
2	22110307	45	Low	10.0	Precise	1	26	33	34	5.8	6.0	1.5	26	33	34	5.8	6.0	1.5	1	1.433	0.000	L	26	5.8	167.622	168.444	169.877	169.879	0
2	22110307	46	Low	10.0	Vague	2	36	26	4	5.7	5.8	0.0	26	36	4	5.8	5.7	0.0	1	0.881	0.000	D	36	5.7	170.382	172.148	173.029	173.032	0
2	22110307	47	Low	10.0	Vague	2	35	26	4	5.4	5.8	0.0	4	35	26	0.0	5.4	5.8	1	0.439	0.000	D	35	5.4	173.534	176.190	176.629	176.632	0
2	22110307	48	Low	10.0	Vague	2	35	36	7	5.4	5.7	0.9	36	7	35	5.7	0.9	5.4	3	0.550	0.000	D	7	0.9	177.134	178.863	179.413	179.416	0
2	22110307	49	Low	10.0	Vague	2	26	33	7	5.8	6.0	0.9	33	7	26	6.0	0.9	5.8	1	2.127	0.000	R	26	5.8	179.919	181.710	183.837	183.839	0
2	22110307	50	Low	10.0	Precise	1	35	33	31	5.4	6.0	2.1	35	31	33	5.4	2.1	6.0	1	0.553	0.001	L	35	5.4	184.342	185.812	186.365	186.367	0
2	22110307	51	Low	10.0	Vague	2	27	29	4	5.1	5.6	0.0	29	4	27	5.6	0.0	5.1	2	1.331	0.000	L	29	5.6	186.870	188.522	189.853	189.855	0
2	22110307	52	Low	10.0	Precise	1	29	33	32	5.6	6.0	5.0	32	33	29	5.0	6.0	5.6	1	1.491	0.000	R	29	5.6	190.358	192.283	193.773	193.776	0
2	22110307	53	Low	10.0	Vague	2	27	36	4	5.1	5.7	0.0	27	4	36	5.1	0.0	5.7	2	2.100	0.000	R	36	5.7	194.278	196.401	198.501	198.504	0
2	22110307	54	Low	10.0	Vague	2	27	33	7	5.1	6.0	0.9	33	27	7	6.0	5.1	0.9	1	1.793	0.000	D	27	5.1	199.006	199.532	201.325	201.327	0
2	22110307	55	Low	10.0	Vague	2	29	36	7	5.6	5.7	0.9	7	29	36	0.9	5.6	5.7	1	1.419	0.000	D	29	5.6	201.830	203.331	204.749	204.752	0
2	22110307	56	Low	10.0	Vague	2	36	33	4	5.7	6.0	0.0	33	36	4	6.0	5.7	0.0	1	1.090	0.000	D	36	5.7	205.254	207.731	208.821	208.824	0
2	22110307	57	Low	10.0	Precise	1	35	36	28	5.4	5.7	2.6	35	36	28	5.4	5.7	2.6	1	0.562	0.000	L	35	5.4	209.326	211.931	212.493	212.495	0
2	22110307	58	Low	10.0	Vague	2	27	36	16	5.1	5.7	1.4	16	36	27	1.4	5.7	5.1	2	1.475	0.000	D	36	5.7	212.998	213.747	215.221	215.224	0
2	22110307	59	Low	10.0	Precise	1	29	33	34	5.6	6.0	1.5	33	34	29	6.0	1.5	5.6	1	1.000	0.000	R	29	5.6	215.727	218.013	219.013	219.015	0
2	22110307	60	Low	10.0	Vague	2	35	26	3	5.4	5.8	0.5	35	3	26	5.4	0.5	5.8	1	0.564	0.000	L	35	5.4	219.518	220.024	220.589	220.591	0
2	22110307	61	Low	10.0	Vague	2	29	33	16	5.6	6.0	1.4	16	29	33	1.4	5.6	6.0	1	1.007	0.000	D	29	5.6	232.795	235.694	236.701	236.703	0
2	22110307	62	Low	10.0	Precise	1	27	29	31	5.1	5.6	2.1	27	31	29	5.1	2.1	5.6	2	0.756	0.001	R	29	5.6	237.206	238.561	239.317	239.319	0
2	22110307	63	Low	10.0	Vague	2	35	36	3	5.4	5.7	0.5	3	35	36	0.5	5.4	5.7	1	0.536	0.000	D	35	5.4	239.822	240.381	240.917	240.919	0
2	22110307	64	Low	10.0	Precise	1	29	36	34	5.6	5.7	1.5	36	29	34	5.7	5.6	1.5	1	0.741	0.000	D	29	5.6	241.422	243.833	244.573	244.576	0
2	22110307	65	Low	10.0	Precise	1	26	33	28	5.8	6.0	2.6	28	26	33	2.6	5.8	6.0	1	1.197	0.000	D	26	5.8	245.078	247.448	248.645	248.648	0
2	22110307	66	Low	10.0	Precise	1	27	35	21	5.1	5.4	0.3	35	27	21	5.4	5.1	0.3	2	0.516	0.000	L	35	5.4	249.151	251.601	252.117	252.119	0
2	22110307	67	Low	10.0	Vague	2	29	26	7	5.6	5.8	0.9	29	7	26	5.6	0.9	5.8	1	0.670	0.000	L	29	5.6	252.622	253.671	254.341	254.344	0
2	22110307	68	Low	10.0	Precise	1	36	33	32	5.7	6.0	5.0	32	36	33	5.0	5.7	6.0	1	1.344	0.000	D	36	5.7	254.846	257.213	258.557	258.559	0
2	22110307	69	Low	10.0	Precise	1	29	36	31	5.6	5.7	2.1	31	36	29	2.1	5.7	5.6	1	0.871	0.001	R	29	5.6	259.062	261.958	262.829	262.831	0
2	22110307	70	Low	10.0	Precise	1	36	26	32	5.7	5.8	5.0	32	36	26	5.0	5.7	5.8	1	1.469	0.000	D	36	5.7	263.335	265.816	267.285	267.288	0
2	22110307	71	Low	10.0	Precise	1	35	26	32	5.4	5.8	5.0	26	32	35	5.8	5.0	5.4	1	0.673	0.000	R	35	5.4	267.790	269.244	269.917	269.919	0
2	22110307	72	Low	10.0	Precise	1	36	33	20	5.7	6.0	0.6	20	36	33	0.6	5.7	6.0	1	1.564	0.000	D	36	5.7	270.422	272.441	274.005	274.007	0
2	22110307	73	Low	10.0	Precise	1	29	26	34	5.6	5.8	1.5	29	26	34	5.6	5.8	1.5	1	0.729	0.001	L	29	5.6	274.511	275.156	275.885	275.888	0
2	22110307	74	Low	10.0	Precise	1	36	26	28	5.7	5.8	2.6	36	28	26	5.7	2.6	5.8	1	2.532	0.001	L	36	5.7	276.390	279.185	281.717	281.719	0
2	22110307	75	Low	10.0	Vague	2	35	29	14	5.4	5.6	0.3	35	29	14	5.4	5.6	0.3	1	0.599	0.000	L	35	5.4	282.222	284.886	285.485	285.487	0
2	22110307	76	Low	10.0	Precise	1	35	26	31	5.4	5.8	2.1	31	35	26	2.1	5.4	5.8	1	0.773	0.001	D	35	5.4	285.990	288.096	288.869	288.872	0
2	22110307	77	Low	10.0	Vague	2	29	26	4	5.6	5.8	0.0	26	29	4	5.8	5.6	0.0	1	0.998	0.000	D	29	5.6	289.374	291.775	292.773	292.775	0
2	22110307	78	Low	10.0	Precise	1	35	33	20	5.4	6.0	0.6	33	20	35	6.0	0.6	5.4	1	0.493	0.000	R	35	5.4	293.278	294.832	295.325	295.327	0
2	22110307	79	Low	10.0	Vague	2	35	33	7	5.4	6.0	0.9	35	7	33	5.4	0.9	6.0	1	0.497	0.000	L	35	5.4	295.830	296.916	297.413	297.416	0
2	22110307	80	Low	10.0	Vague	2	36	26	7	5.7	5.8	0.9	7	26	36	0.9	5.8	5.7	1	1.360	0.000	R	36	5.7	297.918	300.517	301.877	301.879	0
2	22110307	81	Low	10.0	Vague	2	27	33	1	5.1	6.0	0.7	27	1	33	5.1	0.7	6.0	1	1.270	0.001	L	27	5.1	302.382	305.215	306.485	306.488	0
2	22110307	82	Low	10.0	Vague	2	36	33	14	5.7	6.0	0.3	36	33	14	5.7	6.0	0.3	1	1.385	0.000	L	36	5.7	306.990	308.459	309.845	309.848	0
2	22110307	83	Low	10.0	Precise	1	27	26	20	5.1	5.8	0.6	20	27	26	0.6	5.1	5.8	1	1.286	0.000	D	27	5.1	310.350	312.223	313.509	313.511	0
2	22110307	84	Low	10.0	Vague	2	29	26	14	5.6	5.8	0.3	26	29	14	5.8	5.6	0.3	1	1.024	0.000	D	29	5.6	314.014	315.942	316.965	316.967	0
2	22110307	85	Low	10.0	Vague	2	26	33	3	5.8	6.0	0.5	33	3	26	6.0	0.5	5.8	1	1.912	0.000	R	26	5.8	317.470	319.317	321.229	321.231	0
2	22110307	86	Low	10.0	Precise	1	27	35	34	5.1	5.4	1.5	35	27	34	5.4	5.1	1.5	2	0.433	0.000	L	35	5.4	321.734	324.492	324.925	324.927	0
2	22110307	87	Low	10.0	Precise	1	35	33	28	5.4	6.0	2.6	35	33	28	5.4	6.0	2.6	1	0.510	0.001	L	35	5.4	325.430	328.343	328.853	328.855	0
2	22110307	88	Low	10.0	Vague	2	35	29	7	5.4	5.6	0.9	7	35	29	0.9	5.4	5.6	1	0.618	0.000	D	35	5.4	329.358	330.283	330.901	330.903	0
2	22110307	89	Low	10.0	Precise	1	27	26	31	5.1	5.8	2.1	27	26	31	5.1	5.8	2.1	1	1.441	0.000	L	27	5.1	331.407	333.068	334.509	334.511	0
2	22110307	90	Low	10.0	Vague	2	35	33	14	5.4	6.0	0.3	35	33	14	5.4	6.0	0.3	1	0.592	0.000	L	35	5.4	335.014	336.141	336.733	336.735	0
2	22110307	91	Low	10.0	Precise	1	35	29	21	5.4	5.6	0.3	21	35	29	0.3	5.4	5.6	1	0.523	0.000	D	35	5.4	337.237	338.554	339.077	339.079	0
2	22110307	92	Low	10.0	Vague	2	27	29	1	5.1	5.6	0.7	29	1	27	5.6	0.7	5.1	2	1.089	0.000	L	29	5.6	339.582	341.843	342.933	342.935	0
2	22110307	93	Low	10.0	Precise	1	29	33	28	5.6	6.0	2.6	33	28	29	6.0	2.6	5.6	1	0.668	0.001	R	29	5.6	343.438	344.041	344.709	344.711	0
2	22110307	94	Low	10.0	Precise	1	27	26	28	5.1	5.8	2.6	28	26	27	2.6	5.8	5.1	2	1.162	0.000	D	26	5.8	345.214	346.323	347.485	347.487	0
2	22110307	95	Low	10.0	Precise	1	29	36	21	5.6	5.7	0.3	29	36	21	5.6	5.7	0.3	1	0.700	0.000	L	29	5.6	347.990	348.849	349.549	349.551	0
2	22110307	96	Low	10.0	Vague	2	36	26	3	5.7	5.8	0.5	36	26	3	5.7	5.8	0.5	2	1.038	0.001	D	26	5.8	350.054	350.976	352.013	352.015	0
2	22110307	97	Low	10.0	Precise	1	26	33	21	5.8	6.0	0.3	21	33	26	0.3	6.0	5.8	1	1.194	0.001	R	26	5.8	352.518	353.763	354.957	354.959	0
2	22110307	98	Low	10.0	Vague	2	26	33	4	5.8	6.0	0.0	26	33	4	5.8	6.0	0.0	1	1.047	0.001	L	26	5.8	355.462	356.550	357.597	357.599	0
2	22110307	99	Low	10.0	Vague	2	27	35	1	5.1	5.4	0.7	35	27	1	5.4	5.1	0.7	2	0.598	0.001	L	35	5.4	358.102	360.815	361.413	361.415	0
2	22110307	100	Low	10.0	Vague	2	36	26	1	5.7	5.8	0.7	26	36	1	5.8	5.7	0.7	1	0.872	0.001	D	36	5.7	361.918	362.693	363.565	363.568	0
2	22110307	101	Low	10.0	Precise	1	27	35	28	5.1	5.4	2.6	28	35	27	2.6	5.4	5.1	2	0.602	0.000	D	35	5.4	364.070	366.379	366.981	366.983	0
2	22110307	102	Low	10.0	Precise	1	29	26	32	5.6	5.8	5.0	26	32	29	5.8	5.0	5.6	1	0.877	0.000	R	29	5.6	367.486	369.472	370.349	370.351	0
2	22110307	103	Low	10.0	Precise	1	35	36	21	5.4	5.7	0.3	21	35	36	0.3	5.4	5.7	1	0.596	0.000	D	35	5.4	370.854	372.145	372.741	372.743	0
2	22110307	104	Low	10.0	Vague	2	35	33	3	5.4	6.0	0.5	35	33	3	5.4	6.0	0.5	1	0.798	0.000	L	35	5.4	373.246	374.255	375.053	375.055	0
2	22110307	105	Low	10.0	Precise	1	35	33	32	5.4	6.0	5.0	35	33	32	5.4	6.0	5.0	1	0.973	0.000	L	35	5.4	375.558	377.983	378.957	378.959	0
2	22110307	106	Low	10.0	Precise	1	26	33	31	5.8	6.0	2.1	33	26	31	6.0	5.8	2.1	1	1.799	0.001	D	26	5.8	379.461	381.686	383.485	383.487	0
2	22110307	107	Low	10.0	Vague	2	35	26	7	5.4	5.8	0.9	26	7	35	5.8	0.9	5.4	1	0.613	0.001	R	35	5.4	383.990	385.256	385.869	385.871	0
2	22110307	108	Low	10.0	Precise	1	27	36	28	5.1	5.7	2.6	36	27	28	5.7	5.1	2.6	2	0.954	0.000	L	36	5.7	386.374	387.563	388.517	388.519	0
2	22110307	109	Low	10.0	Precise	1	27	33	20	5.1	6.0	0.6	33	20	27	6.0	0.6	5.1	1	1.139	0.000	R	27	5.1	389.022	389.666	390.805	390.807	0
2	22110307	110	Low	10.0	Vague	2	29	33	4	5.6	6.0	0.0	4	33	29	0.0	6.0	5.6	1	0.821	0.001	R	29	5.6	391.310	392.664	393.485	393.487	0
2	22110307	111	Low	10.0	Precise	1	35	29	28	5.4	5.6	2.6	35	28	29	5.4	2.6	5.6	1	0.472	0.000	L	35	5.4	393.990	396.285	396.757	396.759	0
2	22110307	112	Low	10.0	Precise	1	36	33	31	5.7	6.0	2.1	33	31	36	6.0	2.1	5.7	1	1.299	0.000	R	36	5.7	397.262	398.074	399.373	399.375	0
2	22110307	113	Low	10.0	Vague	2	27	36	7	5.1	5.7	0.9	27	36	7	5.1	5.7	0.9	1	0.746	0.001	L	27	5.1	399.878	400.659	401.405	401.407	0
2	22110307	114	Low	10.0	Vague	2	27	26	16	5.1	5.8	1.4	26	16	27	5.8	1.4	5.1	1	0.870	0.000	R	27	5.1	401.910	402.759	403.629	403.631	0
2	22110307	115	Low	10.0	Precise	1	35	29	20	5.4	5.6	0.6	20	35	29	0.6	5.4	5.6	1	0.905	0.000	D	35	5.4	404.134	405.756	406.661	406.663	0
2	22110307	116	Low	10.0	Vague	2	35	33	1	5.4	6.0	0.7	1	35	33	0.7	5.4	6.0	1	0.461	0.001	D	35	5.4	407.166	410.072	410.533	410.535	0
2	22110307	117	Low	10.0	Vague	2	35	29	1	5.4	5.6	0.7	35	29	1	5.4	5.6	0.7	1	0.477	0.000	L	35	5.4	411.038	412.160	412.637	412.639	0
2	22110307	118	Low	10.0	Precise	1	27	36	21	5.1	5.7	0.3	36	21	27	5.7	0.3	5.1	2	3.881	0.000	L	36	5.7	413.142	414.948	418.829	418.831	0
2	22110307	119	Low	10.0	Precise	1	27	33	32	5.1	6.0	5.0	33	27	32	6.0	5.1	5.0	1	2.325	0.001	D	27	5.1	419.334	420.952	423.277	423.279	0
2	22110307	120	Low	10.0	Precise	1	36	26	31	5.7	5.8	2.1	31	36	26	2.1	5.7	5.8	2	1.206	0.000	R	26	5.8	423.782	425.151	426.357	426.359	0
2	22110307	121	Low	10.0	Precise	1	29	26	28	5.6	5.8	2.6	26	29	28	5.8	5.6	2.6	1	1.216	0.000	D	29	5.6	433.085	435.021	436.237	436.239	0
2	22110307	122	Low	10.0	Vague	2	35	26	1	5.4	5.8	0.7	1	35	26	0.7	5.4	5.8	1	0.604	0.001	D	35	5.4	436.742	438.425	439.029	439.031	0
2	22110307	123	Low	10.0	Precise	1	35	33	34	5.4	6.0	1.5	35	33	34	5.4	6.0	1.5	1	0.635	0.000	L	35	5.4	439.534	442.185	442.821	442.823	0
2	22110307	124	Low	10.0	Precise	1	27	26	21	5.1	5.8	0.3	27	26	21	5.1	5.8	0.3	2	1.452	0.000	D	26	5.8	443.325	446.105	447.557	447.559	0
2	22110307	125	Low	10.0	Precise	1	36	26	20	5.7	5.8	0.6	20	26	36	0.6	5.8	5.7	2	1.115	0.001	D	26	5.8	448.062	450.930	452.045	452.047	0
2	22110307	126	Low	10.0	Vague	2	35	36	1	5.4	5.7	0.7	1	35	36	0.7	5.4	5.7	1	0.636	0.000	D	35	5.4	452.550	453.873	454.509	454.511	0
2	22110307	127	Low	10.0	Precise	1	27	33	34	5.1	6.0	1.5	27	33	34	5.1	6.0	1.5	1	1.182	0.000	L	27	5.1	455.014	455.910	457.093	457.095	0
2	22110307	128	Low	10.0	Precise	1	35	33	21	5.4	6.0	0.3	35	33	21	5.4	6.0	0.3	1	0.488	0.000	L	35	5.4	457.597	458.636	459.124	459.127	0
2	22110307	129	Low	10.0	Precise	1	29	26	20	5.6	5.8	0.6	26	29	20	5.8	5.6	0.6	1	0.801	0.000	D	29	5.6	459.629	462.020	462.821	462.823	0
2	22110307	130	Low	10.0	Precise	1	36	33	21	5.7	6.0	0.3	21	33	36	0.3	6.0	5.7	1	1.091	0.000	R	36	5.7	463.325	464.298	465.389	465.391	0
2	22110307	131	Low	10.0	Vague	2	29	33	1	5.6	6.0	0.7	29	1	33	5.6	0.7	6.0	1	0.706	0.000	L	29	5.6	465.894	466.794	467.500	467.503	0
2	22110307	132	Low	10.0	Precise	1	35	29	34	5.4	5.6	1.5	29	34	35	5.6	1.5	5.4	1	0.627	0.001	R	35	5.4	468.005	470.770	471.397	471.399	0
2	22110307	133	Low	10.0	Vague	2	29	36	14	5.6	5.7	0.3	36	29	14	5.7	5.6	0.3	1	1.069	0.000	D	29	5.6	471.902	472.416	473.485	473.487	0
2	22110307	134	Low	10.0	Vague	2	36	26	16	5.7	5.8	1.4	16	26	36	1.4	5.8	5.7	1	1.327	0.001	R	36	5.7	473.990	475.806	477.133	477.135	0
2	22110307	135	Low	10.0	Vague	2	29	26	1	5.6	5.8	0.7	29	1	26	5.6	0.7	5.8	1	0.656	0.001	L	29	5.6	477.638	478.532	479.189	479.192	0
2	22110307	136	Low	10.0	Vague	2	29	36	16	5.6	5.7	1.4	16	29	36	1.4	5.6	5.7	1	0.798	0.001	D	29	5.6	479.694	482.367	483.165	483.167	0
2	22110307	137	Low	10.0	Vague	2	35	33	4	5.4	6.0	0.0	4	35	33	0.0	5.4	6.0	1	0.580	0.000	D	35	5.4	483.669	485.088	485.669	485.671	0
2	22110307	138	Low	10.0	Precise	1	35	26	28	5.4	5.8	2.6	28	26	35	2.6	5.8	5.4	1	0.521	0.000	R	35	5.4	486.173	488.564	489.085	489.087	0
2	22110307	139	Low	10.0	Vague	2	27	29	16	5.1	5.6	1.4	27	16	29	5.1	1.4	5.6	2	1.263	0.001	R	29	5.6	489.590	490.206	491.469	491.471	0
2	22110307	140	Low	10.0	Vague	2	27	29	14	5.1	5.6	0.3	27	14	29	5.1	0.3	5.6	2	0.711	0.001	R	29	5.6	491.974	492.678	493.389	493.392	0
2	22110307	141	Low	10.0	Vague	2	35	29	3	5.4	5.6	0.5	29	35	3	5.6	5.4	0.5	1	0.677	0.000	D	35	5.4	493.895	496.304	496.981	496.983	0
2	22110307	142	Low	10.0	Vague	2	27	36	3	5.1	5.7	0.5	3	27	36	0.5	5.1	5.7	2	1.531	0.000	R	36	5.7	497.486	499.498	501.029	501.031	0
2	22110307	143	Low	10.0	Vague	2	35	36	14	5.4	5.7	0.3	36	35	14	5.7	5.4	0.3	1	0.695	0.000	D	35	5.4	501.534	502.878	503.573	503.575	0
2	22110307	144	Low	10.0	Precise	1	27	35	32	5.1	5.4	5.0	27	35	32	5.1	5.4	5.0	2	0.709	0.001	D	35	5.4	504.078	504.976	505.685	505.687	0
2	22110307	145	Low	10.0	Precise	1	29	36	20	5.6	5.7	0.6	29	20	36	5.6	0.6	5.7	1	0.804	0.000	L	29	5.6	506.189	507.561	508.364	508.367	0
2	22110307	146	Low	10.0	Vague	2	36	33	7	5.7	6.0	0.9	36	7	33	5.7	0.9	6.0	1	1.726	0.000	L	36	5.7	508.869	511.750	513.476	513.479	0
2	22110307	147	Low	10.0	Precise	1	27	35	31	5.1	5.4	2.1	31	35	27	2.1	5.4	5.1	2	0.639	0.000	D	35	5.4	513.982	516.230	516.869	516.871	0
2	22110307	148	Low	10.0	Vague	2	27	36	14	5.1	5.7	0.3	36	27	14	5.7	5.1	0.3	2	1.233	0.000	L	36	5.7	517.374	519.923	521.156	521.159	0
2	22110307	149	Low	10.0	Precise	1	27	36	34	5.1	5.7	1.5	27	36	34	5.1	5.7	1.5	2	1.024	0.001	D	36	5.7	521.661	522.469	523.493	523.495	0
2	22110307	150	Low	10.0	Vague	2	35	33	16	5.4	6.0	1.4	16	35	33	1.4	5.4	6.0	1	0.546	0.000	D	35	5.4	523.998	526.546	527.093	527.095	0
2	22110307	151	Low	10.0	Vague	2	27	36	1	5.1	5.7	0.7	1	36	27	0.7	5.7	5.1	2	1.553	0.001	D	36	5.7	527.597	529.308	530.861	530.863	0
2	22110307	152	Low	10.0	Vague	2	27	26	7	5.1	5.8	0.9	27	7	26	5.1	0.9	5.8	1	4.594	0.000	L	27	5.1	531.366	532.426	537.020	537.023	0
2	22110307	153	Low	10.0	Precise	1	27	36	32	5.1	5.7	5.0	36	32	27	5.7	5.0	5.1	2	1.407	0.000	L	36	5.7	537.526	538.750	540.157	540.159	0
2	22110307	154	Low	10.0	Precise	1	27	33	21	5.1	6.0	0.3	21	27	33	0.3	5.1	6.0	1	1.334	0.000	D	27	5.1	540.662	543.638	544.972	544.975	0
2	22110307	155	Low	10.0	Precise	1	29	33	31	5.6	6.0	2.1	31	29	33	2.1	5.6	6.0	1	1.333	0.000	D	29	5.6	545.478	546.384	547.717	547.719	0
2	22110307	156	Low	10.0	Vague	2	36	33	1	5.7	6.0	0.7	33	36	1	6.0	5.7	0.7	1	0.963	0.001	D	36	5.7	548.222	549.850	550.813	550.815	0
2	22110307	157	Low	10.0	Precise	1	35	29	31	5.4	5.6	2.1	35	31	29	5.4	2.1	5.6	1	0.625	0.001	L	35	5.4	551.317	552.524	553.149	553.152	0
2	22110307	158	Low	10.0	Vague	2	36	33	16	5.7	6.0	1.4	16	36	33	1.4	5.7	6.0	1	0.944	0.000	D	36	5.7	553.654	554.820	555.765	555.767	0
2	22110307	159	Low	10.0	Vague	2	29	36	4	5.6	5.7	0.0	36	29	4	5.7	5.6	0.0	2	1.187	0.001	L	36	5.7	556.270	557.322	558.509	558.511	0
2	22110307	160	Low	10.0	Vague	2	35	29	16	5.4	5.6	1.4	29	35	16	5.6	5.4	1.4	1	1.310	0.000	D	35	5.4	559.014	560.799	562.109	562.111	0
2	22110307	161	Low	10.0	Vague	2	27	26	14	5.1	5.8	0.3	14	26	27	0.3	5.8	5.1	2	1.810	0.000	D	26	5.8	562.614	563.499	565.308	565.311	0
2	22110307	162	Low	10.0	Precise	1	35	36	32	5.4	5.7	5.0	35	36	32	5.4	5.7	5.0	1	0.554	0.001	L	35	5.4	565.814	568.426	568.981	568.983	0
2	22110307	163	Low	10.0	Vague	2	36	26	14	5.7	5.8	0.3	36	26	14	5.7	5.8	0.3	1	2.278	0.000	L	36	5.7	569.486	572.422	574.700	574.703	0
2	22110307	164	Low	10.0	Vague	2	29	26	16	5.6	5.8	1.4	26	16	29	5.8	1.4	5.6	1	0.903	0.000	R	29	5.6	575.206	577.629	578.533	578.535	0
2	22110307	165	Low	10.0	Precise	1	29	26	31	5.6	5.8	2.1	26	31	29	5.8	2.1	5.6	1	0.604	0.000	R	29	5.6	579.038	580.841	581.444	581.447	0
2	22110307	166	Low	10.0	Precise	1	27	29	32	5.1	5.6	5.0	29	32	27	5.6	5.0	5.1	2	0.757	0.000	L	29	5.6	581.949	584.696	585.453	585.455	0
2	22110307	167	Low	10.0	Vague	2	35	36	16	5.4	5.7	1.4	16	35	36	1.4	5.4	5.7	1	0.610	0.000	D	35	5.4	585.958	586.578	587.189	587.191	0
2	22110307	168	Low	10.0	Vague	2	27	26	3	5.1	5.8	0.5	3	27	26	0.5	5.1	5.8	1	2.771	0.001	D	27	5.1	587.694	589.602	592.373	592.375	0
2	22110307	169	Low	10.0	Vague	2	26	33	1	5.8	6.0	0.7	1	26	33	0.7	5.8	6.0	1	1.026	0.000	D	26	5.8	592.878	594.467	595.493	595.495	0
2	22110307	170	Low	10.0	Precise	1	36	26	34	5.7	5.8	1.5	36	26	34	5.7	5.8	1.5	1	0.924	0.001	L	36	5.7	595.998	596.520	597.445	597.447	0
2	22110307	171	Low	10.0	Precise	1	36	33	34	5.7	6.0	1.5	36	33	34	5.7	6.0	1.5	1	0.769	0.000	L	36	5.7	597.949	600.451	601.221	601.223	0
2	22110307	172	Low	10.0	Vague	2	27	35	7	5.1	5.4	0.9	27	35	7	5.1	5.4	0.9	2	0.586	0.000	D	35	5.4	601.726	603.163	603.749	603.751	0
2	22110307	173	Low	10.0	Precise	1	27	36	20	5.1	5.7	0.6	20	36	27	0.6	5.7	5.1	2	3.593	0.000	D	36	5.7	604.254	606.676	610.268	610.271	0
2	22110307	174	Low	10.0	Precise	1	29	33	20	5.6	6.0	0.6	20	29	33	0.6	5.6	6.0	1	1.014	0.001	D	29	5.6	610.774	613.631	614.645	614.647	0
2	22110307	175	Low	10.0	Vague	2	29	26	3	5.6	5.8	0.5	26	3	29	5.8	0.5	5.6	1	0.857	0.001	R	29	5.6	615.149	617.268	618.125	618.127	0
2	22110307	176	Low	10.0	Vague	2	35	36	4	5.4	5.7	0.0	35	36	4	5.4	5.7	0.0	1	0.614	0.000	L	35	5.4	618.630	620.670	621.284	621.287	0
2	22110307	177	Low	10.0	Precise	1	27	33	28	5.1	6.0	2.6	28	33	27	2.6	6.0	5.1	1	2.647	0.000	R	27	5.1	621.790	623.773	626.421	626.423	0
2	22110307	178	Low	10.0	Vague	2	29	33	7	5.6	6.0	0.9	29	7	33	5.6	0.9	6.0	1	0.642	0.000	L	29	5.6	626.926	628.090	628.733	628.735	0
2	22110307	179	Low	10.0	Vague	2	27	29	7	5.1	5.6	0.9	7	29	27	0.9	5.6	5.1	2	0.988	0.000	D	29	5.6	629.237	631.121	632.108	632.112	0
2	22110307	180	Low	10.0	Precise	1	35	26	21	5.4	5.8	0.3	21	35	26	0.3	5.4	5.8	1	0.586	0.001	D	35	5.4	632.615	635.275	635.861	635.863	0
2	22110307	181	High	1.5	Vague	2	29	26	8	5.6	5.8	0.8	26	8	29	5.8	0.8	5.6	1	0.787	0.000	R	29	5.6	643.891	646.066	646.853	646.855	0
2	22110307	182	High	1.5	Vague	2	35	36	6	5.4	5.7	0.0	35	6	36	5.4	0.0	5.7	1	0.577	0.000	L	35	5.4	647.358	649.691	650.268	650.271	0
2	22110307	183	High	1.5	Precise	1	36	33	23	5.7	6.0	0.2	33	36	23	6.0	5.7	0.2	1	1.082	0.001	D	36	5.7	650.773	652.131	653.213	653.215	0
2	22110307	184	High	1.5	Vague	2	36	26	10	5.7	5.8	1.3	36	26	10	5.7	5.8	1.3	NaN	NaN	NaN	NaN	NaN	NaN	653.718	654.348	NaN	655.838	1
2	22110307	185	High	1.5	Vague	2	35	36	10	5.4	5.7	1.3	36	35	10	5.7	5.4	1.3	1	0.481	0.000	D	35	5.4	657.842	659.516	659.997	660.000	0
2	22110307	186	High	1.5	Vague	2	29	36	10	5.6	5.7	1.3	10	29	36	1.3	5.6	5.7	1	0.768	0.000	D	29	5.6	660.503	662.541	663.309	663.311	0
2	22110307	187	High	1.5	Vague	2	36	26	9	5.7	5.8	1.5	9	26	36	1.5	5.8	5.7	1	0.919	0.000	R	36	5.7	663.813	666.485	667.404	667.407	0
2	22110307	188	High	1.5	Vague	2	29	33	8	5.6	6.0	0.8	33	8	29	6.0	0.8	5.6	1	0.655	0.000	R	29	5.6	667.910	669.229	669.885	669.887	0
2	22110307	189	High	1.5	Vague	2	35	26	10	5.4	5.8	1.3	26	10	35	5.8	1.3	5.4	1	0.479	0.000	R	35	5.4	670.390	672.334	672.813	672.815	0
2	22110307	190	High	1.5	Precise	1	29	36	25	5.6	5.7	0.6	29	25	36	5.6	0.6	5.7	1	0.991	0.000	L	29	5.6	673.317	676.069	677.060	677.063	0
2	22110307	191	High	1.5	Vague	2	35	26	6	5.4	5.8	0.0	26	6	35	5.8	0.0	5.4	1	0.535	0.000	R	35	5.4	677.565	678.229	678.764	678.767	0
2	22110307	192	High	1.5	Precise	1	36	26	25	5.7	5.8	0.6	36	25	26	5.7	0.6	5.8	1	0.702	0.000	L	36	5.7	679.270	681.822	682.525	682.527	0
2	22110307	193	High	1.5	Precise	1	35	36	22	5.4	5.7	3.9	22	35	36	3.9	5.4	5.7	1	0.541	0.000	D	35	5.4	683.030	683.816	684.357	684.359	0
2	22110307	194	High	1.5	Precise	1	35	26	25	5.4	5.8	0.6	35	26	25	5.4	5.8	0.6	1	0.531	0.001	L	35	5.4	684.862	687.361	687.893	687.895	0
2	22110307	195	High	1.5	Vague	2	35	33	2	5.4	6.0	0.7	2	35	33	0.7	5.4	6.0	1	0.557	0.000	D	35	5.4	688.398	691.360	691.917	691.919	0
2	22110307	196	High	1.5	Precise	1	27	35	19	5.1	5.4	0.3	35	27	19	5.4	5.1	0.3	2	0.587	0.000	L	35	5.4	692.421	694.449	695.037	695.039	0
2	22110307	197	High	1.5	Vague	2	36	26	6	5.7	5.8	0.0	6	26	36	0.0	5.8	5.7	1	0.926	0.000	R	36	5.7	695.542	697.118	698.044	698.047	0
2	22110307	198	High	1.5	Vague	2	26	33	2	5.8	6.0	0.7	26	33	2	5.8	6.0	0.7	1	0.877	0.000	L	26	5.8	698.550	701.072	701.949	701.951	0
2	22110307	199	High	1.5	Vague	2	29	33	10	5.6	6.0	1.3	33	29	10	6.0	5.6	1.3	1	0.798	0.001	D	29	5.6	702.454	705.350	706.149	706.151	0
2	22110307	200	High	1.5	Precise	1	35	29	22	5.4	5.6	3.9	29	35	22	5.6	5.4	3.9	1	0.451	0.000	D	35	5.4	706.654	708.737	709.189	709.191	0
2	22110307	201	High	1.5	Precise	1	27	33	25	5.1	6.0	0.6	33	25	27	6.0	0.6	5.1	1	1.188	0.000	R	27	5.1	709.694	710.217	711.404	711.407	0
2	22110307	202	High	1.5	Vague	2	35	26	8	5.4	5.8	0.8	8	35	26	0.8	5.4	5.8	1	0.558	0.000	D	35	5.4	711.910	712.495	713.053	713.055	0
2	22110307	203	High	1.5	Vague	2	35	26	9	5.4	5.8	1.5	9	35	26	1.5	5.4	5.8	1	0.495	0.000	D	35	5.4	713.558	715.118	715.613	715.615	0
2	22110307	204	High	1.5	Precise	1	27	33	22	5.1	6.0	3.9	27	22	33	5.1	3.9	6.0	1	0.886	0.000	L	27	5.1	716.117	717.142	718.029	718.031	0
2	22110307	205	High	1.5	Precise	1	27	35	30	5.1	5.4	2.1	30	35	27	2.1	5.4	5.1	2	0.580	0.001	D	35	5.4	718.534	721.049	721.629	721.631	0
2	22110307	206	High	1.5	Precise	1	35	36	25	5.4	5.7	0.6	25	36	35	0.6	5.7	5.4	1	0.575	0.000	R	35	5.4	722.133	724.230	724.805	724.807	0
2	22110307	207	High	1.5	Precise	1	27	35	22	5.1	5.4	3.9	35	27	22	5.4	5.1	3.9	2	0.464	0.000	L	35	5.4	725.309	727.933	728.396	728.399	0
2	22110307	208	High	1.5	Precise	1	35	33	30	5.4	6.0	2.1	30	35	33	2.1	5.4	6.0	1	0.481	0.000	D	35	5.4	728.902	731.484	731.965	731.967	0
2	22110307	209	High	1.5	Vague	2	29	36	9	5.6	5.7	1.5	36	9	29	5.7	1.5	5.6	1	0.881	0.001	R	29	5.6	732.469	733.891	734.773	734.775	0
2	22110307	210	High	1.5	Vague	2	27	35	2	5.1	5.4	0.7	2	27	35	0.7	5.1	5.4	2	0.509	0.000	R	35	5.4	735.277	736.872	737.380	737.383	0
2	22110307	211	High	1.5	Precise	1	27	29	22	5.1	5.6	3.9	29	22	27	5.6	3.9	5.1	2	0.796	0.000	L	29	5.6	737.885	740.360	741.156	741.159	0
2	22110307	212	High	1.5	Precise	1	27	36	25	5.1	5.7	0.6	25	36	27	0.6	5.7	5.1	2	0.869	0.001	D	36	5.7	741.662	743.039	743.909	743.911	0
2	22110307	213	High	1.5	Precise	1	35	36	19	5.4	5.7	0.3	36	35	19	5.7	5.4	0.3	1	0.557	0.000	D	35	5.4	744.413	745.319	745.877	745.879	0
2	22110307	214	High	1.5	Vague	2	35	36	9	5.4	5.7	1.5	35	9	36	5.4	1.5	5.7	1	0.473	0.001	L	35	5.4	746.382	747.083	747.557	747.559	0
2	22110307	215	High	1.5	Precise	1	27	36	19	5.1	5.7	0.3	36	27	19	5.7	5.1	0.3	2	0.847	0.000	L	36	5.7	748.062	748.822	749.669	749.671	0
2	22110307	216	High	1.5	Vague	2	27	33	10	5.1	6.0	1.3	27	33	10	5.1	6.0	1.3	1	0.978	0.000	L	27	5.1	750.174	751.099	752.076	752.079	0
2	22110307	217	High	1.5	Precise	1	35	33	22	5.4	6.0	3.9	22	35	33	3.9	5.4	6.0	1	0.521	0.000	D	35	5.4	752.582	754.451	754.972	754.975	0
2	22110307	218	High	1.5	Precise	1	35	29	19	5.4	5.6	0.3	35	29	19	5.4	5.6	0.3	1	0.404	0.000	L	35	5.4	755.478	757.928	758.332	758.335	0
2	22110307	219	High	1.5	Precise	1	35	26	30	5.4	5.8	2.1	35	26	30	5.4	5.8	2.1	1	0.634	0.001	L	35	5.4	758.838	759.643	760.277	760.279	0
2	22110307	220	High	1.5	Vague	2	27	36	9	5.1	5.7	1.5	27	9	36	5.1	1.5	5.7	1	0.813	0.000	L	27	5.1	760.781	763.247	764.060	764.063	0
2	22110307	221	High	1.5	Vague	2	35	33	10	5.4	6.0	1.3	35	10	33	5.4	1.3	6.0	1	0.481	0.001	L	35	5.4	764.566	767.315	767.797	767.799	0
2	22110307	222	High	1.5	Vague	2	35	29	10	5.4	5.6	1.3	35	29	10	5.4	5.6	1.3	1	0.495	0.000	L	35	5.4	768.302	770.709	771.204	771.207	0
2	22110307	223	High	1.5	Vague	2	29	26	2	5.6	5.8	0.7	26	29	2	5.8	5.6	0.7	1	0.841	0.000	D	29	5.6	771.709	774.547	775.388	775.391	0
2	22110307	224	High	1.5	Precise	1	27	26	24	5.1	5.8	2.5	27	26	24	5.1	5.8	2.5	1	0.721	0.000	L	27	5.1	775.894	778.771	779.493	779.495	0
2	22110307	225	High	1.5	Vague	2	27	35	8	5.1	5.4	0.8	8	27	35	0.8	5.1	5.4	2	0.565	0.000	R	35	5.4	779.998	781.575	782.140	782.143	0
2	22110307	226	High	1.5	Precise	1	27	33	19	5.1	6.0	0.3	27	19	33	5.1	0.3	6.0	1	1.143	0.000	L	27	5.1	782.645	784.037	785.180	785.183	0
2	22110307	227	High	1.5	Vague	2	29	26	11	5.6	5.8	0.3	29	26	11	5.6	5.8	0.3	1	0.589	0.000	L	29	5.6	785.686	787.143	787.732	787.735	0
2	22110307	228	High	1.5	Precise	1	27	29	24	5.1	5.6	2.5	24	29	27	2.5	5.6	5.1	2	0.648	0.000	D	29	5.6	788.237	789.045	789.692	789.695	0
2	22110307	229	High	1.5	Vague	2	35	29	6	5.4	5.6	0.0	35	6	29	5.4	0.0	5.6	1	0.563	0.000	L	35	5.4	790.197	793.082	793.645	793.647	0
2	22110307	230	High	1.5	Precise	1	29	36	19	5.6	5.7	0.3	19	29	36	0.3	5.6	5.7	1	0.885	0.000	D	29	5.6	794.149	795.448	796.332	796.335	0
2	22110307	231	High	1.5	Vague	2	29	26	6	5.6	5.8	0.0	26	6	29	5.8	0.0	5.6	1	0.610	0.000	R	29	5.6	796.837	799.651	800.260	800.263	0
2	22110307	232	High	1.5	Precise	1	27	33	23	5.1	6.0	0.2	27	23	33	5.1	0.2	6.0	1	0.726	0.000	L	27	5.1	800.765	803.198	803.924	803.927	0
2	22110307	233	High	1.5	Precise	1	29	33	22	5.6	6.0	3.9	33	29	22	6.0	5.6	3.9	1	0.848	0.000	D	29	5.6	804.429	806.740	807.588	807.591	0
2	22110307	234	High	1.5	Vague	2	29	33	2	5.6	6.0	0.7	33	29	2	6.0	5.6	0.7	1	0.573	0.000	D	29	5.6	808.093	811.000	811.573	811.575	0
2	22110307	235	High	1.5	Precise	1	26	33	24	5.8	6.0	2.5	26	24	33	5.8	2.5	6.0	2	1.170	0.000	R	33	6.0	812.078	812.922	814.092	814.095	0
2	22110307	236	High	1.5	Vague	2	27	29	9	5.1	5.6	1.5	27	29	9	5.1	5.6	1.5	2	0.951	0.001	D	29	5.6	814.597	815.830	816.781	816.783	0
2	22110307	237	High	1.5	Vague	2	35	26	11	5.4	5.8	0.3	35	26	11	5.4	5.8	0.3	1	0.413	0.000	L	35	5.4	817.285	820.151	820.564	820.567	0
2	22110307	238	High	1.5	Precise	1	29	26	24	5.6	5.8	2.5	26	24	29	5.8	2.5	5.6	1	0.618	0.001	R	29	5.6	821.069	824.019	824.637	824.639	0
2	22110307	239	High	1.5	Vague	2	35	29	9	5.4	5.6	1.5	9	29	35	1.5	5.6	5.4	1	0.578	0.000	R	35	5.4	825.141	825.795	826.373	826.375	0
2	22110307	240	High	1.5	Vague	2	27	36	2	5.1	5.7	0.7	36	27	2	5.7	5.1	0.7	2	0.737	0.000	L	36	5.7	826.878	829.587	830.324	830.327	0
2	22110307	241	High	1.5	Precise	1	27	33	24	5.1	6.0	2.5	33	24	27	6.0	2.5	5.1	1	1.082	0.001	R	27	5.1	836.155	838.570	839.652	839.655	0
2	22110307	242	High	1.5	Vague	2	27	35	10	5.1	5.4	1.3	10	35	27	1.3	5.4	5.1	2	0.558	0.000	D	35	5.4	840.158	841.614	842.172	842.175	0
2	22110307	243	High	1.5	Precise	1	35	29	25	5.4	5.6	0.6	29	25	35	5.6	0.6	5.4	1	0.469	0.000	R	35	5.4	842.678	845.383	845.852	845.855	0
2	22110307	244	High	1.5	Precise	1	35	33	25	5.4	6.0	0.6	25	33	35	0.6	6.0	5.4	1	0.540	0.000	R	35	5.4	846.358	847.000	847.540	847.543	0
2	22110307	245	High	1.5	Vague	2	27	29	10	5.1	5.6	1.3	10	27	29	1.3	5.1	5.6	2	0.622	0.000	R	29	5.6	848.045	850.239	850.860	850.863	0
2	22110307	246	High	1.5	Precise	1	29	33	25	5.6	6.0	0.6	25	29	33	0.6	5.6	6.0	1	0.778	0.000	D	29	5.6	851.365	853.674	854.452	854.455	0
2	22110307	247	High	1.5	Precise	1	36	26	23	5.7	5.8	0.2	36	23	26	5.7	0.2	5.8	1	0.960	0.000	L	36	5.7	854.957	856.453	857.412	857.415	0
2	22110307	248	High	1.5	Vague	2	35	33	11	5.4	6.0	0.3	35	11	33	5.4	0.3	6.0	1	0.447	0.000	L	35	5.4	857.918	859.773	860.220	860.223	0
2	22110307	249	High	1.5	Precise	1	35	26	24	5.4	5.8	2.5	26	24	35	5.8	2.5	5.4	1	0.681	0.000	R	35	5.4	860.725	861.499	862.180	862.183	0
2	22110307	250	High	1.5	Vague	2	35	29	11	5.4	5.6	0.3	35	29	11	5.4	5.6	0.3	1	0.457	0.001	L	35	5.4	862.685	864.732	865.189	865.191	0
2	22110307	251	High	1.5	Vague	2	27	35	9	5.1	5.4	1.5	9	27	35	1.5	5.1	5.4	2	0.477	0.001	R	35	5.4	865.693	866.375	866.853	866.855	0
2	22110307	252	High	1.5	Precise	1	26	33	22	5.8	6.0	3.9	22	33	26	3.9	6.0	5.8	3	1.065	0.000	L	22	3.9	867.357	869.452	870.516	870.519	0
2	22110307	253	High	1.5	Precise	1	27	29	30	5.1	5.6	2.1	29	27	30	5.6	5.1	2.1	2	0.786	0.000	L	29	5.6	871.021	872.306	873.092	873.095	0
2	22110307	254	High	1.5	Vague	2	36	33	2	5.7	6.0	0.7	2	36	33	0.7	5.7	6.0	1	1.006	0.000	D	36	5.7	873.598	876.239	877.244	877.247	0
2	22110307	255	High	1.5	Precise	1	29	26	22	5.6	5.8	3.9	26	22	29	5.8	3.9	5.6	1	0.546	0.000	R	29	5.6	877.749	879.578	880.125	880.127	0
2	22110307	256	High	1.5	Vague	2	27	29	11	5.1	5.6	0.3	11	27	29	0.3	5.1	5.6	2	0.584	0.000	R	29	5.6	880.630	881.492	882.076	882.079	0
2	22110307	257	High	1.5	Precise	1	27	35	24	5.1	5.4	2.5	24	27	35	2.5	5.1	5.4	2	0.612	0.000	R	35	5.4	882.581	883.817	884.429	884.431	0
2	22110307	258	High	1.5	Precise	1	27	29	25	5.1	5.6	0.6	25	29	27	0.6	5.6	5.1	2	0.670	0.001	D	29	5.6	884.933	887.255	887.925	887.927	0
2	22110307	259	High	1.5	Precise	1	35	26	19	5.4	5.8	0.3	26	35	19	5.8	5.4	0.3	1	0.713	0.000	D	35	5.4	888.430	889.843	890.556	890.559	0
2	22110307	260	High	1.5	Precise	1	27	36	30	5.1	5.7	2.1	36	30	27	5.7	2.1	5.1	2	0.878	0.000	L	36	5.7	891.061	891.886	892.764	892.767	0
2	22110307	261	High	1.5	Precise	1	29	36	30	5.6	5.7	2.1	36	29	30	5.7	5.6	2.1	1	0.919	0.001	D	29	5.6	893.269	894.534	895.452	895.455	0
2	22110307	262	High	1.5	Vague	2	36	26	2	5.7	5.8	0.7	26	2	36	5.8	0.7	5.7	1	1.031	0.001	R	36	5.7	895.957	897.997	899.028	899.031	0
2	22110307	263	High	1.5	Vague	2	36	26	8	5.7	5.8	0.8	26	36	8	5.8	5.7	0.8	1	0.810	0.001	D	36	5.7	899.534	902.299	903.109	903.111	0
2	22110307	264	High	1.5	Precise	1	29	33	19	5.6	6.0	0.3	33	19	29	6.0	0.3	5.6	1	0.633	0.000	R	29	5.6	903.614	905.475	906.108	906.110	0
2	22110307	265	High	1.5	Precise	1	29	33	24	5.6	6.0	2.5	33	24	29	6.0	2.5	5.6	1	0.600	0.000	R	29	5.6	906.613	908.140	908.740	908.743	0
2	22110307	266	High	1.5	Vague	2	26	33	9	5.8	6.0	1.5	9	33	26	1.5	6.0	5.8	1	1.100	0.000	R	26	5.8	909.245	911.377	912.476	912.479	0
2	22110307	267	High	1.5	Precise	1	35	36	30	5.4	5.7	2.1	30	36	35	2.1	5.7	5.4	1	0.521	0.000	R	35	5.4	912.982	915.691	916.212	916.215	0
2	22110307	268	High	1.5	Precise	1	26	33	30	5.8	6.0	2.1	30	33	26	2.1	6.0	5.8	1	1.225	0.000	R	26	5.8	916.717	918.219	919.444	919.447	0
2	22110307	269	High	1.5	Precise	1	27	36	24	5.1	5.7	2.5	27	24	36	5.1	2.5	5.7	2	0.950	0.001	R	36	5.7	919.949	922.382	923.333	923.335	0
2	22110307	270	High	1.5	Vague	2	35	36	8	5.4	5.7	0.8	35	8	36	5.4	0.8	5.7	1	0.921	0.000	L	35	5.4	923.838	924.372	925.292	925.295	0
2	22110307	271	High	1.5	Vague	2	29	36	6	5.6	5.7	0.0	36	6	29	5.7	0.0	5.6	1	0.625	0.000	R	29	5.6	925.798	927.004	927.628	927.631	0
2	22110307	272	High	1.5	Vague	2	27	33	6	5.1	6.0	0.0	33	6	27	6.0	0.0	5.1	1	0.834	0.000	R	27	5.1	928.133	929.298	930.132	930.134	0
2	22110307	273	High	1.5	Vague	2	29	36	11	5.6	5.7	0.3	29	36	11	5.6	5.7	0.3	1	0.676	0.001	L	29	5.6	930.637	933.073	933.748	933.751	0
2	22110307	274	High	1.5	Precise	1	36	26	22	5.7	5.8	3.9	26	22	36	5.8	3.9	5.7	1	0.908	0.000	R	36	5.7	934.254	935.968	936.876	936.879	0
2	22110307	275	High	1.5	Vague	2	36	33	10	5.7	6.0	1.3	36	10	33	5.7	1.3	6.0	1	0.683	0.000	L	36	5.7	937.381	940.177	940.860	940.863	0
2	22110307	276	High	1.5	Precise	1	29	36	22	5.6	5.7	3.9	29	22	36	5.6	3.9	5.7	1	0.533	0.000	L	29	5.6	941.365	943.111	943.644	943.647	0
2	22110307	277	High	1.5	Vague	2	36	26	11	5.7	5.8	0.3	11	26	36	0.3	5.8	5.7	1	0.847	0.000	R	36	5.7	944.149	946.453	947.300	947.303	0
2	22110307	278	High	1.5	Precise	1	36	33	22	5.7	6.0	3.9	22	33	36	3.9	6.0	5.7	1	0.995	0.000	R	36	5.7	947.805	950.217	951.212	951.215	0
2	22110307	279	High	1.5	Precise	1	29	26	30	5.6	5.8	2.1	26	29	30	5.8	5.6	2.1	1	0.778	0.000	D	29	5.6	951.718	952.258	953.036	953.039	0
2	22110307	280	High	1.5	Vague	2	27	26	6	5.1	5.8	0.0	26	27	6	5.8	5.1	0.0	2	0.809	0.000	L	26	5.8	953.541	954.171	954.980	954.983	0
2	22110307	281	High	1.5	Vague	2	27	33	11	5.1	6.0	0.3	27	11	33	5.1	0.3	6.0	1	1.127	0.000	L	27	5.1	955.485	958.302	959.428	959.431	0
2	22110307	282	High	1.5	Precise	1	35	36	23	5.4	5.7	0.2	36	23	35	5.7	0.2	5.4	1	0.484	0.000	R	35	5.4	959.934	961.536	962.020	962.023	0
2	22110307	283	High	1.5	Precise	1	27	26	23	5.1	5.8	0.2	26	23	27	5.8	0.2	5.1	1	0.873	0.000	R	27	5.1	962.526	963.395	964.268	964.271	0
2	22110307	284	High	1.5	Vague	2	26	33	8	5.8	6.0	0.8	8	26	33	0.8	5.8	6.0	1	0.974	0.001	D	26	5.8	964.774	965.438	966.412	966.415	0
2	22110307	285	High	1.5	Precise	1	35	29	30	5.4	5.6	2.1	30	29	35	2.1	5.6	5.4	1	0.508	0.000	R	35	5.4	966.918	969.664	970.172	970.174	0
2	22110307	286	High	1.5	Vague	2	35	33	8	5.4	6.0	0.8	33	35	8	6.0	5.4	0.8	1	0.662	0.000	D	35	5.4	970.677	972.574	973.236	973.239	0
2	22110307	287	High	1.5	Precise	1	35	29	23	5.4	5.6	0.2	35	23	29	5.4	0.2	5.6	1	0.529	0.001	L	35	5.4	973.742	976.668	977.197	977.199	0
2	22110307	288	High	1.5	Vague	2	29	33	11	5.6	6.0	0.3	29	33	11	5.6	6.0	0.3	1	0.695	0.001	L	29	5.6	977.702	979.054	979.748	979.751	0
2	22110307	289	High	1.5	Precise	1	29	26	19	5.6	5.8	0.3	26	29	19	5.8	5.6	0.3	1	0.690	0.001	D	29	5.6	980.254	982.923	983.612	983.615	0
2	22110307	290	High	1.5	Vague	2	36	33	9	5.7	6.0	1.5	9	36	33	1.5	5.7	6.0	1	1.274	0.000	D	36	5.7	984.117	985.178	986.452	986.455	0
2	22110307	291	High	1.5	Precise	1	35	36	24	5.4	5.7	2.5	36	35	24	5.7	5.4	2.5	1	0.659	0.001	D	35	5.4	986.957	988.473	989.132	989.135	0
2	22110307	292	High	1.5	Vague	2	35	36	2	5.4	5.7	0.7	35	36	2	5.4	5.7	0.7	1	0.487	0.000	L	35	5.4	989.637	992.213	992.700	992.703	0
2	22110307	293	High	1.5	Precise	1	27	29	23	5.1	5.6	0.2	29	27	23	5.6	5.1	0.2	2	0.841	0.000	L	29	5.6	993.205	993.947	994.788	994.790	0
2	22110307	294	High	1.5	Precise	1	29	26	25	5.6	5.8	0.6	29	25	26	5.6	0.6	5.8	1	0.652	0.000	L	29	5.6	995.293	997.840	998.492	998.495	0
2	22110307	295	High	1.5	Vague	2	27	26	8	5.1	5.8	0.8	8	27	26	0.8	5.1	5.8	1	0.960	0.000	D	27	5.1	998.997	1001.988	1002.948	1002.951	0
2	22110307	296	High	1.5	Precise	1	36	26	24	5.7	5.8	2.5	36	26	24	5.7	5.8	2.5	1	0.690	0.000	L	36	5.7	1003.453	1004.458	1005.148	1005.151	0
2	22110307	297	High	1.5	Vague	2	27	35	11	5.1	5.4	0.3	11	27	35	0.3	5.1	5.4	2	0.603	0.000	R	35	5.4	1005.653	1008.577	1009.180	1009.183	0
2	22110307	298	High	1.5	Precise	1	36	26	19	5.7	5.8	0.3	19	36	26	0.3	5.7	5.8	1	1.364	0.000	D	36	5.7	1009.686	1012.232	1013.596	1013.599	0
2	22110307	299	High	1.5	Precise	1	29	26	23	5.6	5.8	0.2	23	26	29	0.2	5.8	5.6	1	1.388	0.001	R	29	5.6	1014.101	1015.385	1016.772	1016.775	0
2	22110307	300	High	1.5	Precise	1	36	33	30	5.7	6.0	2.1	33	30	36	6.0	2.1	5.7	1	0.811	0.001	R	36	5.7	1017.277	1019.602	1020.412	1020.415	0
2	22110307	301	High	1.5	Precise	1	27	36	23	5.1	5.7	0.2	23	27	36	0.2	5.1	5.7	2	0.886	0.001	R	36	5.7	1025.180	1026.399	1027.284	1027.287	0
2	22110307	302	High	1.5	Vague	2	35	29	2	5.4	5.6	0.7	35	2	29	5.4	0.7	5.6	1	0.553	0.001	L	35	5.4	1027.789	1029.043	1029.596	1029.599	0
2	22110307	303	High	1.5	Precise	1	35	26	22	5.4	5.8	3.9	26	35	22	5.8	5.4	3.9	1	0.436	0.000	D	35	5.4	1030.101	1033.008	1033.444	1033.447	0
2	22110307	304	High	1.5	Vague	2	27	33	8	5.1	6.0	0.8	27	33	8	5.1	6.0	0.8	1	0.953	0.000	L	27	5.1	1033.949	1034.563	1035.516	1035.519	0
2	22110307	305	High	1.5	Vague	2	29	33	9	5.6	6.0	1.5	29	9	33	5.6	1.5	6.0	1	0.620	0.000	L	29	5.6	1036.021	1037.344	1037.964	1037.967	0
2	22110307	306	High	1.5	Vague	2	27	26	9	5.1	5.8	1.5	26	9	27	5.8	1.5	5.1	1	1.002	0.000	R	27	5.1	1038.469	1040.650	1041.652	1041.655	0
2	22110307	307	High	1.5	Vague	2	27	33	9	5.1	6.0	1.5	27	33	9	5.1	6.0	1.5	1	0.834	0.000	L	27	5.1	1042.157	1044.027	1044.860	1044.863	0
2	22110307	308	High	1.5	Precise	1	27	33	30	5.1	6.0	2.1	27	30	33	5.1	2.1	6.0	1	0.678	0.001	L	27	5.1	1045.366	1046.446	1047.124	1047.127	0
2	22110307	309	High	1.5	Vague	2	27	36	8	5.1	5.7	0.8	8	36	27	0.8	5.7	5.1	1	1.001	0.000	R	27	5.1	1047.630	1048.955	1049.956	1049.958	0
2	22110307	310	High	1.5	Precise	1	36	33	24	5.7	6.0	2.5	36	33	24	5.7	6.0	2.5	1	1.039	0.000	L	36	5.7	1050.461	1051.629	1052.668	1052.671	0
2	22110307	311	High	1.5	Precise	1	27	26	19	5.1	5.8	0.3	19	26	27	0.3	5.8	5.1	1	0.895	0.000	R	27	5.1	1053.174	1054.141	1055.036	1055.038	0
2	22110307	312	High	1.5	Vague	2	26	33	6	5.8	6.0	0.0	33	26	6	6.0	5.8	0.0	1	1.129	0.001	D	26	5.8	1055.541	1056.219	1057.348	1057.351	0
2	22110307	313	High	1.5	Precise	1	27	29	19	5.1	5.6	0.3	19	27	29	0.3	5.1	5.6	2	0.618	0.000	R	29	5.6	1057.853	1060.146	1060.764	1060.767	0
2	22110307	314	High	1.5	Vague	2	27	36	11	5.1	5.7	0.3	36	11	27	5.7	0.3	5.1	2	1.136	0.000	L	36	5.7	1061.269	1063.748	1064.884	1064.886	0
2	22110307	315	High	1.5	Vague	2	36	33	6	5.7	6.0	0.0	33	6	36	6.0	0.0	5.7	1	0.863	0.001	R	36	5.7	1065.389	1066.493	1067.356	1067.359	0
2	22110307	316	High	1.5	Precise	1	27	26	22	5.1	5.8	3.9	27	22	26	5.1	3.9	5.8	1	1.021	0.001	L	27	5.1	1067.861	1068.879	1069.900	1069.903	0
2	22110307	317	High	1.5	Vague	2	29	26	10	5.6	5.8	1.3	29	10	26	5.6	1.3	5.8	1	0.685	0.001	L	29	5.6	1070.405	1071.175	1071.860	1071.863	0
2	22110307	318	High	1.5	Precise	1	29	36	23	5.6	5.7	0.2	36	29	23	5.7	5.6	0.2	1	1.089	0.001	D	29	5.6	1072.365	1073.484	1074.572	1074.575	0
2	22110307	319	High	1.5	Vague	2	27	26	11	5.1	5.8	0.3	27	11	26	5.1	0.3	5.8	1	1.285	0.000	L	27	5.1	1075.078	1075.927	1077.212	1077.214	0
2	22110307	320	High	1.5	Precise	1	26	33	25	5.8	6.0	0.6	25	33	26	0.6	6.0	5.8	1	1.173	0.000	R	26	5.8	1077.717	1078.399	1079.572	1079.575	0
2	22110307	321	High	1.5	Precise	1	36	33	19	5.7	6.0	0.3	19	33	36	0.3	6.0	5.7	1	1.300	0.001	R	36	5.7	1080.077	1082.529	1083.828	1083.831	0
2	22110307	322	High	1.5	Precise	1	35	33	19	5.4	6.0	0.3	19	33	35	0.3	6.0	5.4	1	0.540	0.000	R	35	5.4	1084.333	1086.808	1087.348	1087.350	0
2	22110307	323	High	1.5	Vague	2	27	29	6	5.1	5.6	0.0	29	27	6	5.6	5.1	0.0	2	0.819	0.000	L	29	5.6	1087.853	1088.625	1089.444	1089.446	0
2	22110307	324	High	1.5	Vague	2	27	26	10	5.1	5.8	1.3	27	10	26	5.1	1.3	5.8	1	0.980	0.000	L	27	5.1	1089.949	1091.192	1092.172	1092.174	0
2	22110307	325	High	1.5	Vague	2	27	29	8	5.1	5.6	0.8	29	8	27	5.6	0.8	5.1	2	0.604	0.000	L	29	5.6	1092.677	1094.888	1095.492	1095.494	0
2	22110307	326	High	1.5	Precise	1	26	33	19	5.8	6.0	0.3	33	19	26	6.0	0.3	5.8	1	1.030	0.001	R	26	5.8	1095.997	1097.190	1098.220	1098.223	0
2	22110307	327	High	1.5	Precise	1	35	33	23	5.4	6.0	0.2	33	35	23	6.0	5.4	0.2	1	0.595	0.001	D	35	5.4	1098.725	1099.897	1100.492	1100.495	0
2	22110307	328	High	1.5	Vague	2	27	33	2	5.1	6.0	0.7	33	27	2	6.0	5.1	0.7	1	0.950	0.000	D	27	5.1	1100.997	1103.462	1104.412	1104.414	0
2	22110307	329	High	1.5	Vague	2	36	33	11	5.7	6.0	0.3	33	36	11	6.0	5.7	0.3	1	0.555	0.000	D	36	5.7	1104.917	1107.337	1107.892	1107.894	0
2	22110307	330	High	1.5	Vague	2	35	29	8	5.4	5.6	0.8	29	35	8	5.6	5.4	0.8	1	0.549	0.000	D	35	5.4	1108.397	1111.183	1111.732	1111.734	0
2	22110307	331	High	1.5	Precise	1	27	26	30	5.1	5.8	2.1	30	26	27	2.1	5.8	5.1	1	1.086	0.000	R	27	5.1	1112.237	1113.126	1114.212	1114.214	0
2	22110307	332	High	1.5	Vague	2	29	26	9	5.6	5.8	1.5	9	29	26	1.5	5.6	5.8	1	0.634	0.000	D	29	5.6	1114.717	1116.490	1117.124	1117.126	0
2	22110307	333	High	1.5	Precise	1	36	33	25	5.7	6.0	0.6	36	33	25	5.7	6.0	0.6	1	0.731	0.001	L	36	5.7	1117.629	1120.081	1120.812	1120.815	0
2	22110307	334	High	1.5	Vague	2	35	33	9	5.4	6.0	1.5	33	35	9	6.0	5.4	1.5	1	0.539	0.000	D	35	5.4	1121.317	1124.161	1124.700	1124.703	0
2	22110307	335	High	1.5	Vague	2	35	36	11	5.4	5.7	0.3	11	35	36	0.3	5.4	5.7	1	0.549	0.000	D	35	5.4	1125.205	1127.112	1127.660	1127.663	0
2	22110307	336	High	1.5	Vague	2	29	36	2	5.6	5.7	0.7	2	29	36	0.7	5.6	5.7	1	0.688	0.000	D	29	5.6	1128.166	1128.860	1129.548	1129.551	0
2	22110307	337	High	1.5	Precise	1	35	33	24	5.4	6.0	2.5	24	33	35	2.5	6.0	5.4	1	0.578	0.000	R	35	5.4	1130.054	1132.234	1132.812	1132.815	0
2	22110307	338	High	1.5	Precise	1	29	36	24	5.6	5.7	2.5	24	36	29	2.5	5.7	5.6	1	0.762	0.000	R	29	5.6	1133.318	1134.378	1135.140	1135.142	0
2	22110307	339	High	1.5	Precise	1	35	26	23	5.4	5.8	0.2	26	23	35	5.8	0.2	5.4	1	0.880	0.000	R	35	5.4	1135.645	1136.540	1137.420	1137.422	0
2	22110307	340	High	1.5	Precise	1	35	29	24	5.4	5.6	2.5	24	29	35	2.5	5.6	5.4	1	0.418	0.001	R	35	5.4	1137.925	1138.914	1139.332	1139.335	0
2	22110307	341	High	1.5	Precise	1	36	26	30	5.7	5.8	2.1	30	36	26	2.1	5.7	5.8	1	0.773	0.000	D	36	5.7	1139.837	1140.551	1141.324	1141.326	0
2	22110307	342	High	1.5	Vague	2	27	26	2	5.1	5.8	0.7	2	27	26	0.7	5.1	5.8	1	0.722	0.001	D	27	5.1	1141.829	1143.610	1144.332	1144.335	0
2	22110307	343	High	1.5	Vague	2	27	36	6	5.1	5.7	0.0	27	36	6	5.1	5.7	0.0	2	0.896	0.000	D	36	5.7	1144.838	1146.597	1147.492	1147.495	0
2	22110307	344	High	1.5	Precise	1	27	26	25	5.1	5.8	0.6	25	26	27	0.6	5.8	5.1	1	0.879	0.000	R	27	5.1	1147.997	1150.813	1151.692	1151.695	0
2	22110307	345	High	1.5	Precise	1	26	33	23	5.8	6.0	0.2	33	23	26	6.0	0.2	5.8	1	0.817	0.000	R	26	5.8	1152.197	1153.867	1154.684	1154.686	0
2	22110307	346	High	1.5	Vague	2	35	33	6	5.4	6.0	0.0	33	35	6	6.0	5.4	0.0	1	0.571	0.000	D	35	5.4	1155.189	1156.873	1157.444	1157.446	0
2	22110307	347	High	1.5	Vague	2	27	36	10	5.1	5.7	1.3	10	27	36	1.3	5.1	5.7	1	1.249	0.000	D	27	5.1	1157.949	1160.396	1161.644	1161.647	0
2	22110307	348	High	1.5	Vague	2	35	26	2	5.4	5.8	0.7	26	35	2	5.8	5.4	0.7	1	0.426	0.001	D	35	5.4	1162.150	1164.306	1164.732	1164.735	0
2	22110307	349	High	1.5	Vague	2	26	33	11	5.8	6.0	0.3	33	26	11	6.0	5.8	0.3	1	1.213	0.000	D	26	5.8	1165.237	1166.263	1167.476	1167.478	0
2	22110307	350	High	1.5	Vague	2	36	33	8	5.7	6.0	0.8	8	36	33	0.8	5.7	6.0	1	0.743	0.000	D	36	5.7	1167.981	1168.645	1169.388	1169.391	0
2	22110307	351	High	1.5	Vague	2	26	33	10	5.8	6.0	1.3	33	26	10	6.0	5.8	1.3	1	0.911	0.001	D	26	5.8	1169.894	1171.925	1172.836	1172.839	0
2	22110307	352	High	1.5	Vague	2	27	29	2	5.1	5.6	0.7	29	2	27	5.6	0.7	5.1	2	0.554	0.000	L	29	5.6	1173.341	1174.234	1174.788	1174.790	0
2	22110307	353	High	1.5	Precise	1	27	36	22	5.1	5.7	3.9	27	22	36	5.1	3.9	5.7	3	0.604	0.000	D	22	3.9	1175.293	1177.544	1178.148	1178.150	0
2	22110307	354	High	1.5	Precise	1	27	35	25	5.1	5.4	0.6	35	25	27	5.4	0.6	5.1	2	0.434	0.000	L	35	5.4	1178.653	1180.106	1180.540	1180.542	0
2	22110307	355	High	1.5	Vague	2	29	33	6	5.6	6.0	0.0	29	6	33	5.6	0.0	6.0	1	0.691	0.001	L	29	5.6	1181.045	1181.865	1182.556	1182.559	0
2	22110307	356	High	1.5	Precise	1	27	35	23	5.1	5.4	0.2	27	23	35	5.1	0.2	5.4	2	0.537	0.000	R	35	5.4	1183.061	1185.114	1185.652	1185.655	0
2	22110307	357	High	1.5	Vague	2	29	36	8	5.6	5.7	0.8	36	8	29	5.7	0.8	5.6	1	0.535	0.000	R	29	5.6	1186.157	1188.757	1189.292	1189.295	0
2	22110307	358	High	1.5	Vague	2	27	35	6	5.1	5.4	0.0	6	27	35	0.0	5.1	5.4	2	0.439	0.000	R	35	5.4	1189.797	1190.973	1191.412	1191.415	0
2	22110307	359	High	1.5	Precise	1	29	33	30	5.6	6.0	2.1	30	33	29	2.1	6.0	5.6	1	0.776	0.000	R	29	5.6	1191.917	1192.436	1193.212	1193.215	0
2	22110307	360	High	1.5	Precise	1	29	33	23	5.6	6.0	0.2	29	23	33	5.6	0.2	6.0	1	0.514	0.000	L	29	5.6	1193.717	1196.482	1196.996	1196.999	0
