Group	subID	trial	TimePressure	TimeConstraint	Vagueness	Vaguenesscode	ID1	ID2	ID3	V1	V2	V3	ID_left	ID_middle	ID_right	Bid_left	Bid_middle	Bid_right	chosenItem	RT	RTvariance	chosenPosition	chosenID	chosenValue	fixation_time	option_time	choice_time	feedback_time	timeout
1	22102407	1	Low	10.0	Vague	2	8	10	28	3.9	11.8	0.0	28	8	10	0.0	3.9	11.8	1	1.531	0.001	D	8	3.9	4.791	5.913	7.444	7.448	0
1	22102407	2	Low	10.0	Precise	1	4	14	2	3.2	10.1	0.0	2	4	14	0.0	3.2	10.1	2	0.993	0.001	R	14	10.1	7.951	9.876	10.868	10.871	0
1	22102407	3	Low	10.0	Precise	1	8	17	12	3.9	12.6	0.0	12	17	8	0.0	12.6	3.9	3	0.895	0.000	L	12	0.0	11.376	13.965	14.860	14.863	0
1	22102407	4	Low	10.0	Precise	1	8	10	16	3.9	11.8	0.0	8	16	10	3.9	0.0	11.8	1	1.179	0.000	L	8	3.9	15.367	18.106	19.284	19.287	0
1	22102407	5	Low	10.0	Precise	1	15	10	2	8.7	11.8	0.0	15	10	2	8.7	11.8	0.0	2	1.393	0.001	D	10	11.8	19.791	21.643	23.036	23.040	0
1	22102407	6	Low	10.0	Precise	1	15	14	3	8.7	10.1	0.0	3	14	15	0.0	10.1	8.7	2	1.525	0.000	D	14	10.1	23.545	25.224	26.748	26.751	0
1	22102407	7	Low	10.0	Vague	2	15	17	24	8.7	12.6	0.0	24	17	15	0.0	12.6	8.7	2	1.035	0.000	D	17	12.6	27.254	28.641	29.676	29.679	0
1	22102407	8	Low	10.0	Vague	2	14	10	20	10.1	11.8	0.0	10	20	14	11.8	0.0	10.1	1	0.768	0.000	R	14	10.1	30.182	31.692	32.460	32.463	0
1	22102407	9	Low	10.0	Precise	1	15	10	9	8.7	11.8	0.0	9	10	15	0.0	11.8	8.7	2	1.123	0.000	D	10	11.8	32.965	33.706	34.828	34.830	0
1	22102407	10	Low	10.0	Precise	1	4	14	16	3.2	10.1	0.0	14	4	16	10.1	3.2	0.0	2	1.118	0.000	L	14	10.1	35.333	37.878	38.996	38.999	0
1	22102407	11	Low	10.0	Precise	1	8	14	2	3.9	10.1	0.0	2	14	8	0.0	10.1	3.9	2	0.575	0.000	D	14	10.1	39.501	42.461	43.036	43.039	0
1	22102407	12	Low	10.0	Vague	2	15	14	24	8.7	10.1	0.0	14	15	24	10.1	8.7	0.0	2	0.645	0.001	L	14	10.1	43.541	46.479	47.124	47.127	0
1	22102407	13	Low	10.0	Vague	2	4	17	24	3.2	12.6	0.0	24	17	4	0.0	12.6	3.2	2	0.931	0.000	D	17	12.6	47.629	48.185	49.116	49.119	0
1	22102407	14	Low	10.0	Precise	1	14	17	12	10.1	12.6	0.0	14	12	17	10.1	0.0	12.6	1	1.371	0.000	L	14	10.1	49.622	51.049	52.420	52.423	0
1	22102407	15	Low	10.0	Precise	1	15	14	12	8.7	10.1	0.0	12	14	15	0.0	10.1	8.7	2	1.373	0.000	D	14	10.1	52.926	54.151	55.524	55.526	0
1	22102407	16	Low	10.0	Precise	1	8	15	6	3.9	8.7	0.0	8	6	15	3.9	0.0	8.7	2	2.120	0.000	R	15	8.7	56.029	58.828	60.948	60.950	0
1	22102407	17	Low	10.0	Vague	2	4	14	36	3.2	10.1	0.0	14	36	4	10.1	0.0	3.2	2	1.375	0.001	L	14	10.1	61.453	63.437	64.812	64.815	0
1	22102407	18	Low	10.0	Vague	2	4	15	36	3.2	8.7	0.0	36	15	4	0.0	8.7	3.2	2	1.141	0.001	D	15	8.7	65.317	68.071	69.212	69.215	0
1	22102407	19	Low	10.0	Precise	1	14	17	16	10.1	12.6	0.0	14	16	17	10.1	0.0	12.6	1	1.445	0.001	L	14	10.1	69.717	70.679	72.124	72.126	0
1	22102407	20	Low	10.0	Vague	2	15	14	36	8.7	10.1	0.0	15	36	14	8.7	0.0	10.1	2	1.148	0.000	R	14	10.1	72.629	73.760	74.908	74.911	0
1	22102407	21	Low	10.0	Precise	1	8	17	9	3.9	12.6	0.0	8	9	17	3.9	0.0	12.6	2	0.785	0.000	R	17	12.6	75.413	77.139	77.924	77.926	0
1	22102407	22	Low	10.0	Precise	1	15	10	12	8.7	11.8	0.0	15	12	10	8.7	0.0	11.8	2	1.209	0.001	R	10	11.8	78.429	81.092	82.300	82.303	0
1	22102407	23	Low	10.0	Precise	1	4	17	3	3.2	12.6	0.0	3	17	4	0.0	12.6	3.2	2	1.121	0.000	D	17	12.6	82.806	84.571	85.692	85.694	0
1	22102407	24	Low	10.0	Vague	2	4	14	20	3.2	10.1	0.0	20	4	14	0.0	3.2	10.1	2	1.147	0.000	R	14	10.1	86.197	88.649	89.796	89.798	0
1	22102407	25	Low	10.0	Vague	2	4	10	33	3.2	11.8	0.0	10	33	4	11.8	0.0	3.2	1	2.204	0.001	R	4	3.2	90.301	92.392	94.596	94.599	0
1	22102407	26	Low	10.0	Precise	1	4	15	12	3.2	8.7	0.0	12	4	15	0.0	3.2	8.7	3	2.562	0.001	L	12	0.0	95.101	96.699	99.260	99.263	0
1	22102407	27	Low	10.0	Vague	2	8	10	20	3.9	11.8	0.0	20	10	8	0.0	11.8	3.9	2	1.372	0.000	D	10	11.8	99.766	100.993	102.364	102.366	0
1	22102407	28	Low	10.0	Precise	1	4	8	3	3.2	3.9	0.0	4	3	8	3.2	0.0	3.9	2	1.712	0.000	R	8	3.9	102.869	104.563	106.276	106.278	0
1	22102407	29	Low	10.0	Precise	1	8	15	2	3.9	8.7	0.0	15	2	8	8.7	0.0	3.9	2	1.995	0.000	L	15	8.7	106.781	107.385	109.380	109.382	0
1	22102407	30	Low	10.0	Precise	1	4	14	6	3.2	10.1	0.0	4	6	14	3.2	0.0	10.1	2	0.986	0.000	R	14	10.1	109.885	112.337	113.324	113.326	0
1	22102407	31	Low	10.0	Vague	2	4	14	22	3.2	10.1	0.0	22	4	14	0.0	3.2	10.1	2	1.037	0.000	R	14	10.1	113.829	114.983	116.020	116.022	0
1	22102407	32	Low	10.0	Vague	2	8	15	24	3.9	8.7	0.0	15	8	24	8.7	3.9	0.0	2	1.453	0.000	L	15	8.7	116.525	118.855	120.308	120.310	0
1	22102407	33	Low	10.0	Precise	1	8	10	2	3.9	11.8	0.0	8	2	10	3.9	0.0	11.8	2	1.086	0.001	R	10	11.8	120.813	121.638	122.724	122.727	0
1	22102407	34	Low	10.0	Precise	1	10	17	3	11.8	12.6	0.0	17	10	3	12.6	11.8	0.0	2	0.963	0.001	L	17	12.6	123.229	124.105	125.068	125.070	0
1	22102407	35	Low	10.0	Precise	1	4	17	2	3.2	12.6	0.0	4	2	17	3.2	0.0	12.6	2	1.091	0.001	R	17	12.6	125.573	126.489	127.580	127.582	0
1	22102407	36	Low	10.0	Vague	2	14	17	36	10.1	12.6	0.0	14	17	36	10.1	12.6	0.0	1	1.363	0.000	L	14	10.1	128.085	130.825	132.188	132.191	0
1	22102407	37	Low	10.0	Vague	2	4	8	20	3.2	3.9	0.0	20	8	4	0.0	3.9	3.2	1	1.937	0.001	R	4	3.2	132.693	133.563	135.500	135.502	0
1	22102407	38	Low	10.0	Vague	2	8	17	20	3.9	12.6	0.0	17	8	20	12.6	3.9	0.0	2	0.841	0.001	L	17	12.6	136.005	137.715	138.556	138.558	0
1	22102407	39	Low	10.0	Precise	1	14	17	6	10.1	12.6	0.0	6	17	14	0.0	12.6	10.1	2	0.969	0.001	D	17	12.6	139.061	141.227	142.196	142.198	0
1	22102407	40	Low	10.0	Precise	1	15	17	2	8.7	12.6	0.0	2	15	17	0.0	8.7	12.6	2	0.910	0.000	R	17	12.6	142.701	144.374	145.284	145.286	0
1	22102407	41	Low	10.0	Vague	2	10	17	33	11.8	12.6	0.0	17	33	10	12.6	0.0	11.8	1	0.811	0.000	R	10	11.8	145.790	147.841	148.652	148.654	0
1	22102407	42	Low	10.0	Vague	2	15	10	22	8.7	11.8	0.0	10	22	15	11.8	0.0	8.7	2	1.355	0.000	L	10	11.8	149.157	151.649	153.004	153.006	0
1	22102407	43	Low	10.0	Precise	1	8	17	16	3.9	12.6	0.0	8	17	16	3.9	12.6	0.0	2	0.746	0.000	D	17	12.6	153.509	155.498	156.244	156.246	0
1	22102407	44	Low	10.0	Vague	2	8	17	36	3.9	12.6	0.0	8	17	36	3.9	12.6	0.0	2	0.946	0.000	D	17	12.6	156.749	158.722	159.668	159.671	0
1	22102407	45	Low	10.0	Vague	2	4	10	20	3.2	11.8	0.0	4	10	20	3.2	11.8	0.0	2	0.808	0.001	D	10	11.8	160.173	161.373	162.180	162.183	0
1	22102407	46	Low	10.0	Precise	1	4	8	9	3.2	3.9	0.0	4	8	9	3.2	3.9	0.0	1	2.391	0.001	L	4	3.2	162.686	164.661	167.052	167.055	0
1	22102407	47	Low	10.0	Precise	1	15	17	3	8.7	12.6	0.0	3	15	17	0.0	8.7	12.6	2	0.907	0.000	R	17	12.6	167.557	170.433	171.340	171.342	0
1	22102407	48	Low	10.0	Precise	1	8	10	9	3.9	11.8	0.0	10	9	8	11.8	0.0	3.9	2	1.771	0.000	L	10	11.8	171.845	172.697	174.468	174.470	0
1	22102407	49	Low	10.0	Vague	2	4	8	36	3.2	3.9	0.0	4	8	36	3.2	3.9	0.0	1	1.509	0.000	L	4	3.2	174.973	177.734	179.244	179.246	0
1	22102407	50	Low	10.0	Vague	2	4	10	24	3.2	11.8	0.0	10	4	24	11.8	3.2	0.0	2	0.850	0.001	L	10	11.8	179.749	181.882	182.732	182.734	0
1	22102407	51	Low	10.0	Precise	1	4	15	2	3.2	8.7	0.0	4	2	15	3.2	0.0	8.7	2	1.428	0.001	R	15	8.7	183.237	184.192	185.620	185.622	0
1	22102407	52	Low	10.0	Precise	1	8	15	16	3.9	8.7	0.0	16	15	8	0.0	8.7	3.9	2	1.414	0.000	D	15	8.7	186.125	187.334	188.748	188.750	0
1	22102407	53	Low	10.0	Precise	1	15	10	16	8.7	11.8	0.0	16	10	15	0.0	11.8	8.7	2	1.567	0.001	D	10	11.8	189.253	190.941	192.508	192.511	0
1	22102407	54	Low	10.0	Vague	2	4	17	20	3.2	12.6	0.0	4	20	17	3.2	0.0	12.6	2	0.729	0.000	R	17	12.6	193.013	193.939	194.668	194.670	0
1	22102407	55	Low	10.0	Precise	1	4	15	16	3.2	8.7	0.0	4	15	16	3.2	8.7	0.0	2	2.201	0.001	D	15	8.7	195.173	196.723	198.924	198.927	0
1	22102407	56	Low	10.0	Vague	2	4	17	36	3.2	12.6	0.0	36	4	17	0.0	3.2	12.6	2	1.506	0.001	R	17	12.6	199.429	201.490	202.996	202.998	0
1	22102407	57	Low	10.0	Precise	1	10	17	9	11.8	12.6	0.0	10	9	17	11.8	0.0	12.6	2	0.689	0.000	R	17	12.6	203.502	205.291	205.980	205.982	0
1	22102407	58	Low	10.0	Precise	1	8	15	9	3.9	8.7	0.0	9	8	15	0.0	3.9	8.7	1	1.673	0.000	D	8	3.9	206.485	208.771	210.444	210.446	0
1	22102407	59	Low	10.0	Vague	2	8	10	24	3.9	11.8	0.0	8	10	24	3.9	11.8	0.0	2	0.832	0.000	D	10	11.8	210.949	212.668	213.500	213.502	0
1	22102407	60	Low	10.0	Precise	1	15	17	6	8.7	12.6	0.0	6	17	15	0.0	12.6	8.7	2	1.723	0.001	D	17	12.6	214.005	214.561	216.284	216.286	0
1	22102407	61	Low	10.0	Precise	1	4	15	3	3.2	8.7	0.0	15	4	3	8.7	3.2	0.0	2	1.460	0.000	L	15	8.7	224.738	226.480	227.940	227.942	0
1	22102407	62	Low	10.0	Precise	1	4	17	6	3.2	12.6	0.0	17	4	6	12.6	3.2	0.0	2	0.993	0.000	L	17	12.6	228.445	230.883	231.876	231.878	0
1	22102407	63	Low	10.0	Vague	2	15	10	33	8.7	11.8	0.0	33	15	10	0.0	8.7	11.8	2	0.873	0.000	R	10	11.8	232.381	234.155	235.028	235.030	0
1	22102407	64	Low	10.0	Precise	1	15	10	3	8.7	11.8	0.0	3	10	15	0.0	11.8	8.7	1	0.824	0.000	R	15	8.7	235.533	237.084	237.908	237.910	0
1	22102407	65	Low	10.0	Vague	2	4	10	22	3.2	11.8	0.0	22	10	4	0.0	11.8	3.2	2	0.758	0.000	D	10	11.8	238.413	240.399	241.156	241.158	0
1	22102407	66	Low	10.0	Vague	2	4	10	28	3.2	11.8	0.0	10	28	4	11.8	0.0	3.2	2	1.224	0.000	L	10	11.8	241.661	242.964	244.187	244.190	0
1	22102407	67	Low	10.0	Vague	2	15	10	20	8.7	11.8	0.0	20	15	10	0.0	8.7	11.8	2	0.712	0.001	R	10	11.8	244.693	245.548	246.260	246.262	0
1	22102407	68	Low	10.0	Vague	2	8	15	33	3.9	8.7	0.0	8	33	15	3.9	0.0	8.7	2	0.771	0.001	R	15	8.7	246.765	249.033	249.804	249.806	0
1	22102407	69	Low	10.0	Precise	1	8	17	3	3.9	12.6	0.0	17	8	3	12.6	3.9	0.0	2	0.744	0.000	L	17	12.6	250.310	252.940	253.684	253.686	0
1	22102407	70	Low	10.0	Vague	2	4	14	28	3.2	10.1	0.0	4	28	14	3.2	0.0	10.1	2	0.692	0.000	R	14	10.1	254.190	256.048	256.740	256.742	0
1	22102407	71	Low	10.0	Vague	2	15	10	36	8.7	11.8	0.0	10	15	36	11.8	8.7	0.0	2	1.042	0.000	L	10	11.8	257.245	259.890	260.932	260.934	0
1	22102407	72	Low	10.0	Vague	2	14	10	24	10.1	11.8	0.0	24	10	14	0.0	11.8	10.1	1	0.729	0.001	R	14	10.1	261.437	263.555	264.284	264.286	0
1	22102407	73	Low	10.0	Vague	2	8	10	33	3.9	11.8	0.0	8	33	10	3.9	0.0	11.8	2	0.666	0.000	R	10	11.8	264.790	266.202	266.868	266.870	0
1	22102407	74	Low	10.0	Vague	2	8	17	24	3.9	12.6	0.0	24	8	17	0.0	3.9	12.6	2	0.827	0.000	R	17	12.6	267.373	269.672	270.500	270.502	0
1	22102407	75	Low	10.0	Vague	2	8	15	36	3.9	8.7	0.0	36	8	15	0.0	3.9	8.7	2	2.040	0.000	R	15	8.7	271.005	272.204	274.244	274.246	0
1	22102407	76	Low	10.0	Vague	2	8	10	22	3.9	11.8	0.0	22	10	8	0.0	11.8	3.9	2	0.981	0.000	D	10	11.8	274.749	276.799	277.780	277.782	0
1	22102407	77	Low	10.0	Precise	1	8	17	6	3.9	12.6	0.0	8	6	17	3.9	0.0	12.6	2	1.545	0.000	R	17	12.6	278.285	279.011	280.556	280.558	0
1	22102407	78	Low	10.0	Precise	1	8	14	16	3.9	10.1	0.0	16	14	8	0.0	10.1	3.9	2	1.781	0.000	D	14	10.1	281.061	281.758	283.540	283.543	0
1	22102407	79	Low	10.0	Vague	2	8	15	28	3.9	8.7	0.0	28	8	15	0.0	3.9	8.7	2	1.617	0.000	R	15	8.7	284.046	286.059	287.676	287.678	0
1	22102407	80	Low	10.0	Precise	1	4	8	2	3.2	3.9	0.0	8	4	2	3.9	3.2	0.0	1	1.563	0.000	D	4	3.2	288.181	289.313	290.876	290.878	0
1	22102407	81	Low	10.0	Vague	2	14	17	24	10.1	12.6	0.0	14	17	24	10.1	12.6	0.0	2	1.189	0.001	D	17	12.6	291.381	294.047	295.236	295.238	0
1	22102407	82	Low	10.0	Vague	2	4	14	33	3.2	10.1	0.0	14	4	33	10.1	3.2	0.0	2	0.866	0.000	L	14	10.1	295.741	298.170	299.036	299.038	0
1	22102407	83	Low	10.0	Vague	2	15	10	24	8.7	11.8	0.0	24	10	15	0.0	11.8	8.7	1	0.906	0.000	R	15	8.7	299.540	300.194	301.100	301.102	0
1	22102407	84	Low	10.0	Precise	1	4	14	9	3.2	10.1	0.0	4	9	14	3.2	0.0	10.1	2	1.305	0.000	R	14	10.1	301.605	303.643	304.948	304.950	0
1	22102407	85	Low	10.0	Vague	2	8	15	20	3.9	8.7	0.0	15	8	20	8.7	3.9	0.0	2	1.138	0.000	L	15	8.7	305.453	308.146	309.284	309.286	0
1	22102407	86	Low	10.0	Vague	2	14	10	22	10.1	11.8	0.0	10	22	14	11.8	0.0	10.1	2	1.123	0.000	L	10	11.8	309.789	312.264	313.388	313.390	0
1	22102407	87	Low	10.0	Precise	1	15	14	16	8.7	10.1	0.0	15	14	16	8.7	10.1	0.0	1	1.155	0.000	L	15	8.7	313.893	315.265	316.420	316.422	0
1	22102407	88	Low	10.0	Vague	2	14	17	28	10.1	12.6	0.0	28	14	17	0.0	10.1	12.6	2	1.139	0.001	R	17	12.6	316.925	318.353	319.492	319.494	0
1	22102407	89	Low	10.0	Vague	2	15	14	28	8.7	10.1	0.0	28	14	15	0.0	10.1	8.7	2	1.244	0.000	D	14	10.1	319.997	321.607	322.852	322.854	0
1	22102407	90	Low	10.0	Vague	2	10	17	24	11.8	12.6	0.0	24	17	10	0.0	12.6	11.8	2	1.458	0.000	D	17	12.6	323.357	326.250	327.708	327.710	0
1	22102407	91	Low	10.0	Precise	1	14	17	2	10.1	12.6	0.0	14	17	2	10.1	12.6	0.0	2	0.630	0.000	D	17	12.6	328.213	329.926	330.556	330.558	0
1	22102407	92	Low	10.0	Precise	1	14	17	3	10.1	12.6	0.0	14	3	17	10.1	0.0	12.6	2	0.845	0.000	R	17	12.6	331.061	333.927	334.772	334.774	0
1	22102407	93	Low	10.0	Precise	1	14	10	12	10.1	11.8	0.0	14	10	12	10.1	11.8	0.0	2	2.387	0.000	D	10	11.8	335.277	338.096	340.484	340.486	0
1	22102407	94	Low	10.0	Precise	1	14	10	3	10.1	11.8	0.0	14	3	10	10.1	0.0	11.8	2	1.280	0.000	R	10	11.8	340.989	342.339	343.620	343.622	0
1	22102407	95	Low	10.0	Precise	1	15	14	6	8.7	10.1	0.0	15	14	6	8.7	10.1	0.0	2	1.287	0.000	D	14	10.1	344.124	345.469	346.756	346.758	0
1	22102407	96	Low	10.0	Vague	2	15	17	36	8.7	12.6	0.0	17	36	15	12.6	0.0	8.7	2	1.248	0.000	L	17	12.6	347.260	350.107	351.355	351.358	0
1	22102407	97	Low	10.0	Precise	1	4	8	16	3.2	3.9	0.0	8	16	4	3.9	0.0	3.2	1	1.642	0.000	R	4	3.2	351.860	354.249	355.892	355.894	0
1	22102407	98	Low	10.0	Precise	1	4	15	6	3.2	8.7	0.0	15	4	6	8.7	3.2	0.0	2	2.013	0.000	L	15	8.7	356.397	359.175	361.188	361.190	0
1	22102407	99	Low	10.0	Precise	1	14	10	2	10.1	11.8	0.0	10	2	14	11.8	0.0	10.1	2	1.074	0.001	L	10	11.8	361.693	364.194	365.268	365.271	0
1	22102407	100	Low	10.0	Precise	1	8	17	2	3.9	12.6	0.0	17	8	2	12.6	3.9	0.0	2	0.967	0.000	L	17	12.6	365.773	366.373	367.340	367.342	0
1	22102407	101	Low	10.0	Vague	2	8	14	33	3.9	10.1	0.0	33	14	8	0.0	10.1	3.9	2	2.176	0.000	D	14	10.1	367.844	369.572	371.748	371.750	0
1	22102407	102	Low	10.0	Vague	2	8	15	22	3.9	8.7	0.0	22	8	15	0.0	3.9	8.7	2	1.730	0.000	R	15	8.7	372.252	373.258	374.988	374.990	0
1	22102407	103	Low	10.0	Vague	2	4	15	22	3.2	8.7	0.0	15	22	4	8.7	0.0	3.2	2	0.956	0.000	L	15	8.7	375.492	377.704	378.660	378.662	0
1	22102407	104	Low	10.0	Precise	1	4	14	3	3.2	10.1	0.0	3	14	4	0.0	10.1	3.2	2	1.127	0.001	D	14	10.1	379.165	380.869	381.996	381.998	0
1	22102407	105	Low	10.0	Precise	1	14	10	6	10.1	11.8	0.0	6	10	14	0.0	11.8	10.1	2	1.333	0.001	D	10	11.8	382.501	384.239	385.572	385.574	0
1	22102407	106	Low	10.0	Precise	1	8	10	3	3.9	11.8	0.0	3	10	8	0.0	11.8	3.9	2	1.254	0.001	D	10	11.8	386.077	387.830	389.084	389.087	0
1	22102407	107	Low	10.0	Precise	1	8	10	12	3.9	11.8	0.0	12	8	10	0.0	3.9	11.8	2	1.238	0.000	R	10	11.8	389.589	392.398	393.636	393.638	0
1	22102407	108	Low	10.0	Vague	2	4	8	33	3.2	3.9	0.0	33	4	8	0.0	3.2	3.9	1	2.057	0.001	D	4	3.2	394.141	394.947	397.004	397.006	0
1	22102407	109	Low	10.0	Precise	1	8	14	3	3.9	10.1	0.0	14	3	8	10.1	0.0	3.9	2	1.260	0.000	L	14	10.1	397.509	398.976	400.236	400.238	0
1	22102407	110	Low	10.0	Vague	2	4	15	20	3.2	8.7	0.0	4	15	20	3.2	8.7	0.0	2	1.007	0.001	D	15	8.7	400.740	402.853	403.860	403.862	0
1	22102407	111	Low	10.0	Vague	2	15	17	28	8.7	12.6	0.0	17	15	28	12.6	8.7	0.0	2	0.667	0.000	L	17	12.6	404.365	407.073	407.740	407.742	0
1	22102407	112	Low	10.0	Vague	2	8	14	20	3.9	10.1	0.0	14	8	20	10.1	3.9	0.0	2	0.676	0.000	L	14	10.1	408.245	409.783	410.459	410.462	0
1	22102407	113	Low	10.0	Vague	2	14	17	22	10.1	12.6	0.0	17	22	14	12.6	0.0	10.1	2	0.888	0.000	L	17	12.6	410.965	413.195	414.084	414.086	0
1	22102407	114	Low	10.0	Vague	2	8	14	28	3.9	10.1	0.0	28	14	8	0.0	10.1	3.9	2	0.739	0.000	D	14	10.1	414.589	416.576	417.316	417.318	0
1	22102407	115	Low	10.0	Vague	2	15	14	20	8.7	10.1	0.0	14	20	15	10.1	0.0	8.7	2	0.603	0.000	L	14	10.1	417.821	418.585	419.188	419.190	0
1	22102407	116	Low	10.0	Vague	2	8	17	22	3.9	12.6	0.0	17	8	22	12.6	3.9	0.0	2	0.634	0.000	L	17	12.6	419.693	420.458	421.091	421.094	0
1	22102407	117	Low	10.0	Precise	1	4	10	6	3.2	11.8	0.0	10	4	6	11.8	3.2	0.0	2	0.820	0.000	L	10	11.8	421.596	423.407	424.227	424.230	0
1	22102407	118	Low	10.0	Vague	2	8	17	33	3.9	12.6	0.0	33	17	8	0.0	12.6	3.9	2	0.858	0.000	D	17	12.6	424.733	426.201	427.060	427.062	0
1	22102407	119	Low	10.0	Precise	1	10	17	2	11.8	12.6	0.0	17	10	2	12.6	11.8	0.0	2	0.615	0.001	L	17	12.6	427.565	429.221	429.836	429.838	0
1	22102407	120	Low	10.0	Vague	2	4	8	28	3.2	3.9	0.0	28	8	4	0.0	3.9	3.2	2	1.742	0.000	D	8	3.9	430.341	433.174	434.916	434.918	0
1	22102407	121	Low	10.0	Precise	1	4	17	12	3.2	12.6	0.0	12	4	17	0.0	3.2	12.6	2	1.614	0.000	R	17	12.6	444.289	446.814	448.428	448.430	0
1	22102407	122	Low	10.0	Precise	1	4	10	2	3.2	11.8	0.0	2	10	4	0.0	11.8	3.2	2	0.974	0.000	D	10	11.8	448.933	451.685	452.660	452.662	0
1	22102407	123	Low	10.0	Precise	1	8	10	6	3.9	11.8	0.0	10	6	8	11.8	0.0	3.9	2	1.179	0.000	L	10	11.8	453.165	455.825	457.004	457.006	0
1	22102407	124	Low	10.0	Precise	1	14	10	16	10.1	11.8	0.0	16	14	10	0.0	10.1	11.8	2	0.842	0.000	R	10	11.8	457.509	459.186	460.028	460.030	0
1	22102407	125	Low	10.0	Precise	1	15	17	16	8.7	12.6	0.0	16	15	17	0.0	8.7	12.6	2	0.797	0.000	R	17	12.6	460.533	463.486	464.283	464.286	0
1	22102407	126	Low	10.0	Precise	1	4	10	3	3.2	11.8	0.0	4	3	10	3.2	0.0	11.8	2	0.751	0.000	R	10	11.8	464.788	465.348	466.099	466.102	0
1	22102407	127	Low	10.0	Precise	1	4	14	12	3.2	10.1	0.0	4	14	12	3.2	10.1	0.0	2	1.478	0.000	D	14	10.1	466.604	467.126	468.604	468.606	0
1	22102407	128	Low	10.0	Precise	1	8	14	9	3.9	10.1	0.0	8	9	14	3.9	0.0	10.1	2	1.134	0.000	R	14	10.1	469.109	471.094	472.228	472.230	0
1	22102407	129	Low	10.0	Vague	2	4	14	24	3.2	10.1	0.0	4	14	24	3.2	10.1	0.0	2	0.991	0.000	D	14	10.1	472.733	474.493	475.484	475.486	0
1	22102407	130	Low	10.0	Vague	2	15	17	22	8.7	12.6	0.0	22	15	17	0.0	8.7	12.6	2	1.104	0.000	R	17	12.6	475.989	478.028	479.131	479.134	0
1	22102407	131	Low	10.0	Vague	2	15	10	28	8.7	11.8	0.0	15	10	28	8.7	11.8	0.0	2	1.156	0.000	D	10	11.8	479.637	481.528	482.684	482.686	0
1	22102407	132	Low	10.0	Vague	2	14	17	33	10.1	12.6	0.0	14	33	17	10.1	0.0	12.6	2	1.298	0.000	R	17	12.6	483.189	483.970	485.268	485.270	0
1	22102407	133	Low	10.0	Precise	1	10	17	6	11.8	12.6	0.0	6	17	10	0.0	12.6	11.8	1	0.679	0.000	R	10	11.8	485.772	486.781	487.460	487.462	0
1	22102407	134	Low	10.0	Vague	2	4	8	24	3.2	3.9	0.0	24	4	8	0.0	3.2	3.9	1	1.179	0.000	D	4	3.2	487.965	489.889	491.067	491.070	0
1	22102407	135	Low	10.0	Vague	2	4	15	28	3.2	8.7	0.0	28	15	4	0.0	8.7	3.2	2	0.890	0.000	D	15	8.7	491.573	494.409	495.300	495.303	0
1	22102407	136	Low	10.0	Precise	1	15	14	2	8.7	10.1	0.0	15	2	14	8.7	0.0	10.1	1	1.252	0.000	L	15	8.7	495.805	496.767	498.019	498.022	0
1	22102407	137	Low	10.0	Precise	1	14	17	9	10.1	12.6	0.0	17	14	9	12.6	10.1	0.0	2	0.980	0.001	L	17	12.6	498.525	500.271	501.252	501.254	0
1	22102407	138	Low	10.0	Vague	2	15	17	33	8.7	12.6	0.0	15	33	17	8.7	0.0	12.6	2	1.192	0.001	R	17	12.6	501.757	502.724	503.916	503.918	0
1	22102407	139	Low	10.0	Precise	1	4	17	16	3.2	12.6	0.0	4	17	16	3.2	12.6	0.0	2	0.908	0.001	D	17	12.6	504.421	507.360	508.268	508.270	0
1	22102407	140	Low	10.0	Vague	2	8	14	24	3.9	10.1	0.0	24	14	8	0.0	10.1	3.9	2	0.859	0.000	D	14	10.1	508.773	510.560	511.420	511.422	0
1	22102407	141	Low	10.0	Vague	2	10	17	36	11.8	12.6	0.0	17	10	36	12.6	11.8	0.0	2	0.863	0.000	L	17	12.6	511.925	513.868	514.731	514.734	0
1	22102407	142	Low	10.0	Precise	1	15	14	9	8.7	10.1	0.0	15	14	9	8.7	10.1	0.0	2	0.889	0.001	D	14	10.1	515.237	517.331	518.220	518.222	0
1	22102407	143	Low	10.0	Vague	2	14	17	20	10.1	12.6	0.0	14	17	20	10.1	12.6	0.0	2	0.882	0.001	D	17	12.6	518.725	520.890	521.772	521.774	0
1	22102407	144	Low	10.0	Precise	1	4	8	6	3.2	3.9	0.0	6	4	8	0.0	3.2	3.9	1	1.424	0.000	D	4	3.2	522.277	523.107	524.531	524.534	0
1	22102407	145	Low	10.0	Precise	1	14	10	9	10.1	11.8	0.0	14	9	10	10.1	0.0	11.8	2	1.080	0.000	R	10	11.8	525.037	527.483	528.564	528.566	0
1	22102407	146	Low	10.0	Precise	1	8	15	12	3.9	8.7	0.0	8	12	15	3.9	0.0	8.7	2	1.328	0.001	R	15	8.7	529.068	531.524	532.852	532.854	0
1	22102407	147	Low	10.0	Vague	2	8	17	28	3.9	12.6	0.0	8	28	17	3.9	0.0	12.6	2	0.726	0.000	R	17	12.6	533.357	534.045	534.771	534.775	0
1	22102407	148	Low	10.0	Precise	1	15	17	9	8.7	12.6	0.0	17	15	9	12.6	8.7	0.0	2	0.805	0.000	L	17	12.6	535.278	536.942	537.747	537.750	0
1	22102407	149	Low	10.0	Vague	2	10	17	20	11.8	12.6	0.0	20	10	17	0.0	11.8	12.6	1	0.190	0.000	D	10	11.8	538.253	539.973	540.164	540.166	0
1	22102407	150	Low	10.0	Vague	2	15	14	22	8.7	10.1	0.0	22	15	14	0.0	8.7	10.1	2	0.711	0.000	R	14	10.1	540.668	542.117	542.828	542.830	0
1	22102407	151	Low	10.0	Vague	2	4	17	28	3.2	12.6	0.0	17	4	28	12.6	3.2	0.0	2	1.001	0.000	L	17	12.6	543.332	545.042	546.044	546.046	0
1	22102407	152	Low	10.0	Precise	1	8	14	6	3.9	10.1	0.0	14	8	6	10.1	3.9	0.0	2	1.493	0.001	L	14	10.1	546.549	547.399	548.892	548.894	0
1	22102407	153	Low	10.0	Vague	2	15	17	20	8.7	12.6	0.0	15	17	20	8.7	12.6	0.0	2	1.146	0.001	D	17	12.6	549.397	551.354	552.500	552.502	0
1	22102407	154	Low	10.0	Vague	2	14	10	28	10.1	11.8	0.0	28	14	10	0.0	10.1	11.8	2	1.082	0.001	R	10	11.8	553.005	555.337	556.420	556.422	0
1	22102407	155	Low	10.0	Vague	2	14	10	33	10.1	11.8	0.0	14	10	33	10.1	11.8	0.0	2	0.998	0.000	D	10	11.8	556.924	557.422	558.420	558.422	0
1	22102407	156	Low	10.0	Precise	1	15	10	6	8.7	11.8	0.0	15	10	6	8.7	11.8	0.0	2	0.929	0.001	D	10	11.8	558.924	560.051	560.980	560.982	0
1	22102407	157	Low	10.0	Precise	1	10	17	12	11.8	12.6	0.0	12	10	17	0.0	11.8	12.6	2	0.723	0.000	R	17	12.6	561.485	563.833	564.556	564.558	0
1	22102407	158	Low	10.0	Precise	1	4	10	16	3.2	11.8	0.0	16	4	10	0.0	3.2	11.8	2	0.996	0.000	R	10	11.8	565.060	567.079	568.076	568.078	0
1	22102407	159	Low	10.0	Vague	2	14	10	36	10.1	11.8	0.0	10	36	14	11.8	0.0	10.1	2	1.165	0.001	L	10	11.8	568.581	571.166	572.332	572.334	0
1	22102407	160	Low	10.0	Vague	2	8	14	22	3.9	10.1	0.0	22	8	14	0.0	3.9	10.1	2	0.840	0.000	R	14	10.1	572.837	573.820	574.659	574.662	0
1	22102407	161	Low	10.0	Precise	1	4	10	12	3.2	11.8	0.0	4	10	12	3.2	11.8	0.0	2	0.957	0.000	D	10	11.8	575.164	577.647	578.604	578.606	0
1	22102407	162	Low	10.0	Vague	2	4	15	24	3.2	8.7	0.0	4	24	15	3.2	0.0	8.7	2	1.159	0.001	R	15	8.7	579.109	581.901	583.060	583.062	0
1	22102407	163	Low	10.0	Vague	2	4	15	33	3.2	8.7	0.0	4	33	15	3.2	0.0	8.7	2	1.025	0.000	R	15	8.7	583.565	584.578	585.603	585.606	0
1	22102407	164	Low	10.0	Precise	1	15	17	12	8.7	12.6	0.0	15	17	12	8.7	12.6	0.0	1	1.234	0.000	L	15	8.7	586.109	586.929	588.163	588.166	0
1	22102407	165	Low	10.0	Vague	2	4	10	36	3.2	11.8	0.0	4	36	10	3.2	0.0	11.8	2	1.685	0.001	R	10	11.8	588.669	591.351	593.036	593.038	0
1	22102407	166	Low	10.0	Vague	2	10	17	22	11.8	12.6	0.0	22	17	10	0.0	12.6	11.8	1	1.054	0.000	R	10	11.8	593.541	594.238	595.292	595.294	0
1	22102407	167	Low	10.0	Vague	2	15	14	33	8.7	10.1	0.0	15	33	14	8.7	0.0	10.1	3	0.933	0.000	D	33	0.0	595.797	596.391	597.324	597.326	0
1	22102407	168	Low	10.0	Vague	2	4	8	22	3.2	3.9	0.0	4	8	22	3.2	3.9	0.0	1	1.364	0.000	L	4	3.2	597.829	599.560	600.923	600.926	0
1	22102407	169	Low	10.0	Vague	2	4	17	22	3.2	12.6	0.0	22	4	17	0.0	3.2	12.6	2	0.741	0.000	R	17	12.6	601.428	604.206	604.947	604.950	0
1	22102407	170	Low	10.0	Vague	2	8	10	36	3.9	11.8	0.0	36	8	10	0.0	3.9	11.8	2	1.242	0.001	R	10	11.8	605.452	606.009	607.252	607.254	0
1	22102407	171	Low	10.0	Vague	2	4	17	33	3.2	12.6	0.0	17	4	33	12.6	3.2	0.0	2	1.080	0.000	L	17	12.6	607.756	610.571	611.651	611.654	0
1	22102407	172	Low	10.0	Precise	1	4	10	9	3.2	11.8	0.0	9	10	4	0.0	11.8	3.2	2	1.200	0.000	D	10	11.8	612.157	613.372	614.572	614.574	0
1	22102407	173	Low	10.0	Precise	1	8	14	12	3.9	10.1	0.0	8	12	14	3.9	0.0	10.1	2	0.812	0.001	R	14	10.1	615.076	615.591	616.404	616.406	0
1	22102407	174	Low	10.0	Precise	1	4	17	9	3.2	12.6	0.0	4	17	9	3.2	12.6	0.0	2	1.085	0.000	D	17	12.6	616.909	619.543	620.628	620.630	0
1	22102407	175	Low	10.0	Vague	2	10	17	28	11.8	12.6	0.0	10	28	17	11.8	0.0	12.6	1	1.287	0.001	L	10	11.8	621.133	623.037	624.324	624.326	0
1	22102407	176	Low	10.0	Precise	1	4	8	12	3.2	3.9	0.0	12	4	8	0.0	3.2	3.9	1	2.996	0.001	D	4	3.2	624.829	627.488	630.484	630.486	0
1	22102407	177	Low	10.0	Precise	1	4	15	9	3.2	8.7	0.0	15	9	4	8.7	0.0	3.2	2	1.364	0.000	L	15	8.7	630.988	632.679	634.043	634.046	0
1	22102407	178	Low	10.0	Precise	1	10	17	16	11.8	12.6	0.0	10	16	17	11.8	0.0	12.6	1	1.125	0.000	L	10	11.8	634.548	636.830	637.955	637.958	0
1	22102407	179	Low	10.0	Precise	1	8	15	3	3.9	8.7	0.0	3	15	8	0.0	8.7	3.9	2	1.834	0.000	D	15	8.7	638.460	640.697	642.532	642.534	0
1	22102407	180	Low	10.0	Vague	2	8	14	36	3.9	10.1	0.0	36	8	14	0.0	3.9	10.1	2	1.435	0.000	R	14	10.1	643.036	644.185	645.619	645.622	0
1	22102407	181	High	1.5	Precise	1	15	10	11	8.7	11.8	0.0	15	11	10	8.7	0.0	11.8	2	0.985	0.000	R	10	11.8	655.986	656.786	657.771	657.774	0
1	22102407	182	High	1.5	Precise	1	15	17	13	8.7	12.6	0.0	13	17	15	0.0	12.6	8.7	1	0.895	0.001	R	15	8.7	658.276	658.844	659.740	659.742	0
1	22102407	183	High	1.5	Vague	2	8	17	19	3.9	12.6	0.0	17	19	8	12.6	0.0	3.9	2	0.703	0.000	L	17	12.6	660.245	661.372	662.075	662.078	0
1	22102407	184	High	1.5	Vague	2	15	14	19	8.7	10.1	0.0	19	14	15	0.0	10.1	8.7	1	0.641	0.001	R	15	8.7	662.580	664.691	665.332	665.334	0
1	22102407	185	High	1.5	Vague	2	14	10	25	10.1	11.8	0.0	25	14	10	0.0	10.1	11.8	2	0.804	0.000	R	10	11.8	665.836	667.399	668.204	668.206	0
1	22102407	186	High	1.5	Vague	2	8	10	19	3.9	11.8	0.0	10	8	19	11.8	3.9	0.0	2	0.806	0.000	L	10	11.8	668.708	670.869	671.675	671.678	0
1	22102407	187	High	1.5	Precise	1	4	10	5	3.2	11.8	0.0	10	5	4	11.8	0.0	3.2	2	0.635	0.000	L	10	11.8	672.180	675.144	675.779	675.782	0
1	22102407	188	High	1.5	Precise	1	4	17	13	3.2	12.6	0.0	17	13	4	12.6	0.0	3.2	2	0.581	0.000	L	17	12.6	676.284	677.518	678.099	678.102	0
1	22102407	189	High	1.5	Vague	2	15	10	25	8.7	11.8	0.0	15	25	10	8.7	0.0	11.8	2	1.031	0.001	R	10	11.8	678.605	680.453	681.483	681.486	0
1	22102407	190	High	1.5	Precise	1	8	10	13	3.9	11.8	0.0	10	8	13	11.8	3.9	0.0	2	0.726	0.000	L	10	11.8	681.988	683.917	684.643	684.646	0
1	22102407	191	High	1.5	Vague	2	4	14	21	3.2	10.1	0.0	4	14	21	3.2	10.1	0.0	2	0.915	0.001	D	14	10.1	685.148	687.289	688.204	688.206	0
1	22102407	192	High	1.5	Precise	1	14	10	18	10.1	11.8	0.0	14	18	10	10.1	0.0	11.8	2	0.889	0.001	R	10	11.8	688.709	690.482	691.371	691.374	0
1	22102407	193	High	1.5	Vague	2	14	17	19	10.1	12.6	0.0	19	17	14	0.0	12.6	10.1	1	0.688	0.001	R	14	10.1	691.877	693.636	694.324	694.326	0
1	22102407	194	High	1.5	Vague	2	8	14	23	3.9	10.1	0.0	23	14	8	0.0	10.1	3.9	2	0.603	0.001	D	14	10.1	694.828	697.080	697.684	697.686	0
1	22102407	195	High	1.5	Precise	1	8	14	7	3.9	10.1	0.0	8	7	14	3.9	0.0	10.1	2	0.636	0.000	R	14	10.1	698.189	700.751	701.387	701.390	0
1	22102407	196	High	1.5	Vague	2	4	17	25	3.2	12.6	0.0	17	25	4	12.6	0.0	3.2	2	0.652	0.000	L	17	12.6	701.892	704.527	705.179	705.182	0
1	22102407	197	High	1.5	Precise	1	4	15	18	3.2	8.7	0.0	18	15	4	0.0	8.7	3.2	2	0.778	0.000	D	15	8.7	705.684	706.529	707.307	707.310	0
1	22102407	198	High	1.5	Vague	2	14	10	19	10.1	11.8	0.0	10	19	14	11.8	0.0	10.1	2	0.947	0.001	L	10	11.8	707.812	710.225	711.171	711.174	0
1	22102407	199	High	1.5	Precise	1	4	14	7	3.2	10.1	0.0	7	4	14	0.0	3.2	10.1	2	0.729	0.000	R	14	10.1	711.677	713.066	713.795	713.798	0
1	22102407	200	High	1.5	Precise	1	4	17	7	3.2	12.6	0.0	7	17	4	0.0	12.6	3.2	2	0.798	0.001	D	17	12.6	714.300	715.998	716.795	716.798	0
1	22102407	201	High	1.5	Precise	1	4	15	7	3.2	8.7	0.0	7	4	15	0.0	3.2	8.7	2	0.891	0.000	R	15	8.7	717.301	718.976	719.867	719.870	0
1	22102407	202	High	1.5	Vague	2	15	10	23	8.7	11.8	0.0	10	15	23	11.8	8.7	0.0	2	0.801	0.000	L	10	11.8	720.372	723.331	724.131	724.134	0
1	22102407	203	High	1.5	Vague	2	8	17	25	3.9	12.6	0.0	17	25	8	12.6	0.0	3.9	2	0.669	0.000	L	17	12.6	724.636	726.799	727.467	727.470	0
1	22102407	204	High	1.5	Precise	1	8	10	7	3.9	11.8	0.0	7	10	8	0.0	11.8	3.9	2	0.841	0.001	D	10	11.8	727.972	729.323	730.163	730.166	0
1	22102407	205	High	1.5	Precise	1	8	17	11	3.9	12.6	0.0	17	11	8	12.6	0.0	3.9	2	0.741	0.000	L	17	12.6	730.668	731.422	732.164	732.166	0
1	22102407	206	High	1.5	Precise	1	10	17	1	11.8	12.6	0.0	17	10	1	12.6	11.8	0.0	1	0.851	0.001	D	10	11.8	732.669	733.361	734.211	734.214	0
1	22102407	207	High	1.5	Precise	1	4	10	13	3.2	11.8	0.0	10	4	13	11.8	3.2	0.0	2	0.935	0.000	L	10	11.8	734.716	735.868	736.803	736.806	0
1	22102407	208	High	1.5	Precise	1	4	14	18	3.2	10.1	0.0	14	4	18	10.1	3.2	0.0	2	0.914	0.001	L	14	10.1	737.308	739.233	740.147	740.150	0
1	22102407	209	High	1.5	Precise	1	8	15	11	3.9	8.7	0.0	11	15	8	0.0	8.7	3.9	2	1.407	0.000	D	15	8.7	740.653	741.581	742.988	742.990	0
1	22102407	210	High	1.5	Vague	2	15	14	21	8.7	10.1	0.0	21	15	14	0.0	8.7	10.1	2	0.859	0.001	R	14	10.1	743.492	745.056	745.915	745.918	0
1	22102407	211	High	1.5	Vague	2	8	15	21	3.9	8.7	0.0	21	8	15	0.0	3.9	8.7	2	0.717	0.001	R	15	8.7	746.420	748.527	749.244	749.246	0
1	22102407	212	High	1.5	Vague	2	4	10	23	3.2	11.8	0.0	4	10	23	3.2	11.8	0.0	2	0.675	0.000	D	10	11.8	749.749	752.313	752.987	752.990	0
1	22102407	213	High	1.5	Precise	1	4	8	7	3.2	3.9	0.0	7	8	4	0.0	3.9	3.2	3	1.211	0.000	L	7	0.0	753.493	755.360	756.571	756.574	0
1	22102407	214	High	1.5	Vague	2	8	17	23	3.9	12.6	0.0	8	17	23	3.9	12.6	0.0	2	0.646	0.000	D	17	12.6	757.077	757.757	758.403	758.406	0
1	22102407	215	High	1.5	Vague	2	4	15	35	3.2	8.7	0.0	4	15	35	3.2	8.7	0.0	2	0.570	0.000	D	15	8.7	758.908	761.081	761.651	761.654	0
1	22102407	216	High	1.5	Vague	2	15	17	31	8.7	12.6	0.0	31	17	15	0.0	12.6	8.7	2	0.591	0.000	D	17	12.6	762.157	763.420	764.011	764.014	0
1	22102407	217	High	1.5	Precise	1	8	15	13	3.9	8.7	0.0	8	15	13	3.9	8.7	0.0	2	1.225	0.000	D	15	8.7	764.517	766.058	767.283	767.286	0
1	22102407	218	High	1.5	Precise	1	14	17	11	10.1	12.6	0.0	17	11	14	12.6	0.0	10.1	2	0.964	0.001	L	17	12.6	767.788	769.423	770.387	770.390	0
1	22102407	219	High	1.5	Precise	1	15	10	7	8.7	11.8	0.0	10	7	15	11.8	0.0	8.7	1	0.925	0.000	R	15	8.7	770.892	773.758	774.683	774.685	0
1	22102407	220	High	1.5	Precise	1	15	17	18	8.7	12.6	0.0	18	17	15	0.0	12.6	8.7	1	0.634	0.001	R	15	8.7	775.188	778.105	778.739	778.742	0
1	22102407	221	High	1.5	Precise	1	14	17	7	10.1	12.6	0.0	7	17	14	0.0	12.6	10.1	2	0.837	0.001	D	17	12.6	779.244	780.214	781.052	781.054	0
1	22102407	222	High	1.5	Vague	2	8	10	35	3.9	11.8	0.0	35	8	10	0.0	3.9	11.8	2	0.804	0.000	R	10	11.8	781.557	783.119	783.923	783.925	0
1	22102407	223	High	1.5	Vague	2	15	10	19	8.7	11.8	0.0	15	10	19	8.7	11.8	0.0	2	0.815	0.001	D	10	11.8	784.428	786.388	787.203	787.206	0
1	22102407	224	High	1.5	Precise	1	15	17	11	8.7	12.6	0.0	15	11	17	8.7	0.0	12.6	2	0.871	0.000	R	17	12.6	787.708	790.364	791.235	791.238	0
1	22102407	225	High	1.5	Precise	1	15	14	18	8.7	10.1	0.0	14	18	15	10.1	0.0	8.7	1	0.844	0.001	R	15	8.7	791.741	794.728	795.571	795.574	0
1	22102407	226	High	1.5	Vague	2	8	15	25	3.9	8.7	0.0	25	15	8	0.0	8.7	3.9	2	0.761	0.000	D	15	8.7	796.077	798.859	799.619	799.622	0
1	22102407	227	High	1.5	Precise	1	8	15	1	3.9	8.7	0.0	8	15	1	3.9	8.7	0.0	2	0.621	0.000	D	15	8.7	800.124	801.558	802.179	802.182	0
1	22102407	228	High	1.5	Precise	1	10	17	11	11.8	12.6	0.0	11	10	17	0.0	11.8	12.6	2	0.646	0.000	R	17	12.6	802.685	803.741	804.387	804.390	0
1	22102407	229	High	1.5	Vague	2	8	17	21	3.9	12.6	0.0	17	8	21	12.6	3.9	0.0	2	0.970	0.001	L	17	12.6	804.892	807.386	808.355	808.358	0
1	22102407	230	High	1.5	Vague	2	15	14	35	8.7	10.1	0.0	35	14	15	0.0	10.1	8.7	2	0.537	0.000	D	14	10.1	808.860	810.947	811.483	811.486	0
1	22102407	231	High	1.5	Vague	2	15	10	31	8.7	11.8	0.0	15	31	10	8.7	0.0	11.8	2	0.678	0.000	R	10	11.8	811.988	814.253	814.931	814.934	0
1	22102407	232	High	1.5	Precise	1	4	8	18	3.2	3.9	0.0	4	18	8	3.2	0.0	3.9	1	0.628	0.000	L	4	3.2	815.436	818.104	818.731	818.734	0
1	22102407	233	High	1.5	Precise	1	4	14	1	3.2	10.1	0.0	4	14	1	3.2	10.1	0.0	2	0.818	0.000	D	14	10.1	819.236	820.089	820.907	820.910	0
1	22102407	234	High	1.5	Vague	2	4	10	21	3.2	11.8	0.0	21	4	10	0.0	3.2	11.8	2	0.630	0.000	R	10	11.8	821.412	823.341	823.971	823.974	0
1	22102407	235	High	1.5	Precise	1	15	17	1	8.7	12.6	0.0	17	15	1	12.6	8.7	0.0	2	0.680	0.000	L	17	12.6	824.476	825.348	826.027	826.030	0
1	22102407	236	High	1.5	Precise	1	14	10	11	10.1	11.8	0.0	10	11	14	11.8	0.0	10.1	2	0.900	0.000	L	10	11.8	826.533	828.863	829.763	829.765	0
1	22102407	237	High	1.5	Vague	2	15	10	21	8.7	11.8	0.0	15	10	21	8.7	11.8	0.0	2	1.071	0.000	D	10	11.8	830.268	832.749	833.819	833.822	0
1	22102407	238	High	1.5	Vague	2	15	14	25	8.7	10.1	0.0	14	15	25	10.1	8.7	0.0	1	1.147	0.001	D	15	8.7	834.324	835.208	836.355	836.358	0
1	22102407	239	High	1.5	Vague	2	8	14	31	3.9	10.1	0.0	31	14	8	0.0	10.1	3.9	2	0.684	0.001	D	14	10.1	836.860	838.384	839.067	839.070	0
1	22102407	240	High	1.5	Vague	2	4	10	31	3.2	11.8	0.0	4	31	10	3.2	0.0	11.8	2	0.842	0.000	R	10	11.8	839.572	841.025	841.867	841.870	0
1	22102407	241	High	1.5	Precise	1	15	10	1	8.7	11.8	0.0	1	15	10	0.0	8.7	11.8	2	0.843	0.000	R	10	11.8	847.903	849.640	850.483	850.485	0
1	22102407	242	High	1.5	Vague	2	15	17	35	8.7	12.6	0.0	15	17	35	8.7	12.6	0.0	2	0.882	0.001	D	17	12.6	850.988	853.106	853.988	853.990	0
1	22102407	243	High	1.5	Vague	2	15	17	21	8.7	12.6	0.0	15	17	21	8.7	12.6	0.0	2	0.884	0.000	D	17	12.6	854.492	855.207	856.091	856.094	0
1	22102407	244	High	1.5	Vague	2	8	10	23	3.9	11.8	0.0	8	23	10	3.9	0.0	11.8	2	0.654	0.000	R	10	11.8	856.597	857.533	858.187	858.189	0
1	22102407	245	High	1.5	Vague	2	14	17	35	10.1	12.6	0.0	14	35	17	10.1	0.0	12.6	2	0.741	0.000	R	17	12.6	858.692	861.622	862.363	862.366	0
1	22102407	246	High	1.5	Vague	2	10	17	25	11.8	12.6	0.0	17	10	25	12.6	11.8	0.0	1	0.658	0.001	D	10	11.8	862.869	863.913	864.571	864.574	0
1	22102407	247	High	1.5	Vague	2	4	17	23	3.2	12.6	0.0	4	23	17	3.2	0.0	12.6	2	0.640	0.000	R	17	12.6	865.077	866.387	867.027	867.030	0
1	22102407	248	High	1.5	Vague	2	4	8	25	3.2	3.9	0.0	25	4	8	0.0	3.2	3.9	NaN	NaN	NaN	NaN	NaN	NaN	867.532	868.728	NaN	870.219	1
1	22102407	249	High	1.5	Vague	2	15	10	35	8.7	11.8	0.0	35	10	15	0.0	11.8	8.7	2	0.919	0.000	D	10	11.8	872.223	873.292	874.211	874.215	0
1	22102407	250	High	1.5	Vague	2	4	15	25	3.2	8.7	0.0	4	25	15	3.2	0.0	8.7	2	1.395	0.000	R	15	8.7	874.718	875.840	877.235	877.238	0
1	22102407	251	High	1.5	Vague	2	4	14	19	3.2	10.1	0.0	4	19	14	3.2	0.0	10.1	2	1.266	0.000	R	14	10.1	877.740	879.521	880.787	880.790	0
1	22102407	252	High	1.5	Vague	2	15	17	25	8.7	12.6	0.0	25	17	15	0.0	12.6	8.7	2	0.882	0.000	D	17	12.6	881.293	882.969	883.851	883.854	0
1	22102407	253	High	1.5	Vague	2	8	14	25	3.9	10.1	0.0	14	8	25	10.1	3.9	0.0	2	1.029	0.000	L	14	10.1	884.356	886.414	887.443	887.446	0
1	22102407	254	High	1.5	Vague	2	10	17	21	11.8	12.6	0.0	10	17	21	11.8	12.6	0.0	1	0.775	0.000	L	10	11.8	887.949	890.260	891.035	891.038	0
1	22102407	255	High	1.5	Precise	1	14	10	13	10.1	11.8	0.0	10	14	13	11.8	10.1	0.0	2	0.729	0.000	L	10	11.8	891.540	894.026	894.755	894.757	0
1	22102407	256	High	1.5	Vague	2	4	15	23	3.2	8.7	0.0	23	15	4	0.0	8.7	3.2	2	0.844	0.000	D	15	8.7	895.260	897.167	898.011	898.014	0
1	22102407	257	High	1.5	Vague	2	4	17	21	3.2	12.6	0.0	17	21	4	12.6	0.0	3.2	2	0.638	0.000	L	17	12.6	898.516	899.397	900.035	900.038	0
1	22102407	258	High	1.5	Precise	1	14	10	5	10.1	11.8	0.0	14	5	10	10.1	0.0	11.8	2	0.999	0.000	R	10	11.8	900.540	903.340	904.339	904.342	0
1	22102407	259	High	1.5	Precise	1	15	17	7	8.7	12.6	0.0	15	17	7	8.7	12.6	0.0	2	0.619	0.000	D	17	12.6	904.845	907.040	907.659	907.661	0
1	22102407	260	High	1.5	Precise	1	4	15	13	3.2	8.7	0.0	4	13	15	3.2	0.0	8.7	2	0.871	0.001	R	15	8.7	908.165	909.180	910.051	910.054	0
1	22102407	261	High	1.5	Vague	2	4	10	35	3.2	11.8	0.0	4	10	35	3.2	11.8	0.0	2	0.565	0.000	D	10	11.8	910.556	911.558	912.123	912.126	0
1	22102407	262	High	1.5	Precise	1	8	14	1	3.9	10.1	0.0	1	8	14	0.0	3.9	10.1	2	0.714	0.000	R	14	10.1	912.628	913.345	914.059	914.061	0
1	22102407	263	High	1.5	Precise	1	4	17	5	3.2	12.6	0.0	17	4	5	12.6	3.2	0.0	1	0.669	0.000	D	4	3.2	914.564	915.151	915.819	915.822	0
1	22102407	264	High	1.5	Precise	1	10	17	13	11.8	12.6	0.0	17	13	10	12.6	0.0	11.8	2	0.502	0.000	L	17	12.6	916.325	919.149	919.651	919.653	0
1	22102407	265	High	1.5	Vague	2	4	8	19	3.2	3.9	0.0	4	19	8	3.2	0.0	3.9	1	1.285	0.001	L	4	3.2	920.156	923.062	924.347	924.350	0
1	22102407	266	High	1.5	Vague	2	8	15	31	3.9	8.7	0.0	8	31	15	3.9	0.0	8.7	2	0.785	0.000	R	15	8.7	924.852	926.282	927.067	927.069	0
1	22102407	267	High	1.5	Vague	2	4	8	31	3.2	3.9	0.0	8	31	4	3.9	0.0	3.2	NaN	NaN	NaN	NaN	NaN	NaN	927.572	930.129	NaN	931.615	1
1	22102407	268	High	1.5	Precise	1	15	14	11	8.7	10.1	0.0	14	11	15	10.1	0.0	8.7	2	0.817	0.000	L	14	10.1	933.618	934.562	935.379	935.382	0
1	22102407	269	High	1.5	Precise	1	15	10	5	8.7	11.8	0.0	10	15	5	11.8	8.7	0.0	2	0.951	0.000	L	10	11.8	935.884	936.987	937.939	937.941	0
1	22102407	270	High	1.5	Vague	2	10	17	31	11.8	12.6	0.0	10	31	17	11.8	0.0	12.6	2	0.789	0.000	R	17	12.6	938.444	940.918	941.707	941.709	0
1	22102407	271	High	1.5	Precise	1	8	17	13	3.9	12.6	0.0	13	17	8	0.0	12.6	3.9	2	0.876	0.000	D	17	12.6	942.212	944.608	945.483	945.486	0
1	22102407	272	High	1.5	Precise	1	4	14	5	3.2	10.1	0.0	4	5	14	3.2	0.0	10.1	2	0.653	0.001	R	14	10.1	945.988	947.359	948.011	948.014	0
1	22102407	273	High	1.5	Precise	1	15	14	13	8.7	10.1	0.0	13	15	14	0.0	8.7	10.1	2	1.041	0.000	R	14	10.1	948.516	949.234	950.275	950.277	0
1	22102407	274	High	1.5	Precise	1	14	17	13	10.1	12.6	0.0	14	13	17	10.1	0.0	12.6	2	0.660	0.000	R	17	12.6	950.780	953.319	953.979	953.981	0
1	22102407	275	High	1.5	Precise	1	4	15	11	3.2	8.7	0.0	15	11	4	8.7	0.0	3.2	2	1.262	0.000	L	15	8.7	954.484	956.646	957.907	957.910	0
1	22102407	276	High	1.5	Precise	1	4	8	11	3.2	3.9	0.0	8	11	4	3.9	0.0	3.2	1	0.828	0.000	R	4	3.2	958.412	960.175	961.003	961.005	0
1	22102407	277	High	1.5	Vague	2	4	14	35	3.2	10.1	0.0	14	4	35	10.1	3.2	0.0	1	1.022	0.001	D	4	3.2	961.508	962.917	963.939	963.942	0
1	22102407	278	High	1.5	Precise	1	10	17	18	11.8	12.6	0.0	18	10	17	0.0	11.8	12.6	2	0.638	0.001	R	17	12.6	964.444	966.797	967.435	967.438	0
1	22102407	279	High	1.5	Precise	1	10	17	5	11.8	12.6	0.0	17	5	10	12.6	0.0	11.8	1	1.151	0.000	R	10	11.8	967.940	968.700	969.851	969.854	0
1	22102407	280	High	1.5	Precise	1	15	10	13	8.7	11.8	0.0	15	13	10	8.7	0.0	11.8	2	0.558	0.000	R	10	11.8	970.356	972.013	972.571	972.573	0
1	22102407	281	High	1.5	Precise	1	4	14	13	3.2	10.1	0.0	14	4	13	10.1	3.2	0.0	1	0.891	0.000	D	4	3.2	973.076	975.896	976.787	976.790	0
1	22102407	282	High	1.5	Precise	1	14	17	18	10.1	12.6	0.0	14	18	17	10.1	0.0	12.6	2	0.667	0.001	R	17	12.6	977.293	979.928	980.595	980.598	0
1	22102407	283	High	1.5	Vague	2	8	14	19	3.9	10.1	0.0	19	14	8	0.0	10.1	3.9	2	1.220	0.001	D	14	10.1	981.100	981.744	982.963	982.966	0
1	22102407	284	High	1.5	Vague	2	8	10	21	3.9	11.8	0.0	10	21	8	11.8	0.0	3.9	2	0.980	0.001	L	10	11.8	983.468	984.383	985.363	985.366	0
1	22102407	285	High	1.5	Precise	1	8	14	13	3.9	10.1	0.0	8	13	14	3.9	0.0	10.1	2	0.721	0.001	R	14	10.1	985.869	987.162	987.883	987.886	0
1	22102407	286	High	1.5	Precise	1	14	17	1	10.1	12.6	0.0	14	1	17	10.1	0.0	12.6	2	0.814	0.001	R	17	12.6	988.388	991.093	991.907	991.910	0
1	22102407	287	High	1.5	Precise	1	15	10	18	8.7	11.8	0.0	10	18	15	11.8	0.0	8.7	1	1.433	0.000	R	15	8.7	992.412	994.330	995.763	995.765	0
1	22102407	288	High	1.5	Precise	1	8	17	5	3.9	12.6	0.0	5	17	8	0.0	12.6	3.9	2	0.834	0.000	D	17	12.6	996.268	998.442	999.275	999.278	0
1	22102407	289	High	1.5	Precise	1	4	8	5	3.2	3.9	0.0	5	8	4	0.0	3.9	3.2	3	0.569	0.000	L	5	0.0	999.780	1000.714	1001.283	1001.286	0
1	22102407	290	High	1.5	Vague	2	4	14	31	3.2	10.1	0.0	31	14	4	0.0	10.1	3.2	2	1.004	0.000	D	14	10.1	1001.788	1003.662	1004.667	1004.669	0
1	22102407	291	High	1.5	Vague	2	8	17	35	3.9	12.6	0.0	8	35	17	3.9	0.0	12.6	2	0.648	0.000	R	17	12.6	1005.172	1006.027	1006.675	1006.677	0
1	22102407	292	High	1.5	Precise	1	4	15	1	3.2	8.7	0.0	1	15	4	0.0	8.7	3.2	2	0.762	0.000	D	15	8.7	1007.180	1009.993	1010.755	1010.757	0
1	22102407	293	High	1.5	Precise	1	15	14	1	8.7	10.1	0.0	1	15	14	0.0	8.7	10.1	1	0.634	0.001	D	15	8.7	1011.260	1012.345	1012.979	1012.982	0
1	22102407	294	High	1.5	Vague	2	8	14	35	3.9	10.1	0.0	35	14	8	0.0	10.1	3.9	2	0.805	0.001	D	14	10.1	1013.484	1014.118	1014.923	1014.926	0
1	22102407	295	High	1.5	Precise	1	10	17	7	11.8	12.6	0.0	7	10	17	0.0	11.8	12.6	1	0.672	0.001	D	10	11.8	1015.429	1017.291	1017.963	1017.966	0
1	22102407	296	High	1.5	Vague	2	8	15	23	3.9	8.7	0.0	15	23	8	8.7	0.0	3.9	2	1.106	0.000	L	15	8.7	1018.468	1020.313	1021.419	1021.421	0
1	22102407	297	High	1.5	Vague	2	4	17	19	3.2	12.6	0.0	19	4	17	0.0	3.2	12.6	2	0.755	0.000	R	17	12.6	1021.924	1024.473	1025.227	1025.230	0
1	22102407	298	High	1.5	Vague	2	15	14	23	8.7	10.1	0.0	15	23	14	8.7	0.0	10.1	2	0.685	0.000	R	14	10.1	1025.732	1026.502	1027.187	1027.189	0
1	22102407	299	High	1.5	Precise	1	4	17	1	3.2	12.6	0.0	4	1	17	3.2	0.0	12.6	2	0.577	0.000	R	17	12.6	1027.693	1029.010	1029.587	1029.590	0
1	22102407	300	High	1.5	Vague	2	4	14	23	3.2	10.1	0.0	4	14	23	3.2	10.1	0.0	2	0.936	0.000	D	14	10.1	1030.092	1031.530	1032.467	1032.469	0
1	22102407	301	High	1.5	Vague	2	4	15	31	3.2	8.7	0.0	15	31	4	8.7	0.0	3.2	2	1.154	0.000	L	15	8.7	1042.173	1045.113	1046.267	1046.270	0
1	22102407	302	High	1.5	Vague	2	4	15	19	3.2	8.7	0.0	15	4	19	8.7	3.2	0.0	2	0.927	0.000	L	15	8.7	1046.773	1048.524	1049.451	1049.453	0
1	22102407	303	High	1.5	Precise	1	8	10	5	3.9	11.8	0.0	8	5	10	3.9	0.0	11.8	2	0.699	0.000	R	10	11.8	1049.956	1051.496	1052.195	1052.198	0
1	22102407	304	High	1.5	Vague	2	14	17	23	10.1	12.6	0.0	14	17	23	10.1	12.6	0.0	2	0.757	0.000	D	17	12.6	1052.700	1054.639	1055.395	1055.398	0
1	22102407	305	High	1.5	Precise	1	4	10	1	3.2	11.8	0.0	4	1	10	3.2	0.0	11.8	2	1.114	0.000	R	10	11.8	1055.901	1057.569	1058.683	1058.685	0
1	22102407	306	High	1.5	Precise	1	15	14	7	8.7	10.1	0.0	15	14	7	8.7	10.1	0.0	NaN	NaN	NaN	NaN	NaN	NaN	1059.188	1061.711	NaN	1063.200	1
1	22102407	307	High	1.5	Precise	1	15	17	5	8.7	12.6	0.0	5	17	15	0.0	12.6	8.7	1	0.797	0.001	R	15	8.7	1065.203	1066.622	1067.419	1067.422	0
1	22102407	308	High	1.5	Precise	1	14	10	1	10.1	11.8	0.0	1	10	14	0.0	11.8	10.1	2	0.747	0.000	D	10	11.8	1067.925	1069.472	1070.219	1070.221	0
1	22102407	309	High	1.5	Vague	2	15	17	23	8.7	12.6	0.0	17	15	23	12.6	8.7	0.0	2	0.654	0.001	L	17	12.6	1070.725	1072.253	1072.907	1072.910	0
1	22102407	310	High	1.5	Vague	2	10	17	19	11.8	12.6	0.0	10	17	19	11.8	12.6	0.0	1	0.987	0.000	L	10	11.8	1073.412	1074.040	1075.027	1075.029	0
1	22102407	311	High	1.5	Precise	1	8	10	1	3.9	11.8	0.0	10	1	8	11.8	0.0	3.9	2	0.622	0.000	L	10	11.8	1075.533	1076.309	1076.931	1076.934	0
1	22102407	312	High	1.5	Precise	1	4	10	18	3.2	11.8	0.0	10	18	4	11.8	0.0	3.2	2	0.618	0.000	L	10	11.8	1077.436	1079.289	1079.907	1079.909	0
1	22102407	313	High	1.5	Vague	2	14	10	23	10.1	11.8	0.0	14	23	10	10.1	0.0	11.8	2	0.785	0.001	R	10	11.8	1080.412	1082.898	1083.683	1083.685	0
1	22102407	314	High	1.5	Vague	2	8	15	35	3.9	8.7	0.0	8	15	35	3.9	8.7	0.0	2	0.768	0.000	D	15	8.7	1084.189	1085.555	1086.323	1086.325	0
1	22102407	315	High	1.5	Precise	1	4	10	11	3.2	11.8	0.0	10	11	4	11.8	0.0	3.2	2	0.733	0.000	L	10	11.8	1086.828	1088.630	1089.363	1089.365	0
1	22102407	316	High	1.5	Vague	2	8	14	21	3.9	10.1	0.0	21	8	14	0.0	3.9	10.1	2	0.883	0.000	R	14	10.1	1089.867	1091.128	1092.011	1092.014	0
1	22102407	317	High	1.5	Vague	2	8	10	25	3.9	11.8	0.0	10	25	8	11.8	0.0	3.9	2	0.763	0.000	L	10	11.8	1092.516	1095.007	1095.771	1095.773	0
1	22102407	318	High	1.5	Precise	1	4	17	18	3.2	12.6	0.0	17	4	18	12.6	3.2	0.0	2	0.766	0.000	L	17	12.6	1096.276	1099.189	1099.955	1099.958	0
1	22102407	319	High	1.5	Vague	2	15	14	31	8.7	10.1	0.0	15	14	31	8.7	10.1	0.0	1	0.807	0.001	L	15	8.7	1100.461	1103.036	1103.843	1103.846	0
1	22102407	320	High	1.5	Precise	1	14	17	5	10.1	12.6	0.0	14	5	17	10.1	0.0	12.6	2	0.673	0.000	R	17	12.6	1104.349	1105.098	1105.771	1105.773	0
1	22102407	321	High	1.5	Vague	2	10	17	35	11.8	12.6	0.0	10	17	35	11.8	12.6	0.0	1	1.176	0.001	L	10	11.8	1106.276	1107.316	1108.491	1108.494	0
1	22102407	322	High	1.5	Vague	2	4	8	35	3.2	3.9	0.0	35	8	4	0.0	3.9	3.2	1	0.879	0.000	R	4	3.2	1108.996	1109.924	1110.803	1110.805	0
1	22102407	323	High	1.5	Precise	1	8	14	18	3.9	10.1	0.0	18	14	8	0.0	10.1	3.9	1	1.184	0.000	R	8	3.9	1111.308	1112.315	1113.499	1113.502	0
1	22102407	324	High	1.5	Precise	1	4	14	11	3.2	10.1	0.0	14	4	11	10.1	3.2	0.0	1	0.000	1.255	D	4	3.2	1114.004	1114.754	1114.754	1114.760	0
1	22102407	325	High	1.5	Vague	2	4	17	35	3.2	12.6	0.0	35	4	17	0.0	3.2	12.6	2	0.645	0.000	R	17	12.6	1115.262	1118.014	1118.659	1118.661	0
1	22102407	326	High	1.5	Precise	1	8	15	5	3.9	8.7	0.0	8	5	15	3.9	0.0	8.7	2	0.645	0.001	R	15	8.7	1119.164	1122.046	1122.691	1122.693	0
1	22102407	327	High	1.5	Vague	2	4	8	23	3.2	3.9	0.0	23	8	4	0.0	3.9	3.2	1	1.241	0.000	R	4	3.2	1123.196	1124.706	1125.947	1125.950	0
1	22102407	328	High	1.5	Vague	2	4	15	21	3.2	8.7	0.0	4	15	21	3.2	8.7	0.0	2	1.473	0.000	D	15	8.7	1126.452	1128.970	1130.443	1130.445	0
1	22102407	329	High	1.5	Vague	2	4	14	25	3.2	10.1	0.0	14	25	4	10.1	0.0	3.2	2	0.641	0.000	L	14	10.1	1130.948	1133.075	1133.715	1133.718	0
1	22102407	330	High	1.5	Vague	2	14	10	35	10.1	11.8	0.0	14	35	10	10.1	0.0	11.8	1	0.651	0.000	L	14	10.1	1134.220	1135.808	1136.459	1136.461	0
1	22102407	331	High	1.5	Vague	2	8	17	31	3.9	12.6	0.0	8	31	17	3.9	0.0	12.6	2	0.683	0.001	R	17	12.6	1136.964	1138.776	1139.459	1139.462	0
1	22102407	332	High	1.5	Precise	1	4	8	1	3.2	3.9	0.0	8	1	4	3.9	0.0	3.2	1	0.790	0.000	R	4	3.2	1139.964	1142.957	1143.747	1143.749	0
1	22102407	333	High	1.5	Vague	2	8	15	19	3.9	8.7	0.0	19	15	8	0.0	8.7	3.9	2	1.215	0.000	D	15	8.7	1144.252	1145.164	1146.379	1146.381	0
1	22102407	334	High	1.5	Precise	1	8	17	7	3.9	12.6	0.0	8	17	7	3.9	12.6	0.0	2	0.987	0.000	D	17	12.6	1146.883	1149.656	1150.643	1150.645	0
1	22102407	335	High	1.5	Precise	1	8	14	5	3.9	10.1	0.0	5	8	14	0.0	3.9	10.1	2	0.907	0.000	R	14	10.1	1151.148	1154.008	1154.915	1154.918	0
1	22102407	336	High	1.5	Precise	1	4	8	13	3.2	3.9	0.0	4	8	13	3.2	3.9	0.0	NaN	NaN	NaN	NaN	NaN	NaN	1155.421	1157.283	NaN	1158.770	1
1	22102407	337	High	1.5	Precise	1	8	10	18	3.9	11.8	0.0	18	10	8	0.0	11.8	3.9	2	0.625	0.000	D	10	11.8	1160.773	1163.426	1164.051	1164.053	0
1	22102407	338	High	1.5	Precise	1	8	17	1	3.9	12.6	0.0	8	1	17	3.9	0.0	12.6	2	0.614	0.000	R	17	12.6	1164.556	1167.053	1167.667	1167.669	0
1	22102407	339	High	1.5	Vague	2	14	17	21	10.1	12.6	0.0	14	17	21	10.1	12.6	0.0	2	1.164	0.001	D	17	12.6	1168.172	1171.119	1172.283	1172.286	0
1	22102407	340	High	1.5	Precise	1	8	17	18	3.9	12.6	0.0	8	18	17	3.9	0.0	12.6	2	0.769	0.000	R	17	12.6	1172.788	1174.690	1175.459	1175.461	0
1	22102407	341	High	1.5	Precise	1	4	10	7	3.2	11.8	0.0	10	4	7	11.8	3.2	0.0	2	1.067	0.000	L	10	11.8	1175.964	1178.552	1179.619	1179.621	0
1	22102407	342	High	1.5	Vague	2	14	17	25	10.1	12.6	0.0	25	17	14	0.0	12.6	10.1	1	0.746	0.000	R	14	10.1	1180.124	1182.953	1183.699	1183.702	0
1	22102407	343	High	1.5	Precise	1	14	10	7	10.1	11.8	0.0	10	7	14	11.8	0.0	10.1	1	0.866	0.000	R	14	10.1	1184.205	1186.977	1187.843	1187.845	0
1	22102407	344	High	1.5	Vague	2	14	10	31	10.1	11.8	0.0	10	31	14	11.8	0.0	10.1	2	0.636	0.000	L	10	11.8	1188.348	1190.111	1190.747	1190.749	0
1	22102407	345	High	1.5	Vague	2	4	10	19	3.2	11.8	0.0	10	19	4	11.8	0.0	3.2	2	0.708	0.000	L	10	11.8	1191.252	1192.511	1193.219	1193.221	0
1	22102407	346	High	1.5	Vague	2	14	17	31	10.1	12.6	0.0	14	17	31	10.1	12.6	0.0	1	0.708	0.001	L	14	10.1	1193.724	1194.551	1195.259	1195.262	0
1	22102407	347	High	1.5	Precise	1	8	14	11	3.9	10.1	0.0	14	8	11	10.1	3.9	0.0	2	0.664	0.000	L	14	10.1	1195.764	1198.243	1198.907	1198.909	0
1	22102407	348	High	1.5	Vague	2	8	10	31	3.9	11.8	0.0	8	31	10	3.9	0.0	11.8	2	0.698	0.000	R	10	11.8	1199.412	1201.753	1202.451	1202.453	0
1	22102407	349	High	1.5	Precise	1	8	15	7	3.9	8.7	0.0	8	7	15	3.9	0.0	8.7	2	0.960	0.000	R	15	8.7	1202.956	1205.315	1206.275	1206.277	0
1	22102407	350	High	1.5	Vague	2	10	17	23	11.8	12.6	0.0	10	17	23	11.8	12.6	0.0	1	0.719	0.001	L	10	11.8	1206.780	1208.532	1209.251	1209.253	0
1	22102407	351	High	1.5	Vague	2	4	17	31	3.2	12.6	0.0	17	31	4	12.6	0.0	3.2	2	1.219	0.000	L	17	12.6	1209.756	1210.903	1212.123	1212.125	0
1	22102407	352	High	1.5	Precise	1	15	14	5	8.7	10.1	0.0	5	14	15	0.0	10.1	8.7	2	0.960	0.000	D	14	10.1	1212.628	1213.507	1214.467	1214.469	0
1	22102407	353	High	1.5	Precise	1	8	10	11	3.9	11.8	0.0	11	10	8	0.0	11.8	3.9	2	1.305	0.001	D	10	11.8	1214.972	1217.714	1219.019	1219.021	0
1	22102407	354	High	1.5	Precise	1	4	17	11	3.2	12.6	0.0	4	17	11	3.2	12.6	0.0	NaN	NaN	NaN	NaN	NaN	NaN	1219.524	1220.151	NaN	1221.639	1
1	22102407	355	High	1.5	Vague	2	15	17	19	8.7	12.6	0.0	15	17	19	8.7	12.6	0.0	1	1.113	0.000	L	15	8.7	1223.642	1226.330	1227.443	1227.446	0
1	22102407	356	High	1.5	Vague	2	4	8	21	3.2	3.9	0.0	8	4	21	3.9	3.2	0.0	NaN	NaN	NaN	NaN	NaN	NaN	1227.948	1230.419	NaN	1231.905	1
1	22102407	357	High	1.5	Vague	2	14	10	21	10.1	11.8	0.0	10	21	14	11.8	0.0	10.1	2	0.931	0.001	L	10	11.8	1233.908	1236.840	1237.771	1237.774	0
1	22102407	358	High	1.5	Precise	1	8	15	18	3.9	8.7	0.0	8	15	18	3.9	8.7	0.0	2	1.131	0.000	D	15	8.7	1238.277	1239.152	1240.283	1240.285	0
1	22102407	359	High	1.5	Vague	2	4	10	25	3.2	11.8	0.0	4	10	25	3.2	11.8	0.0	2	0.575	0.000	D	10	11.8	1240.787	1241.452	1242.027	1242.029	0
1	22102407	360	High	1.5	Precise	1	4	15	5	3.2	8.7	0.0	15	5	4	8.7	0.0	3.2	3	1.067	0.000	D	5	0.0	1242.532	1244.096	1245.163	1245.165	0
