Group	subID	trial	TimePressure	TimeConstraint	Vagueness	Vaguenesscode	ID1	ID2	ID3	V1	V2	V3	ID_left	ID_middle	ID_right	Bid_left	Bid_middle	Bid_right	chosenItem	RT	RTvariance	chosenPosition	chosenID	chosenValue	fixation_time	option_time	choice_time	feedback_time	timeout
2	22071912	1	High	1.5	Precise	1	26	33	36	40.1	67.0	20.3	36	33	26	20.3	67.0	40.1	2	0.998	0.000	D	33	67.0	5.402	8.272	9.271	9.276	0
2	22071912	2	High	1.5	Vague	2	34	35	14	49.2	59.4	20.2	34	35	14	49.2	59.4	20.2	1	0.733	0.000	L	34	49.2	9.779	11.665	12.399	12.403	0
2	22071912	3	High	1.5	Precise	1	35	33	19	59.4	67.0	2.8	19	33	35	2.8	67.0	59.4	1	0.657	0.001	R	35	59.4	12.908	14.134	14.791	14.795	0
2	22071912	4	High	1.5	Precise	1	34	33	36	49.2	67.0	20.3	34	36	33	49.2	20.3	67.0	2	0.857	0.000	R	33	67.0	15.297	16.630	17.487	17.490	0
2	22071912	5	High	1.5	Precise	1	29	35	19	34.0	59.4	2.8	29	19	35	34.0	2.8	59.4	2	1.001	0.000	R	35	59.4	17.994	20.886	21.887	21.891	0
2	22071912	6	High	1.5	Precise	1	34	33	31	49.2	67.0	13.3	33	31	34	67.0	13.3	49.2	1	0.773	0.000	R	34	49.2	22.397	23.482	24.255	24.257	0
2	22071912	7	High	1.5	Precise	1	35	33	36	59.4	67.0	20.3	33	36	35	67.0	20.3	59.4	2	0.678	0.000	L	33	67.0	24.760	25.729	26.407	26.409	0
2	22071912	8	High	1.5	Vague	2	30	29	1	30.5	34.0	5.3	30	1	29	30.5	5.3	34.0	2	0.788	0.000	R	29	34.0	26.912	29.636	30.423	30.425	0
2	22071912	9	High	1.5	Vague	2	30	34	14	30.5	49.2	20.2	30	34	14	30.5	49.2	20.2	2	0.819	0.001	D	34	49.2	30.928	31.908	32.727	32.729	0
2	22071912	10	High	1.5	Vague	2	26	34	14	40.1	49.2	20.2	14	34	26	20.2	49.2	40.1	2	0.759	0.000	D	34	49.2	33.232	36.144	36.903	36.906	0
2	22071912	11	High	1.5	Vague	2	30	35	1	30.5	59.4	5.3	1	35	30	5.3	59.4	30.5	1	0.841	0.001	R	30	30.5	37.409	38.854	39.695	39.698	0
2	22071912	12	High	1.5	Vague	2	30	26	1	30.5	40.1	5.3	26	30	1	40.1	30.5	5.3	2	0.804	0.000	L	26	40.1	40.201	42.979	43.783	43.785	0
2	22071912	13	High	1.5	Vague	2	26	33	15	40.1	67.0	27.3	33	26	15	67.0	40.1	27.3	3	0.823	0.000	R	15	27.3	44.288	45.079	45.903	45.905	0
2	22071912	14	High	1.5	Precise	1	30	33	36	30.5	67.0	20.3	30	33	36	30.5	67.0	20.3	3	1.081	0.000	R	36	20.3	46.407	49.222	50.303	50.305	0
2	22071912	15	High	1.5	Precise	1	35	33	31	59.4	67.0	13.3	35	31	33	59.4	13.3	67.0	2	0.793	0.000	R	33	67.0	50.808	51.942	52.735	52.737	0
2	22071912	16	High	1.5	Vague	2	30	33	1	30.5	67.0	5.3	1	30	33	5.3	30.5	67.0	2	0.691	0.000	R	33	67.0	53.239	55.524	56.215	56.217	0
2	22071912	17	High	1.5	Precise	1	29	26	36	34.0	40.1	20.3	26	36	29	40.1	20.3	34.0	3	0.874	0.000	D	36	20.3	56.720	57.381	58.255	58.257	0
2	22071912	18	High	1.5	Vague	2	26	33	1	40.1	67.0	5.3	33	1	26	67.0	5.3	40.1	1	0.657	0.001	R	26	40.1	58.760	61.494	62.151	62.153	0
2	22071912	19	High	1.5	Vague	2	30	33	5	30.5	67.0	5.7	5	33	30	5.7	67.0	30.5	2	0.630	0.001	D	33	67.0	62.656	63.954	64.583	64.586	0
2	22071912	20	High	1.5	Vague	2	34	33	1	49.2	67.0	5.3	1	33	34	5.3	67.0	49.2	2	0.586	0.000	D	33	67.0	65.088	65.917	66.503	66.505	0
2	22071912	21	High	1.5	Precise	1	34	33	24	49.2	67.0	22.0	24	33	34	22.0	67.0	49.2	2	0.573	0.000	D	33	67.0	67.007	68.962	69.535	69.537	0
2	22071912	22	High	1.5	Vague	2	26	35	5	40.1	59.4	5.7	26	5	35	40.1	5.7	59.4	2	0.929	0.000	R	35	59.4	70.040	72.902	73.831	73.833	0
2	22071912	23	High	1.5	Vague	2	29	34	7	34.0	49.2	15.2	7	34	29	15.2	49.2	34.0	2	0.966	0.000	D	34	49.2	74.336	76.634	77.599	77.602	0
2	22071912	24	High	1.5	Precise	1	26	35	31	40.1	59.4	13.3	35	26	31	59.4	40.1	13.3	1	0.983	0.000	D	26	40.1	78.104	80.368	81.351	81.353	0
2	22071912	25	High	1.5	Precise	1	29	35	23	34.0	59.4	1.7	23	35	29	1.7	59.4	34.0	2	0.789	0.001	D	35	59.4	81.856	84.618	85.407	85.409	0
2	22071912	26	High	1.5	Precise	1	34	33	19	49.2	67.0	2.8	34	33	19	49.2	67.0	2.8	1	0.699	0.000	L	34	49.2	85.912	87.852	88.551	88.553	0
2	22071912	27	High	1.5	Precise	1	34	35	31	49.2	59.4	13.3	31	34	35	13.3	49.2	59.4	1	0.803	0.000	D	34	49.2	89.056	91.660	92.463	92.465	0
2	22071912	28	High	1.5	Precise	1	30	35	24	30.5	59.4	22.0	24	35	30	22.0	59.4	30.5	2	1.072	0.001	D	35	59.4	92.968	95.311	96.383	96.385	0
2	22071912	29	High	1.5	Precise	1	30	35	31	30.5	59.4	13.3	31	30	35	13.3	30.5	59.4	2	1.021	0.001	R	35	59.4	96.888	98.746	99.767	99.769	0
2	22071912	30	High	1.5	Precise	1	26	34	32	40.1	49.2	23.8	32	26	34	23.8	40.1	49.2	2	0.696	0.000	R	34	49.2	100.272	101.934	102.631	102.633	0
2	22071912	31	High	1.5	Vague	2	29	34	1	34.0	49.2	5.3	1	34	29	5.3	49.2	34.0	2	0.738	0.000	D	34	49.2	103.136	103.685	104.423	104.425	0
2	22071912	32	High	1.5	Vague	2	30	26	5	30.5	40.1	5.7	26	5	30	40.1	5.7	30.5	2	0.894	0.001	L	26	40.1	104.928	106.857	107.751	107.754	0
2	22071912	33	High	1.5	Vague	2	30	33	7	30.5	67.0	15.2	33	30	7	67.0	30.5	15.2	2	0.902	0.000	L	33	67.0	108.257	110.121	111.023	111.025	0
2	22071912	34	High	1.5	Vague	2	34	33	15	49.2	67.0	27.3	15	33	34	27.3	67.0	49.2	2	0.568	0.000	D	33	67.0	111.528	113.950	114.519	114.521	0
2	22071912	35	High	1.5	Precise	1	34	35	19	49.2	59.4	2.8	34	35	19	49.2	59.4	2.8	1	0.672	0.000	L	34	49.2	115.024	115.726	116.399	116.402	0
2	22071912	36	High	1.5	Vague	2	30	35	5	30.5	59.4	5.7	5	35	30	5.7	59.4	30.5	1	0.904	0.001	R	30	30.5	116.904	119.566	120.471	120.473	0
2	22071912	37	High	1.5	Vague	2	30	35	7	30.5	59.4	15.2	35	30	7	59.4	30.5	15.2	2	0.957	0.001	L	35	59.4	120.976	123.514	124.471	124.473	0
2	22071912	38	High	1.5	Precise	1	30	26	24	30.5	40.1	22.0	26	30	24	40.1	30.5	22.0	2	1.197	0.000	L	26	40.1	124.976	126.250	127.447	127.449	0
2	22071912	39	High	1.5	Precise	1	26	34	23	40.1	49.2	1.7	34	26	23	49.2	40.1	1.7	2	0.753	0.000	L	34	49.2	127.952	130.734	131.487	131.489	0
2	22071912	40	High	1.5	Precise	1	30	33	31	30.5	67.0	13.3	33	31	30	67.0	13.3	30.5	2	1.245	0.001	L	33	67.0	131.992	133.394	134.639	134.641	0
2	22071912	41	High	1.5	Precise	1	29	35	24	34.0	59.4	22.0	35	29	24	59.4	34.0	22.0	2	1.335	0.000	L	35	59.4	135.144	137.071	138.407	138.409	0
2	22071912	42	High	1.5	Precise	1	29	35	32	34.0	59.4	23.8	32	29	35	23.8	34.0	59.4	2	1.241	0.000	R	35	59.4	138.912	140.830	142.071	142.074	0
2	22071912	43	High	1.5	Vague	2	29	33	1	34.0	67.0	5.3	29	33	1	34.0	67.0	5.3	2	1.125	0.001	D	33	67.0	142.577	143.834	144.959	144.961	0
2	22071912	44	High	1.5	Precise	1	29	34	32	34.0	49.2	23.8	32	29	34	23.8	34.0	49.2	2	0.707	0.000	R	34	49.2	145.464	147.363	148.071	148.073	0
2	22071912	45	High	1.5	Precise	1	30	34	32	30.5	49.2	23.8	34	30	32	49.2	30.5	23.8	2	0.757	0.000	L	34	49.2	148.575	150.554	151.311	151.313	0
2	22071912	46	High	1.5	Precise	1	26	34	24	40.1	49.2	22.0	24	26	34	22.0	40.1	49.2	2	0.660	0.000	R	34	49.2	151.815	152.787	153.447	153.449	0
2	22071912	47	High	1.5	Vague	2	30	29	5	30.5	34.0	5.7	29	5	30	34.0	5.7	30.5	2	0.928	0.000	L	29	34.0	153.952	155.999	156.927	156.929	0
2	22071912	48	High	1.5	Precise	1	30	29	36	30.5	34.0	20.3	30	29	36	30.5	34.0	20.3	2	1.007	0.001	D	29	34.0	157.432	159.992	160.999	161.001	0
2	22071912	49	High	1.5	Vague	2	26	34	2	40.1	49.2	2.1	2	26	34	2.1	40.1	49.2	2	0.718	0.000	R	34	49.2	161.504	162.248	162.967	162.969	0
2	22071912	50	High	1.5	Precise	1	26	33	24	40.1	67.0	22.0	24	26	33	22.0	40.1	67.0	2	1.171	0.000	R	33	67.0	163.471	164.820	165.991	165.993	0
2	22071912	51	High	1.5	Vague	2	34	33	14	49.2	67.0	20.2	14	34	33	20.2	49.2	67.0	1	1.066	0.000	D	34	49.2	166.496	167.212	168.279	168.281	0
2	22071912	52	High	1.5	Vague	2	34	35	15	49.2	59.4	27.3	35	34	15	59.4	49.2	27.3	1	0.695	0.000	D	34	49.2	168.784	170.576	171.271	171.273	0
2	22071912	53	High	1.5	Precise	1	29	33	32	34.0	67.0	23.8	33	29	32	67.0	34.0	23.8	1	0.797	0.001	D	29	34.0	171.776	172.826	173.623	173.625	0
2	22071912	54	High	1.5	Precise	1	30	26	31	30.5	40.1	13.3	26	31	30	40.1	13.3	30.5	2	1.283	0.000	L	26	40.1	174.128	175.084	176.367	176.369	0
2	22071912	55	High	1.5	Vague	2	29	26	1	34.0	40.1	5.3	29	26	1	34.0	40.1	5.3	1	0.762	0.000	L	29	34.0	176.872	178.701	179.463	179.465	0
2	22071912	56	High	1.5	Precise	1	34	33	32	49.2	67.0	23.8	32	33	34	23.8	67.0	49.2	1	0.705	0.000	R	34	49.2	179.968	182.478	183.182	183.185	0
2	22071912	57	High	1.5	Vague	2	30	26	15	30.5	40.1	27.3	26	15	30	40.1	27.3	30.5	2	0.840	0.001	L	26	40.1	183.687	186.047	186.887	186.889	0
2	22071912	58	High	1.5	Precise	1	29	33	23	34.0	67.0	1.7	23	29	33	1.7	34.0	67.0	1	1.024	0.001	D	29	34.0	187.392	188.502	189.527	189.529	0
2	22071912	59	High	1.5	Precise	1	30	33	24	30.5	67.0	22.0	24	33	30	22.0	67.0	30.5	2	1.192	0.001	D	33	67.0	190.032	191.551	192.743	192.745	0
2	22071912	60	High	1.5	Vague	2	26	34	5	40.1	49.2	5.7	26	34	5	40.1	49.2	5.7	2	0.810	0.001	D	34	49.2	193.248	195.837	196.647	196.649	0
2	22071912	61	High	1.5	Precise	1	30	34	23	30.5	49.2	1.7	30	23	34	30.5	1.7	49.2	2	0.720	0.000	R	34	49.2	202.676	204.415	205.135	205.137	0
2	22071912	62	High	1.5	Vague	2	30	35	2	30.5	59.4	2.1	2	30	35	2.1	30.5	59.4	2	1.101	0.000	R	35	59.4	205.640	206.761	207.863	207.865	0
2	22071912	63	High	1.5	Vague	2	26	33	14	40.1	67.0	20.2	14	26	33	20.2	40.1	67.0	1	1.016	0.001	D	26	40.1	208.367	210.079	211.095	211.097	0
2	22071912	64	High	1.5	Vague	2	29	33	5	34.0	67.0	5.7	33	29	5	67.0	34.0	5.7	1	0.875	0.000	D	29	34.0	211.600	213.716	214.591	214.593	0
2	22071912	65	High	1.5	Precise	1	26	33	31	40.1	67.0	13.3	26	33	31	40.1	67.0	13.3	NaN	NaN	NaN	NaN	NaN	NaN	215.097	217.795	NaN	219.284	1
2	22071912	66	High	1.5	Vague	2	30	34	15	30.5	49.2	27.3	15	30	34	27.3	30.5	49.2	2	0.782	0.000	R	34	49.2	221.287	222.841	223.623	223.627	0
2	22071912	67	High	1.5	Precise	1	30	34	36	30.5	49.2	20.3	36	34	30	20.3	49.2	30.5	2	0.749	0.001	D	34	49.2	224.130	225.250	225.999	226.002	0
2	22071912	68	High	1.5	Vague	2	35	33	15	59.4	67.0	27.3	33	35	15	67.0	59.4	27.3	3	0.789	0.000	R	15	27.3	226.505	227.457	228.247	228.249	0
2	22071912	69	High	1.5	Vague	2	29	33	14	34.0	67.0	20.2	33	29	14	67.0	34.0	20.2	1	0.817	0.000	D	29	34.0	228.751	230.950	231.767	231.769	0
2	22071912	70	High	1.5	Precise	1	30	35	23	30.5	59.4	1.7	35	30	23	59.4	30.5	1.7	2	0.866	0.000	L	35	59.4	232.272	234.093	234.959	234.961	0
2	22071912	71	High	1.5	Precise	1	30	29	19	30.5	34.0	2.8	30	19	29	30.5	2.8	34.0	2	0.865	0.000	R	29	34.0	235.464	237.918	238.782	238.785	0
2	22071912	72	High	1.5	Precise	1	34	33	23	49.2	67.0	1.7	33	34	23	67.0	49.2	1.7	1	0.667	0.000	D	34	49.2	239.287	241.931	242.598	242.601	0
2	22071912	73	High	1.5	Vague	2	29	34	2	34.0	49.2	2.1	34	2	29	49.2	2.1	34.0	2	0.696	0.000	L	34	49.2	243.103	244.423	245.119	245.121	0
2	22071912	74	High	1.5	Vague	2	30	29	2	30.5	34.0	2.1	29	30	2	34.0	30.5	2.1	2	0.771	0.000	L	29	34.0	245.624	247.091	247.862	247.865	0
2	22071912	75	High	1.5	Precise	1	29	34	19	34.0	49.2	2.8	34	19	29	49.2	2.8	34.0	2	0.639	0.000	L	34	49.2	248.368	250.936	251.575	251.577	0
2	22071912	76	High	1.5	Precise	1	29	34	36	34.0	49.2	20.3	36	29	34	20.3	34.0	49.2	2	0.722	0.001	R	34	49.2	252.080	254.629	255.351	255.353	0
2	22071912	77	High	1.5	Precise	1	29	26	23	34.0	40.1	1.7	23	26	29	1.7	40.1	34.0	1	1.096	0.000	R	29	34.0	255.856	258.335	259.431	259.433	0
2	22071912	78	High	1.5	Vague	2	30	34	1	30.5	49.2	5.3	34	30	1	49.2	30.5	5.3	2	0.699	0.000	L	34	49.2	259.936	260.860	261.558	261.561	0
2	22071912	79	High	1.5	Precise	1	26	35	36	40.1	59.4	20.3	26	35	36	40.1	59.4	20.3	NaN	NaN	NaN	NaN	NaN	NaN	262.063	264.526	NaN	266.012	1
2	22071912	80	High	1.5	Vague	2	26	33	2	40.1	67.0	2.1	2	26	33	2.1	40.1	67.0	2	0.974	0.000	R	33	67.0	268.016	270.049	271.022	271.025	0
2	22071912	81	High	1.5	Vague	2	26	33	7	40.1	67.0	15.2	7	26	33	15.2	40.1	67.0	2	0.539	0.001	R	33	67.0	271.528	273.075	273.615	273.617	0
2	22071912	82	High	1.5	Precise	1	30	26	23	30.5	40.1	1.7	23	30	26	1.7	30.5	40.1	2	0.860	0.001	R	26	40.1	274.120	276.539	277.399	277.401	0
2	22071912	83	High	1.5	Precise	1	29	34	24	34.0	49.2	22.0	29	24	34	34.0	22.0	49.2	2	0.788	0.000	R	34	49.2	277.904	280.835	281.623	281.625	0
2	22071912	84	High	1.5	Vague	2	34	33	2	49.2	67.0	2.1	34	33	2	49.2	67.0	2.1	1	0.535	0.001	L	34	49.2	282.128	283.367	283.903	283.905	0
2	22071912	85	High	1.5	Precise	1	29	33	36	34.0	67.0	20.3	29	36	33	34.0	20.3	67.0	1	0.927	0.000	L	29	34.0	284.407	285.031	285.958	285.961	0
2	22071912	86	High	1.5	Vague	2	30	33	14	30.5	67.0	20.2	33	14	30	67.0	20.2	30.5	3	0.948	0.000	D	14	20.2	286.464	287.011	287.959	287.961	0
2	22071912	87	High	1.5	Vague	2	30	26	14	30.5	40.1	20.2	14	30	26	20.2	30.5	40.1	2	0.863	0.000	R	26	40.1	288.464	290.424	291.286	291.289	0
2	22071912	88	High	1.5	Precise	1	26	34	31	40.1	49.2	13.3	26	34	31	40.1	49.2	13.3	2	0.815	0.001	D	34	49.2	291.791	293.416	294.231	294.233	0
2	22071912	89	High	1.5	Precise	1	26	34	36	40.1	49.2	20.3	26	34	36	40.1	49.2	20.3	2	0.842	0.000	D	34	49.2	294.736	296.213	297.055	297.057	0
2	22071912	90	High	1.5	Vague	2	29	26	14	34.0	40.1	20.2	26	29	14	40.1	34.0	20.2	2	0.691	0.000	L	26	40.1	297.559	300.539	301.231	301.233	0
2	22071912	91	High	1.5	Precise	1	29	33	31	34.0	67.0	13.3	31	33	29	13.3	67.0	34.0	1	0.827	0.001	R	29	34.0	301.736	303.868	304.695	304.697	0
2	22071912	92	High	1.5	Precise	1	35	33	32	59.4	67.0	23.8	35	33	32	59.4	67.0	23.8	3	1.002	0.000	R	32	23.8	305.200	305.725	306.727	306.729	0
2	22071912	93	High	1.5	Vague	2	29	35	15	34.0	59.4	27.3	35	15	29	59.4	27.3	34.0	1	0.945	0.000	R	29	34.0	307.232	310.053	310.999	311.001	0
2	22071912	94	High	1.5	Precise	1	34	35	32	49.2	59.4	23.8	35	34	32	59.4	49.2	23.8	1	0.840	0.000	D	34	49.2	311.503	312.871	313.711	313.713	0
2	22071912	95	High	1.5	Vague	2	30	35	14	30.5	59.4	20.2	35	30	14	59.4	30.5	20.2	3	1.009	0.000	R	14	20.2	314.216	316.605	317.615	317.617	0
2	22071912	96	High	1.5	Precise	1	29	26	32	34.0	40.1	23.8	29	26	32	34.0	40.1	23.8	1	0.726	0.000	L	29	34.0	318.119	320.305	321.031	321.033	0
2	22071912	97	High	1.5	Vague	2	29	26	7	34.0	40.1	15.2	29	7	26	34.0	15.2	40.1	1	0.947	0.000	L	29	34.0	321.537	322.827	323.775	323.778	0
2	22071912	98	High	1.5	Precise	1	26	35	32	40.1	59.4	23.8	26	32	35	40.1	23.8	59.4	1	0.951	0.000	L	26	40.1	324.280	325.871	326.823	326.825	0
2	22071912	99	High	1.5	Vague	2	30	34	7	30.5	49.2	15.2	7	34	30	15.2	49.2	30.5	2	0.824	0.000	D	34	49.2	327.328	330.118	330.942	330.945	0
2	22071912	100	High	1.5	Vague	2	29	26	5	34.0	40.1	5.7	26	5	29	40.1	5.7	34.0	1	1.278	0.000	R	29	34.0	331.448	332.001	333.279	333.281	0
2	22071912	101	High	1.5	Precise	1	26	35	24	40.1	59.4	22.0	24	35	26	22.0	59.4	40.1	1	0.772	0.000	R	26	40.1	333.784	335.843	336.615	336.617	0
2	22071912	102	High	1.5	Vague	2	30	33	15	30.5	67.0	27.3	30	15	33	30.5	27.3	67.0	3	0.869	0.000	D	15	27.3	337.120	338.218	339.087	339.089	0
2	22071912	103	High	1.5	Vague	2	34	33	5	49.2	67.0	5.7	33	34	5	67.0	49.2	5.7	1	0.685	0.000	D	34	49.2	339.592	341.657	342.343	342.345	0
2	22071912	104	High	1.5	Vague	2	35	33	7	59.4	67.0	15.2	7	33	35	15.2	67.0	59.4	3	1.050	0.000	L	7	15.2	342.847	344.548	345.598	345.601	0
2	22071912	105	High	1.5	Precise	1	30	26	32	30.5	40.1	23.8	30	32	26	30.5	23.8	40.1	3	0.746	0.000	D	32	23.8	346.103	348.764	349.511	349.513	0
2	22071912	106	High	1.5	Precise	1	30	35	36	30.5	59.4	20.3	30	35	36	30.5	59.4	20.3	2	1.313	0.001	D	35	59.4	350.015	351.902	353.215	353.217	0
2	22071912	107	High	1.5	Vague	2	34	35	7	49.2	59.4	15.2	35	34	7	59.4	49.2	15.2	1	0.695	0.001	D	34	49.2	353.720	356.656	357.351	357.353	0
2	22071912	108	High	1.5	Precise	1	30	33	32	30.5	67.0	23.8	33	30	32	67.0	30.5	23.8	3	0.846	0.000	R	32	23.8	357.855	359.928	360.774	360.777	0
2	22071912	109	High	1.5	Precise	1	29	33	24	34.0	67.0	22.0	33	24	29	67.0	22.0	34.0	1	0.670	0.001	R	29	34.0	361.279	362.849	363.519	363.521	0
2	22071912	110	High	1.5	Precise	1	26	35	19	40.1	59.4	2.8	26	19	35	40.1	2.8	59.4	1	1.027	0.000	L	26	40.1	364.024	365.444	366.471	366.473	0
2	22071912	111	High	1.5	Precise	1	26	33	23	40.1	67.0	1.7	26	33	23	40.1	67.0	1.7	2	1.123	0.000	D	33	67.0	366.975	368.203	369.327	369.329	0
2	22071912	112	High	1.5	Vague	2	26	35	7	40.1	59.4	15.2	35	26	7	59.4	40.1	15.2	1	1.395	0.000	D	26	40.1	369.831	371.772	373.167	373.169	0
2	22071912	113	High	1.5	Vague	2	29	35	7	34.0	59.4	15.2	29	35	7	34.0	59.4	15.2	1	0.684	0.001	L	29	34.0	373.672	375.755	376.439	376.441	0
2	22071912	114	High	1.5	Vague	2	29	33	15	34.0	67.0	27.3	15	29	33	27.3	34.0	67.0	3	0.639	0.001	L	15	27.3	376.943	378.304	378.943	378.945	0
2	22071912	115	High	1.5	Vague	2	29	34	15	34.0	49.2	27.3	15	29	34	27.3	34.0	49.2	2	0.894	0.001	R	34	49.2	379.448	381.688	382.583	382.585	0
2	22071912	116	High	1.5	Precise	1	35	33	24	59.4	67.0	22.0	24	35	33	22.0	59.4	67.0	2	1.378	0.000	R	33	67.0	383.088	383.796	385.174	385.177	0
2	22071912	117	High	1.5	Vague	2	26	34	1	40.1	49.2	5.3	34	1	26	49.2	5.3	40.1	2	0.685	0.000	L	34	49.2	385.679	388.393	389.078	389.081	0
2	22071912	118	High	1.5	Vague	2	30	26	7	30.5	40.1	15.2	26	7	30	40.1	15.2	30.5	2	0.764	0.000	L	26	40.1	389.584	390.179	390.943	390.945	0
2	22071912	119	High	1.5	Vague	2	26	35	2	40.1	59.4	2.1	2	26	35	2.1	40.1	59.4	1	0.717	0.001	D	26	40.1	391.448	393.930	394.647	394.650	0
2	22071912	120	High	1.5	Precise	1	26	35	23	40.1	59.4	1.7	23	35	26	1.7	59.4	40.1	1	1.125	0.000	R	26	40.1	395.153	397.386	398.511	398.513	0
2	22071912	121	High	1.5	Vague	2	30	29	14	30.5	34.0	20.2	29	14	30	34.0	20.2	30.5	2	0.639	0.000	L	29	34.0	403.069	403.632	404.271	404.273	0
2	22071912	122	High	1.5	Precise	1	29	33	19	34.0	67.0	2.8	19	33	29	2.8	67.0	34.0	1	0.936	0.000	R	29	34.0	404.775	406.567	407.503	407.505	0
2	22071912	123	High	1.5	Vague	2	35	33	14	59.4	67.0	20.2	35	33	14	59.4	67.0	20.2	3	1.419	0.001	R	14	20.2	408.008	409.332	410.751	410.753	0
2	22071912	124	High	1.5	Precise	1	29	34	31	34.0	49.2	13.3	29	31	34	34.0	13.3	49.2	2	0.982	0.000	R	34	49.2	411.256	413.817	414.799	414.801	0
2	22071912	125	High	1.5	Precise	1	30	34	24	30.5	49.2	22.0	30	34	24	30.5	49.2	22.0	NaN	NaN	NaN	NaN	NaN	NaN	415.304	417.068	NaN	418.558	1
2	22071912	126	High	1.5	Vague	2	26	35	1	40.1	59.4	5.3	35	26	1	59.4	40.1	5.3	1	0.865	0.001	D	26	40.1	420.560	422.406	423.271	423.274	0
2	22071912	127	High	1.5	Vague	2	29	35	14	34.0	59.4	20.2	35	29	14	59.4	34.0	20.2	1	0.977	0.000	D	29	34.0	423.776	426.742	427.719	427.721	0
2	22071912	128	High	1.5	Vague	2	30	34	2	30.5	49.2	2.1	2	30	34	2.1	30.5	49.2	2	0.878	0.001	R	34	49.2	428.224	429.017	429.895	429.897	0
2	22071912	129	High	1.5	Precise	1	30	34	19	30.5	49.2	2.8	30	19	34	30.5	2.8	49.2	2	0.541	0.000	R	34	49.2	430.400	432.449	432.990	432.993	0
2	22071912	130	High	1.5	Vague	2	35	33	5	59.4	67.0	5.7	35	5	33	59.4	5.7	67.0	3	1.078	0.000	D	5	5.7	433.496	434.193	435.271	435.273	0
2	22071912	131	High	1.5	Precise	1	29	26	31	34.0	40.1	13.3	26	29	31	40.1	34.0	13.3	1	1.128	0.000	D	29	34.0	435.776	436.622	437.750	437.753	0
2	22071912	132	High	1.5	Precise	1	29	35	36	34.0	59.4	20.3	36	35	29	20.3	59.4	34.0	1	0.727	0.000	R	29	34.0	438.255	440.327	441.054	441.057	0
2	22071912	133	High	1.5	Vague	2	26	35	15	40.1	59.4	27.3	15	26	35	27.3	40.1	59.4	3	0.779	0.000	L	15	27.3	441.560	442.427	443.207	443.209	0
2	22071912	134	High	1.5	Precise	1	34	35	36	49.2	59.4	20.3	34	35	36	49.2	59.4	20.3	1	0.781	0.001	L	34	49.2	443.711	445.105	445.887	445.890	0
2	22071912	135	High	1.5	Precise	1	30	29	24	30.5	34.0	22.0	30	24	29	30.5	22.0	34.0	2	0.999	0.000	R	29	34.0	446.392	448.840	449.839	449.841	0
2	22071912	136	High	1.5	Vague	2	29	35	2	34.0	59.4	2.1	35	2	29	59.4	2.1	34.0	1	0.678	0.000	R	29	34.0	450.344	451.448	452.126	452.129	0
2	22071912	137	High	1.5	Vague	2	29	26	15	34.0	40.1	27.3	26	29	15	40.1	34.0	27.3	NaN	NaN	NaN	NaN	NaN	NaN	452.632	453.560	NaN	455.046	1
2	22071912	138	High	1.5	Vague	2	30	33	2	30.5	67.0	2.1	33	2	30	67.0	2.1	30.5	2	1.216	0.000	L	33	67.0	457.049	458.366	459.582	459.585	0
2	22071912	139	High	1.5	Vague	2	35	33	1	59.4	67.0	5.3	35	1	33	59.4	5.3	67.0	2	1.359	0.000	R	33	67.0	460.087	462.727	464.086	464.089	0
2	22071912	140	High	1.5	Vague	2	34	33	7	49.2	67.0	15.2	33	34	7	67.0	49.2	15.2	1	0.728	0.001	D	34	49.2	464.592	465.582	466.311	466.313	0
2	22071912	141	High	1.5	Precise	1	30	33	19	30.5	67.0	2.8	33	19	30	67.0	2.8	30.5	2	0.944	0.001	L	33	67.0	466.815	468.486	469.431	469.433	0
2	22071912	142	High	1.5	Precise	1	26	33	32	40.1	67.0	23.8	33	26	32	67.0	40.1	23.8	2	0.902	0.000	L	33	67.0	469.936	471.521	472.423	472.425	0
2	22071912	143	High	1.5	Vague	2	29	35	5	34.0	59.4	5.7	35	29	5	59.4	34.0	5.7	1	1.048	0.000	D	29	34.0	472.928	473.590	474.639	474.641	0
2	22071912	144	High	1.5	Precise	1	30	29	23	30.5	34.0	1.7	23	29	30	1.7	34.0	30.5	2	0.703	0.000	D	29	34.0	475.143	477.800	478.503	478.505	0
2	22071912	145	High	1.5	Vague	2	29	33	2	34.0	67.0	2.1	29	2	33	34.0	2.1	67.0	1	0.682	0.000	L	29	34.0	479.007	479.940	480.622	480.625	0
2	22071912	146	High	1.5	Vague	2	30	29	15	30.5	34.0	27.3	29	15	30	34.0	27.3	30.5	2	0.550	0.000	L	29	34.0	481.127	484.112	484.662	484.665	0
2	22071912	147	High	1.5	Vague	2	29	26	2	34.0	40.1	2.1	29	26	2	34.0	40.1	2.1	1	0.798	0.001	L	29	34.0	485.167	486.049	486.847	486.850	0
2	22071912	148	High	1.5	Vague	2	30	26	2	30.5	40.1	2.1	30	26	2	30.5	40.1	2.1	2	0.637	0.001	D	26	40.1	487.352	488.370	489.007	489.009	0
2	22071912	149	High	1.5	Vague	2	35	33	2	59.4	67.0	2.1	35	33	2	59.4	67.0	2.1	1	0.835	0.000	L	35	59.4	489.512	490.892	491.727	491.729	0
2	22071912	150	High	1.5	Vague	2	34	35	5	49.2	59.4	5.7	34	35	5	49.2	59.4	5.7	1	0.560	0.000	L	34	49.2	492.231	494.398	494.958	494.961	0
2	22071912	151	High	1.5	Precise	1	34	35	23	49.2	59.4	1.7	35	23	34	59.4	1.7	49.2	1	0.638	0.000	R	34	49.2	495.464	496.081	496.718	496.721	0
2	22071912	152	High	1.5	Vague	2	26	35	14	40.1	59.4	20.2	26	35	14	40.1	59.4	20.2	1	0.476	0.001	L	26	40.1	497.224	498.747	499.223	499.225	0
2	22071912	153	High	1.5	Vague	2	29	34	14	34.0	49.2	20.2	34	14	29	49.2	20.2	34.0	2	0.522	0.000	L	34	49.2	499.728	502.612	503.134	503.137	0
2	22071912	154	High	1.5	Precise	1	30	26	19	30.5	40.1	2.8	30	19	26	30.5	2.8	40.1	2	0.843	0.000	R	26	40.1	503.639	506.460	507.302	507.305	0
2	22071912	155	High	1.5	Precise	1	30	29	31	30.5	34.0	13.3	31	30	29	13.3	30.5	34.0	2	0.814	0.000	R	29	34.0	507.807	509.664	510.478	510.481	0
2	22071912	156	High	1.5	Precise	1	30	29	32	30.5	34.0	23.8	30	29	32	30.5	34.0	23.8	2	1.121	0.000	D	29	34.0	510.984	512.006	513.126	513.129	0
2	22071912	157	High	1.5	Precise	1	30	26	36	30.5	40.1	20.3	30	26	36	30.5	40.1	20.3	3	1.086	0.000	R	36	20.3	513.632	514.336	515.422	515.425	0
2	22071912	158	High	1.5	Precise	1	30	34	31	30.5	49.2	13.3	31	30	34	13.3	30.5	49.2	2	0.655	0.000	R	34	49.2	515.928	517.175	517.831	517.833	0
2	22071912	159	High	1.5	Vague	2	34	35	1	49.2	59.4	5.3	35	34	1	59.4	49.2	5.3	1	0.740	0.000	D	34	49.2	518.335	520.027	520.767	520.769	0
2	22071912	160	High	1.5	Vague	2	30	35	15	30.5	59.4	27.3	15	35	30	27.3	59.4	30.5	3	0.897	0.000	L	15	27.3	521.272	523.590	524.486	524.489	0
2	22071912	161	High	1.5	Vague	2	30	29	7	30.5	34.0	15.2	30	29	7	30.5	34.0	15.2	2	0.889	0.000	D	29	34.0	524.992	525.661	526.550	526.553	0
2	22071912	162	High	1.5	Vague	2	29	35	1	34.0	59.4	5.3	1	29	35	5.3	34.0	59.4	1	0.690	0.000	D	29	34.0	527.055	528.165	528.855	528.857	0
2	22071912	163	High	1.5	Precise	1	26	34	19	40.1	49.2	2.8	34	19	26	49.2	2.8	40.1	NaN	NaN	NaN	NaN	NaN	NaN	529.359	531.322	NaN	532.809	1
2	22071912	164	High	1.5	Precise	1	34	35	24	49.2	59.4	22.0	34	24	35	49.2	22.0	59.4	1	0.538	0.000	L	34	49.2	534.813	535.708	536.246	536.249	0
2	22071912	165	High	1.5	Vague	2	26	33	5	40.1	67.0	5.7	26	5	33	40.1	5.7	67.0	1	1.040	0.000	L	26	40.1	536.751	538.462	539.502	539.505	0
2	22071912	166	High	1.5	Precise	1	29	26	24	34.0	40.1	22.0	24	26	29	22.0	40.1	34.0	1	0.776	0.000	R	29	34.0	540.007	540.526	541.302	541.305	0
2	22071912	167	High	1.5	Precise	1	35	33	23	59.4	67.0	1.7	33	23	35	67.0	1.7	59.4	1	1.002	0.000	R	35	59.4	541.807	543.725	544.727	544.729	0
2	22071912	168	High	1.5	Vague	2	34	35	2	49.2	59.4	2.1	2	35	34	2.1	59.4	49.2	1	0.552	0.000	R	34	49.2	545.232	547.126	547.678	547.681	0
2	22071912	169	High	1.5	Vague	2	26	34	15	40.1	49.2	27.3	34	15	26	49.2	27.3	40.1	2	0.547	0.001	L	34	49.2	548.183	550.828	551.374	551.377	0
2	22071912	170	High	1.5	Vague	2	26	34	7	40.1	49.2	15.2	34	7	26	49.2	15.2	40.1	2	0.468	0.000	L	34	49.2	551.879	553.419	553.887	553.889	0
2	22071912	171	High	1.5	Precise	1	29	34	23	34.0	49.2	1.7	23	34	29	1.7	49.2	34.0	2	0.607	0.000	D	34	49.2	554.391	555.831	556.438	556.441	0
2	22071912	172	High	1.5	Vague	2	29	33	7	34.0	67.0	15.2	33	7	29	67.0	15.2	34.0	1	0.634	0.000	R	29	34.0	556.943	559.404	560.038	560.041	0
2	22071912	173	High	1.5	Precise	1	30	33	23	30.5	67.0	1.7	30	23	33	30.5	1.7	67.0	2	0.895	0.000	R	33	67.0	560.544	562.111	563.006	563.009	0
2	22071912	174	High	1.5	Precise	1	26	33	19	40.1	67.0	2.8	19	33	26	2.8	67.0	40.1	1	0.734	0.000	R	26	40.1	563.511	564.232	564.966	564.969	0
2	22071912	175	High	1.5	Vague	2	29	34	5	34.0	49.2	5.7	34	5	29	49.2	5.7	34.0	2	0.549	0.001	L	34	49.2	565.471	567.618	568.166	568.169	0
2	22071912	176	High	1.5	Vague	2	30	34	5	30.5	49.2	5.7	30	5	34	30.5	5.7	49.2	2	0.568	0.000	R	34	49.2	568.672	570.614	571.182	571.185	0
2	22071912	177	High	1.5	Precise	1	29	35	31	34.0	59.4	13.3	35	31	29	59.4	13.3	34.0	1	0.838	0.000	R	29	34.0	571.687	573.048	573.887	573.889	0
2	22071912	178	High	1.5	Precise	1	30	35	19	30.5	59.4	2.8	19	30	35	2.8	30.5	59.4	2	0.762	0.001	R	35	59.4	574.392	576.828	577.591	577.593	0
2	22071912	179	High	1.5	Precise	1	29	26	19	34.0	40.1	2.8	19	29	26	2.8	34.0	40.1	1	1.052	0.000	D	29	34.0	578.096	579.418	580.471	580.473	0
2	22071912	180	High	1.5	Precise	1	30	35	32	30.5	59.4	23.8	35	30	32	59.4	30.5	23.8	2	1.316	0.000	L	35	59.4	580.976	581.650	582.966	582.969	0
2	22071912	181	Low	10.0	Vague	2	29	35	4	34.0	59.4	20.5	29	35	4	34.0	59.4	20.5	1	1.551	0.000	L	29	34.0	590.284	590.807	592.358	592.361	0
2	22071912	182	Low	10.0	Precise	1	29	34	27	34.0	49.2	10.2	27	34	29	10.2	49.2	34.0	2	0.937	0.000	D	34	49.2	592.864	594.181	595.118	595.121	0
2	22071912	183	Low	10.0	Vague	2	29	34	6	34.0	49.2	5.3	34	29	6	49.2	34.0	5.3	2	1.320	0.000	L	34	49.2	595.623	596.398	597.718	597.721	0
2	22071912	184	Low	10.0	Precise	1	29	35	20	34.0	59.4	1.4	29	20	35	34.0	1.4	59.4	3	1.967	0.000	D	20	1.4	598.224	601.151	603.119	603.121	0
2	22071912	185	Low	10.0	Vague	2	29	35	10	34.0	59.4	30.2	10	29	35	30.2	34.0	59.4	1	1.683	0.001	D	29	34.0	603.624	605.548	607.231	607.233	0
2	22071912	186	Low	10.0	Precise	1	26	35	25	40.1	59.4	15.3	35	26	25	59.4	40.1	15.3	2	2.700	0.000	L	35	59.4	607.736	610.610	613.310	613.315	0
2	22071912	187	Low	10.0	Vague	2	34	33	9	49.2	67.0	15.3	9	34	33	15.3	49.2	67.0	1	1.622	0.001	D	34	49.2	613.818	616.048	617.671	617.673	0
2	22071912	188	Low	10.0	Vague	2	30	26	4	30.5	40.1	20.5	30	26	4	30.5	40.1	20.5	2	1.906	0.001	D	26	40.1	618.177	621.004	622.910	622.913	0
2	22071912	189	Low	10.0	Precise	1	35	33	27	59.4	67.0	10.2	27	33	35	10.2	67.0	59.4	1	1.837	0.001	R	35	59.4	623.416	624.394	626.230	626.233	0
2	22071912	190	Low	10.0	Vague	2	34	35	6	49.2	59.4	5.3	6	35	34	5.3	59.4	49.2	1	0.736	0.001	R	34	49.2	626.735	627.511	628.246	628.249	0
2	22071912	191	Low	10.0	Vague	2	30	34	11	30.5	49.2	10.1	30	34	11	30.5	49.2	10.1	2	0.735	0.000	D	34	49.2	628.752	629.584	630.318	630.321	0
2	22071912	192	Low	10.0	Vague	2	26	35	11	40.1	59.4	10.1	35	11	26	59.4	10.1	40.1	2	2.110	0.001	L	35	59.4	630.824	632.752	634.862	634.865	0
2	22071912	193	Low	10.0	Precise	1	26	34	21	40.1	49.2	2.3	26	21	34	40.1	2.3	49.2	2	1.756	0.000	R	34	49.2	635.368	637.499	639.254	639.257	0
2	22071912	194	Low	10.0	Vague	2	26	34	3	40.1	49.2	5.0	34	3	26	49.2	5.0	40.1	3	3.348	0.000	D	3	5.0	639.759	642.218	645.566	645.573	0
2	22071912	195	Low	10.0	Precise	1	26	34	20	40.1	49.2	1.4	26	34	20	40.1	49.2	1.4	2	0.666	0.000	D	34	49.2	646.076	647.229	647.894	647.897	0
2	22071912	196	Low	10.0	Precise	1	30	29	28	30.5	34.0	23.5	28	29	30	23.5	34.0	30.5	2	1.261	0.000	D	29	34.0	648.399	650.153	651.414	651.417	0
2	22071912	197	Low	10.0	Precise	1	30	33	20	30.5	67.0	1.4	33	30	20	67.0	30.5	1.4	3	1.144	0.001	R	20	1.4	651.919	654.758	655.902	655.905	0
2	22071912	198	Low	10.0	Vague	2	34	33	4	49.2	67.0	20.5	4	33	34	20.5	67.0	49.2	1	1.116	0.001	R	34	49.2	656.407	659.227	660.342	660.345	0
2	22071912	199	Low	10.0	Precise	1	29	33	25	34.0	67.0	15.3	29	33	25	34.0	67.0	15.3	1	3.100	0.000	L	29	34.0	660.848	661.346	664.446	664.449	0
2	22071912	200	Low	10.0	Vague	2	35	33	4	59.4	67.0	20.5	33	35	4	67.0	59.4	20.5	1	2.098	0.000	D	35	59.4	664.952	666.460	668.558	668.561	0
2	22071912	201	Low	10.0	Vague	2	30	29	4	30.5	34.0	20.5	29	4	30	34.0	20.5	30.5	2	2.061	0.000	L	29	34.0	669.063	669.969	672.030	672.033	0
2	22071912	202	Low	10.0	Precise	1	29	33	28	34.0	67.0	23.5	33	29	28	67.0	34.0	23.5	1	1.030	0.000	D	29	34.0	672.535	674.032	675.062	675.065	0
2	22071912	203	Low	10.0	Vague	2	29	26	4	34.0	40.1	20.5	26	4	29	40.1	20.5	34.0	1	1.229	0.001	R	29	34.0	675.567	677.217	678.446	678.449	0
2	22071912	204	Low	10.0	Precise	1	29	35	28	34.0	59.4	23.5	35	29	28	59.4	34.0	23.5	1	0.784	0.000	D	29	34.0	678.952	680.694	681.478	681.481	0
2	22071912	205	Low	10.0	Vague	2	26	34	6	40.1	49.2	5.3	26	6	34	40.1	5.3	49.2	2	0.735	0.000	R	34	49.2	681.984	682.615	683.350	683.353	0
2	22071912	206	Low	10.0	Precise	1	30	34	20	30.5	49.2	1.4	20	30	34	1.4	30.5	49.2	2	1.481	0.000	R	34	49.2	683.855	685.517	686.998	687.001	0
2	22071912	207	Low	10.0	Vague	2	30	35	3	30.5	59.4	5.0	35	30	3	59.4	30.5	5.0	2	2.429	0.000	L	35	59.4	687.504	688.617	691.046	691.049	0
2	22071912	208	Low	10.0	Vague	2	26	35	3	40.1	59.4	5.0	35	3	26	59.4	5.0	40.1	2	1.431	0.000	L	35	59.4	691.552	693.736	695.166	695.169	0
2	22071912	209	Low	10.0	Vague	2	30	35	6	30.5	59.4	5.3	6	35	30	5.3	59.4	30.5	2	1.998	0.001	D	35	59.4	695.671	696.393	698.390	698.393	0
2	22071912	210	Low	10.0	Vague	2	29	35	11	34.0	59.4	10.1	11	35	29	10.1	59.4	34.0	1	1.772	0.000	R	29	34.0	698.895	700.162	701.934	701.937	0
2	22071912	211	Low	10.0	Vague	2	29	34	3	34.0	49.2	5.0	29	3	34	34.0	5.0	49.2	2	3.108	0.000	R	34	49.2	702.440	704.155	707.262	707.265	0
2	22071912	212	Low	10.0	Vague	2	29	33	6	34.0	67.0	5.3	6	29	33	5.3	34.0	67.0	1	1.100	0.000	D	29	34.0	707.768	708.979	710.078	710.081	0
2	22071912	213	Low	10.0	Precise	1	30	34	22	30.5	49.2	20.3	34	30	22	49.2	30.5	20.3	2	0.813	0.000	L	34	49.2	710.584	711.721	712.534	712.536	0
2	22071912	214	Low	10.0	Precise	1	26	34	27	40.1	49.2	10.2	26	27	34	40.1	10.2	49.2	2	0.602	0.001	R	34	49.2	713.039	715.212	715.814	715.816	0
2	22071912	215	Low	10.0	Precise	1	26	35	27	40.1	59.4	10.2	27	35	26	10.2	59.4	40.1	1	1.683	0.000	R	26	40.1	716.319	718.563	720.246	720.249	0
2	22071912	216	Low	10.0	Precise	1	29	34	22	34.0	49.2	20.3	29	22	34	34.0	20.3	49.2	2	0.969	0.000	R	34	49.2	720.751	721.317	722.286	722.289	0
2	22071912	217	Low	10.0	Vague	2	30	26	3	30.5	40.1	5.0	30	3	26	30.5	5.0	40.1	2	1.639	0.000	R	26	40.1	722.791	725.416	727.054	727.057	0
2	22071912	218	Low	10.0	Precise	1	34	35	21	49.2	59.4	2.3	21	34	35	2.3	49.2	59.4	1	2.603	0.001	D	34	49.2	727.560	728.156	730.758	730.761	0
2	22071912	219	Low	10.0	Precise	1	34	35	27	49.2	59.4	10.2	34	27	35	49.2	10.2	59.4	1	0.874	0.000	L	34	49.2	731.263	733.124	733.998	734.000	0
2	22071912	220	Low	10.0	Precise	1	26	34	28	40.1	49.2	23.5	26	34	28	40.1	49.2	23.5	2	1.237	0.000	D	34	49.2	734.503	736.306	737.542	737.545	0
2	22071912	221	Low	10.0	Precise	1	26	34	25	40.1	49.2	15.3	34	26	25	49.2	40.1	15.3	2	1.491	0.000	L	34	49.2	738.048	739.715	741.206	741.209	0
2	22071912	222	Low	10.0	Precise	1	29	26	22	34.0	40.1	20.3	22	29	26	20.3	34.0	40.1	1	1.422	0.000	D	29	34.0	741.711	742.409	743.830	743.833	0
2	22071912	223	Low	10.0	Precise	1	34	33	20	49.2	67.0	1.4	34	20	33	49.2	1.4	67.0	1	1.431	0.001	L	34	49.2	744.336	745.728	747.158	747.161	0
2	22071912	224	Low	10.0	Precise	1	35	33	28	59.4	67.0	23.5	28	35	33	23.5	59.4	67.0	3	2.090	0.001	L	28	23.5	747.664	749.500	751.590	751.593	0
2	22071912	225	Low	10.0	Precise	1	26	33	22	40.1	67.0	20.3	22	33	26	20.3	67.0	40.1	1	1.593	0.000	R	26	40.1	752.095	754.165	755.758	755.761	0
2	22071912	226	Low	10.0	Precise	1	29	26	27	34.0	40.1	10.2	27	29	26	10.2	34.0	40.1	1	1.130	0.000	D	29	34.0	756.263	758.164	759.294	759.296	0
2	22071912	227	Low	10.0	Precise	1	29	34	25	34.0	49.2	15.3	34	25	29	49.2	15.3	34.0	2	1.430	0.000	L	34	49.2	759.799	760.832	762.262	762.265	0
2	22071912	228	Low	10.0	Vague	2	26	34	11	40.1	49.2	10.1	11	26	34	10.1	40.1	49.2	2	1.403	0.000	R	34	49.2	762.768	765.451	766.854	766.857	0
2	22071912	229	Low	10.0	Vague	2	30	34	10	30.5	49.2	30.2	30	34	10	30.5	49.2	30.2	2	2.350	0.001	D	34	49.2	767.359	770.041	772.390	772.393	0
2	22071912	230	Low	10.0	Precise	1	29	35	25	34.0	59.4	15.3	29	35	25	34.0	59.4	15.3	1	2.981	0.000	L	29	34.0	772.895	775.521	778.502	778.508	0
2	22071912	231	Low	10.0	Precise	1	30	26	28	30.5	40.1	23.5	26	28	30	40.1	23.5	30.5	3	3.385	0.001	D	28	23.5	779.011	780.301	783.686	783.689	0
2	22071912	232	Low	10.0	Vague	2	29	33	11	34.0	67.0	10.1	29	33	11	34.0	67.0	10.1	1	1.965	0.000	L	29	34.0	784.192	787.097	789.062	789.064	0
2	22071912	233	Low	10.0	Vague	2	30	29	3	30.5	34.0	5.0	3	29	30	5.0	34.0	30.5	2	1.151	0.001	D	29	34.0	789.567	790.527	791.678	791.681	0
2	22071912	234	Low	10.0	Vague	2	30	34	3	30.5	49.2	5.0	3	34	30	5.0	49.2	30.5	2	1.102	0.000	D	34	49.2	792.183	795.168	796.270	796.272	0
2	22071912	235	Low	10.0	Vague	2	26	33	6	40.1	67.0	5.3	6	26	33	5.3	40.1	67.0	1	1.249	0.000	D	26	40.1	796.775	798.397	799.646	799.648	0
2	22071912	236	Low	10.0	Precise	1	26	35	28	40.1	59.4	23.5	28	35	26	23.5	59.4	40.1	3	1.520	0.000	L	28	23.5	800.151	802.718	804.238	804.240	0
2	22071912	237	Low	10.0	Vague	2	30	33	10	30.5	67.0	30.2	10	30	33	30.2	30.5	67.0	1	1.672	0.000	D	30	30.5	804.743	806.278	807.950	807.952	0
2	22071912	238	Low	10.0	Vague	2	35	33	11	59.4	67.0	10.1	35	33	11	59.4	67.0	10.1	2	2.164	0.000	D	33	67.0	808.455	809.570	811.734	811.737	0
2	22071912	239	Low	10.0	Vague	2	34	35	11	49.2	59.4	10.1	35	34	11	59.4	49.2	10.1	1	1.121	0.000	D	34	49.2	812.239	814.029	815.150	815.153	0
2	22071912	240	Low	10.0	Precise	1	29	26	20	34.0	40.1	1.4	26	29	20	40.1	34.0	1.4	3	1.399	0.000	R	20	1.4	815.655	817.719	819.118	819.120	0
2	22071912	241	Low	10.0	Vague	2	30	26	9	30.5	40.1	15.3	26	30	9	40.1	30.5	15.3	3	2.012	0.000	R	9	15.3	823.431	823.986	825.998	826.001	0
2	22071912	242	Low	10.0	Precise	1	30	35	28	30.5	59.4	23.5	28	35	30	23.5	59.4	30.5	3	1.267	0.000	L	28	23.5	826.503	827.243	828.510	828.513	0
2	22071912	243	Low	10.0	Vague	2	30	34	4	30.5	49.2	20.5	30	34	4	30.5	49.2	20.5	2	0.783	0.000	D	34	49.2	829.016	830.639	831.422	831.425	0
2	22071912	244	Low	10.0	Precise	1	30	34	27	30.5	49.2	10.2	27	30	34	10.2	30.5	49.2	2	1.356	0.000	R	34	49.2	831.927	834.730	836.086	836.088	0
2	22071912	245	Low	10.0	Vague	2	29	33	4	34.0	67.0	20.5	29	33	4	34.0	67.0	20.5	1	1.054	0.001	L	29	34.0	836.591	837.337	838.390	838.393	0
2	22071912	246	Low	10.0	Vague	2	30	35	4	30.5	59.4	20.5	4	35	30	20.5	59.4	30.5	3	1.391	0.000	L	4	20.5	838.895	840.327	841.718	841.720	0
2	22071912	247	Low	10.0	Vague	2	30	33	9	30.5	67.0	15.3	33	9	30	67.0	15.3	30.5	3	1.144	0.000	D	9	15.3	842.223	844.982	846.126	846.128	0
2	22071912	248	Low	10.0	Precise	1	26	35	22	40.1	59.4	20.3	35	26	22	59.4	40.1	20.3	1	2.476	0.001	D	26	40.1	846.631	847.938	850.414	850.417	0
2	22071912	249	Low	10.0	Precise	1	30	34	21	30.5	49.2	2.3	21	30	34	2.3	30.5	49.2	2	1.325	0.001	R	34	49.2	850.919	852.609	853.934	853.937	0
2	22071912	250	Low	10.0	Precise	1	35	33	20	59.4	67.0	1.4	20	35	33	1.4	59.4	67.0	3	1.835	0.000	L	20	1.4	854.440	856.611	858.446	858.449	0
2	22071912	251	Low	10.0	Vague	2	34	33	6	49.2	67.0	5.3	6	33	34	5.3	67.0	49.2	1	1.466	0.001	R	34	49.2	858.951	861.325	862.790	862.792	0
2	22071912	252	Low	10.0	Precise	1	30	26	22	30.5	40.1	20.3	26	30	22	40.1	30.5	20.3	3	2.280	0.000	R	22	20.3	863.295	865.606	867.886	867.888	0
2	22071912	253	Low	10.0	Precise	1	30	26	27	30.5	40.1	10.2	26	27	30	40.1	10.2	30.5	2	3.053	0.000	L	26	40.1	868.391	869.600	872.654	872.656	0
2	22071912	254	Low	10.0	Vague	2	29	34	11	34.0	49.2	10.1	29	34	11	34.0	49.2	10.1	2	1.257	0.000	D	34	49.2	873.159	874.933	876.190	876.192	0
2	22071912	255	Low	10.0	Vague	2	34	33	11	49.2	67.0	10.1	33	11	34	67.0	10.1	49.2	1	1.248	0.001	R	34	49.2	876.695	878.310	879.558	879.560	0
2	22071912	256	Low	10.0	Vague	2	26	33	11	40.1	67.0	10.1	11	33	26	10.1	67.0	40.1	1	2.054	0.000	R	26	40.1	880.063	881.352	883.406	883.409	0
2	22071912	257	Low	10.0	Precise	1	34	35	25	49.2	59.4	15.3	25	34	35	15.3	49.2	59.4	1	1.578	0.000	D	34	49.2	883.911	885.236	886.814	886.816	0
2	22071912	258	Low	10.0	Vague	2	34	35	9	49.2	59.4	15.3	9	34	35	15.3	49.2	59.4	1	1.078	0.000	D	34	49.2	887.319	889.376	890.454	890.456	0
2	22071912	259	Low	10.0	Precise	1	30	29	21	30.5	34.0	2.3	29	21	30	34.0	2.3	30.5	2	2.018	0.001	L	29	34.0	890.959	893.444	895.462	895.465	0
2	22071912	260	Low	10.0	Precise	1	29	35	22	34.0	59.4	20.3	22	35	29	20.3	59.4	34.0	1	1.284	0.000	R	29	34.0	895.968	897.274	898.558	898.560	0
2	22071912	261	Low	10.0	Vague	2	29	33	9	34.0	67.0	15.3	33	9	29	67.0	15.3	34.0	1	1.745	0.001	R	29	34.0	899.063	900.205	901.950	901.953	0
2	22071912	262	Low	10.0	Precise	1	30	29	27	30.5	34.0	10.2	29	27	30	34.0	10.2	30.5	2	0.892	0.001	L	29	34.0	902.455	903.682	904.574	904.577	0
2	22071912	263	Low	10.0	Vague	2	34	35	10	49.2	59.4	30.2	34	10	35	49.2	30.2	59.4	1	1.269	0.000	L	34	49.2	905.079	905.881	907.150	907.152	0
2	22071912	264	Low	10.0	Precise	1	30	35	25	30.5	59.4	15.3	35	25	30	59.4	15.3	30.5	2	2.341	0.001	L	35	59.4	907.655	908.921	911.262	911.265	0
2	22071912	265	Low	10.0	Vague	2	26	33	3	40.1	67.0	5.0	26	3	33	40.1	5.0	67.0	1	2.740	0.000	L	26	40.1	911.767	912.770	915.510	915.512	0
2	22071912	266	Low	10.0	Vague	2	35	33	10	59.4	67.0	30.2	33	35	10	67.0	59.4	30.2	3	1.861	0.000	R	10	30.2	916.015	916.745	918.606	918.609	0
2	22071912	267	Low	10.0	Vague	2	30	29	6	30.5	34.0	5.3	29	30	6	34.0	30.5	5.3	2	1.197	0.001	L	29	34.0	919.111	921.249	922.446	922.448	0
2	22071912	268	Low	10.0	Vague	2	26	34	9	40.1	49.2	15.3	34	9	26	49.2	15.3	40.1	2	0.691	0.000	L	34	49.2	922.951	924.635	925.326	925.328	0
2	22071912	269	Low	10.0	Vague	2	35	33	3	59.4	67.0	5.0	35	33	3	59.4	67.0	5.0	1	4.478	0.000	L	35	59.4	925.831	927.520	931.998	932.003	0
2	22071912	270	Low	10.0	Vague	2	30	33	4	30.5	67.0	20.5	33	4	30	67.0	20.5	30.5	3	4.231	0.000	D	4	20.5	932.506	935.407	939.638	939.644	0
2	22071912	271	Low	10.0	Precise	1	34	33	22	49.2	67.0	20.3	22	34	33	20.3	49.2	67.0	1	1.433	0.000	D	34	49.2	940.147	942.292	943.726	943.728	0
2	22071912	272	Low	10.0	Precise	1	30	29	25	30.5	34.0	15.3	29	25	30	34.0	15.3	30.5	2	1.836	0.000	L	29	34.0	944.231	945.313	947.150	947.152	0
2	22071912	273	Low	10.0	Precise	1	29	35	21	34.0	59.4	2.3	21	35	29	2.3	59.4	34.0	1	0.874	0.000	R	29	34.0	947.655	948.652	949.526	949.528	0
2	22071912	274	Low	10.0	Vague	2	30	26	11	30.5	40.1	10.1	30	11	26	30.5	10.1	40.1	2	3.591	0.000	R	26	40.1	950.031	952.895	956.486	956.491	0
2	22071912	275	Low	10.0	Vague	2	29	34	4	34.0	49.2	20.5	4	29	34	20.5	34.0	49.2	2	0.955	0.000	R	34	49.2	956.994	959.699	960.654	960.656	0
2	22071912	276	Low	10.0	Precise	1	26	35	20	40.1	59.4	1.4	26	20	35	40.1	1.4	59.4	3	0.960	0.001	D	20	1.4	961.159	962.958	963.918	963.920	0
2	22071912	277	Low	10.0	Vague	2	34	35	3	49.2	59.4	5.0	35	3	34	59.4	5.0	49.2	1	1.298	0.000	R	34	49.2	964.423	965.715	967.014	967.017	0
2	22071912	278	Low	10.0	Precise	1	26	33	28	40.1	67.0	23.5	26	33	28	40.1	67.0	23.5	3	1.085	0.001	R	28	23.5	967.519	968.601	969.686	969.688	0
2	22071912	279	Low	10.0	Vague	2	29	26	3	34.0	40.1	5.0	29	26	3	34.0	40.1	5.0	1	1.508	0.000	L	29	34.0	970.191	971.130	972.638	972.640	0
2	22071912	280	Low	10.0	Precise	1	30	26	25	30.5	40.1	15.3	25	26	30	15.3	40.1	30.5	2	2.629	0.000	D	26	40.1	973.143	975.241	977.870	977.873	0
2	22071912	281	Low	10.0	Precise	1	30	29	22	30.5	34.0	20.3	22	30	29	20.3	30.5	34.0	2	1.184	0.000	R	29	34.0	978.375	979.886	981.070	981.072	0
2	22071912	282	Low	10.0	Vague	2	30	26	10	30.5	40.1	30.2	10	26	30	30.2	40.1	30.5	3	1.449	0.000	L	10	30.2	981.575	982.814	984.262	984.264	0
2	22071912	283	Low	10.0	Vague	2	26	35	4	40.1	59.4	20.5	4	35	26	20.5	59.4	40.1	1	1.536	0.001	R	26	40.1	984.767	986.006	987.542	987.544	0
2	22071912	284	Low	10.0	Vague	2	26	33	4	40.1	67.0	20.5	4	26	33	20.5	40.1	67.0	1	1.906	0.000	D	26	40.1	988.047	990.988	992.894	992.896	0
2	22071912	285	Low	10.0	Vague	2	26	34	10	40.1	49.2	30.2	26	10	34	40.1	30.2	49.2	2	1.368	0.001	R	34	49.2	993.399	994.374	995.742	995.744	0
2	22071912	286	Low	10.0	Precise	1	35	33	21	59.4	67.0	2.3	21	35	33	2.3	59.4	67.0	1	1.745	0.000	D	35	59.4	996.247	997.765	999.510	999.512	0
2	22071912	287	Low	10.0	Precise	1	30	33	21	30.5	67.0	2.3	33	21	30	67.0	2.3	30.5	3	2.637	0.000	D	21	2.3	1000.016	1001.433	1004.070	1004.072	0
2	22071912	288	Low	10.0	Precise	1	30	26	20	30.5	40.1	1.4	30	26	20	30.5	40.1	1.4	3	1.177	0.000	R	20	1.4	1004.575	1005.949	1007.126	1007.128	0
2	22071912	289	Low	10.0	Precise	1	30	33	28	30.5	67.0	23.5	33	28	30	67.0	23.5	30.5	3	1.089	0.000	D	28	23.5	1007.631	1009.557	1010.646	1010.648	0
2	22071912	290	Low	10.0	Vague	2	29	34	10	34.0	49.2	30.2	34	29	10	49.2	34.0	30.2	2	1.112	0.001	L	34	49.2	1011.151	1011.814	1012.926	1012.928	0
2	22071912	291	Low	10.0	Precise	1	26	35	21	40.1	59.4	2.3	21	35	26	2.3	59.4	40.1	2	1.330	0.001	D	35	59.4	1013.431	1015.500	1016.830	1016.832	0
2	22071912	292	Low	10.0	Vague	2	29	35	3	34.0	59.4	5.0	29	3	35	34.0	5.0	59.4	1	1.200	0.001	L	29	34.0	1017.335	1019.606	1020.806	1020.808	0
2	22071912	293	Low	10.0	Vague	2	30	26	6	30.5	40.1	5.3	26	6	30	40.1	5.3	30.5	2	1.606	0.001	L	26	40.1	1021.311	1022.617	1024.222	1024.225	0
2	22071912	294	Low	10.0	Precise	1	34	33	21	49.2	67.0	2.3	33	21	34	67.0	2.3	49.2	1	1.195	0.001	R	34	49.2	1024.727	1026.371	1027.566	1027.568	0
2	22071912	295	Low	10.0	Precise	1	29	33	20	34.0	67.0	1.4	29	33	20	34.0	67.0	1.4	3	1.619	0.000	R	20	1.4	1028.071	1030.050	1031.670	1031.672	0
2	22071912	296	Low	10.0	Vague	2	30	35	9	30.5	59.4	15.3	9	35	30	15.3	59.4	30.5	3	1.134	0.000	L	9	15.3	1032.174	1034.112	1035.246	1035.248	0
2	22071912	297	Low	10.0	Vague	2	26	34	4	40.1	49.2	20.5	34	26	4	49.2	40.1	20.5	2	1.087	0.000	L	34	49.2	1035.751	1038.143	1039.230	1039.232	0
2	22071912	298	Low	10.0	Vague	2	30	29	10	30.5	34.0	30.2	29	30	10	34.0	30.5	30.2	2	1.129	0.000	L	29	34.0	1039.735	1041.917	1043.046	1043.048	0
2	22071912	299	Low	10.0	Vague	2	30	35	10	30.5	59.4	30.2	30	10	35	30.5	30.2	59.4	3	1.334	0.000	D	10	30.2	1043.552	1044.576	1045.910	1045.913	0
2	22071912	300	Low	10.0	Precise	1	29	34	20	34.0	49.2	1.4	29	34	20	34.0	49.2	1.4	2	1.371	0.000	D	34	49.2	1046.415	1047.851	1049.222	1049.224	0
2	22071912	301	Low	10.0	Vague	2	35	33	9	59.4	67.0	15.3	9	35	33	15.3	59.4	67.0	3	1.973	0.000	L	9	15.3	1053.687	1054.329	1056.302	1056.305	0
2	22071912	302	Low	10.0	Vague	2	30	34	6	30.5	49.2	5.3	30	34	6	30.5	49.2	5.3	2	0.709	0.000	D	34	49.2	1056.807	1058.113	1058.822	1058.824	0
2	22071912	303	Low	10.0	Vague	2	26	33	10	40.1	67.0	30.2	26	10	33	40.1	30.2	67.0	3	1.011	0.000	D	10	30.2	1059.327	1061.171	1062.182	1062.184	0
2	22071912	304	Low	10.0	Vague	2	29	26	11	34.0	40.1	10.1	11	29	26	10.1	34.0	40.1	1	1.262	0.000	D	29	34.0	1062.686	1063.880	1065.142	1065.144	0
2	22071912	305	Low	10.0	Precise	1	26	33	25	40.1	67.0	15.3	25	26	33	15.3	40.1	67.0	1	2.020	0.000	D	26	40.1	1065.647	1066.482	1068.502	1068.504	0
2	22071912	306	Low	10.0	Vague	2	29	26	6	34.0	40.1	5.3	6	29	26	5.3	34.0	40.1	1	1.177	0.000	D	29	34.0	1069.006	1069.957	1071.134	1071.136	0
2	22071912	307	Low	10.0	Precise	1	35	33	22	59.4	67.0	20.3	35	22	33	59.4	20.3	67.0	3	4.592	0.001	D	22	20.3	1071.639	1072.270	1076.862	1076.865	0
2	22071912	308	Low	10.0	Precise	1	26	33	20	40.1	67.0	1.4	33	20	26	67.0	1.4	40.1	3	0.797	0.001	D	20	1.4	1077.367	1078.361	1079.158	1079.160	0
2	22071912	309	Low	10.0	Vague	2	29	26	9	34.0	40.1	15.3	26	9	29	40.1	15.3	34.0	3	2.107	0.000	D	9	15.3	1079.663	1080.483	1082.590	1082.592	0
2	22071912	310	Low	10.0	Precise	1	34	33	28	49.2	67.0	23.5	34	33	28	49.2	67.0	23.5	1	0.835	0.001	L	34	49.2	1083.095	1084.427	1085.262	1085.265	0
2	22071912	311	Low	10.0	Precise	1	34	35	22	49.2	59.4	20.3	35	22	34	59.4	20.3	49.2	1	0.752	0.000	R	34	49.2	1085.767	1087.118	1087.870	1087.872	0
2	22071912	312	Low	10.0	Vague	2	26	35	10	40.1	59.4	30.2	35	26	10	59.4	40.1	30.2	1	1.424	0.000	D	26	40.1	1088.376	1089.038	1090.462	1090.464	0
2	22071912	313	Low	10.0	Precise	1	34	33	25	49.2	67.0	15.3	34	25	33	49.2	15.3	67.0	1	0.627	0.000	L	34	49.2	1090.967	1093.834	1094.462	1094.464	0
2	22071912	314	Low	10.0	Vague	2	29	26	10	34.0	40.1	30.2	10	29	26	30.2	34.0	40.1	3	0.869	0.000	L	10	30.2	1094.967	1095.473	1096.342	1096.344	0
2	22071912	315	Low	10.0	Precise	1	34	33	27	49.2	67.0	10.2	33	34	27	67.0	49.2	10.2	1	1.274	0.000	D	34	49.2	1096.847	1099.012	1100.286	1100.288	0
2	22071912	316	Low	10.0	Vague	2	29	35	9	34.0	59.4	15.3	9	29	35	15.3	34.0	59.4	1	1.808	0.001	D	29	34.0	1100.791	1101.950	1103.758	1103.761	0
2	22071912	317	Low	10.0	Precise	1	30	33	25	30.5	67.0	15.3	25	30	33	15.3	30.5	67.0	2	1.759	0.000	R	33	67.0	1104.263	1105.047	1106.806	1106.808	0
2	22071912	318	Low	10.0	Vague	2	29	33	3	34.0	67.0	5.0	3	29	33	5.0	34.0	67.0	1	1.232	0.001	D	29	34.0	1107.311	1108.230	1109.462	1109.464	0
2	22071912	319	Low	10.0	Vague	2	30	29	9	30.5	34.0	15.3	9	29	30	15.3	34.0	30.5	2	1.706	0.000	D	29	34.0	1109.968	1111.308	1113.014	1113.016	0
2	22071912	320	Low	10.0	Vague	2	30	29	11	30.5	34.0	10.1	30	11	29	30.5	10.1	34.0	2	1.248	0.000	R	29	34.0	1113.519	1115.670	1116.918	1116.920	0
2	22071912	321	Low	10.0	Precise	1	30	26	21	30.5	40.1	2.3	21	30	26	2.3	30.5	40.1	2	1.778	0.000	R	26	40.1	1117.423	1119.419	1121.198	1121.200	0
2	22071912	322	Low	10.0	Precise	1	34	35	20	49.2	59.4	1.4	34	20	35	49.2	1.4	59.4	1	1.652	0.000	L	34	49.2	1121.703	1122.994	1124.646	1124.648	0
2	22071912	323	Low	10.0	Vague	2	26	35	9	40.1	59.4	15.3	35	26	9	59.4	40.1	15.3	3	1.370	0.000	R	9	15.3	1125.151	1128.059	1129.430	1129.432	0
2	22071912	324	Low	10.0	Precise	1	29	34	21	34.0	49.2	2.3	21	29	34	2.3	34.0	49.2	2	6.830	0.001	R	34	49.2	1129.935	1132.064	1138.894	1138.900	0
2	22071912	325	Low	10.0	Precise	1	29	33	22	34.0	67.0	20.3	29	22	33	34.0	20.3	67.0	1	0.628	0.001	L	29	34.0	1139.403	1140.194	1140.822	1140.824	0
2	22071912	326	Low	10.0	Vague	2	34	35	4	49.2	59.4	20.5	35	34	4	59.4	49.2	20.5	1	0.999	0.000	D	34	49.2	1141.328	1143.991	1144.990	1144.992	0
2	22071912	327	Low	10.0	Vague	2	30	35	11	30.5	59.4	10.1	11	30	35	10.1	30.5	59.4	2	2.441	0.000	R	35	59.4	1145.495	1146.493	1148.934	1148.936	0
2	22071912	328	Low	10.0	Precise	1	30	35	27	30.5	59.4	10.2	30	35	27	30.5	59.4	10.2	2	1.763	0.001	D	35	59.4	1149.438	1151.107	1152.870	1152.872	0
2	22071912	329	Low	10.0	Precise	1	29	34	28	34.0	49.2	23.5	29	34	28	34.0	49.2	23.5	2	1.282	0.000	D	34	49.2	1153.375	1155.748	1157.030	1157.033	0
2	22071912	330	Low	10.0	Vague	2	29	35	6	34.0	59.4	5.3	6	35	29	5.3	59.4	34.0	1	1.747	0.000	R	29	34.0	1157.535	1158.779	1160.526	1160.529	0
2	22071912	331	Low	10.0	Precise	1	29	33	27	34.0	67.0	10.2	33	29	27	67.0	34.0	10.2	1	1.229	0.000	D	29	34.0	1161.031	1162.984	1164.214	1164.216	0
2	22071912	332	Low	10.0	Precise	1	29	33	21	34.0	67.0	2.3	21	33	29	2.3	67.0	34.0	1	0.658	0.000	R	29	34.0	1164.719	1167.587	1168.246	1168.248	0
2	22071912	333	Low	10.0	Precise	1	29	26	28	34.0	40.1	23.5	29	28	26	34.0	23.5	40.1	3	1.044	0.001	D	28	23.5	1168.751	1170.761	1171.806	1171.808	0
2	22071912	334	Low	10.0	Vague	2	34	33	10	49.2	67.0	30.2	33	10	34	67.0	30.2	49.2	1	0.623	0.000	R	34	49.2	1172.311	1173.711	1174.334	1174.336	0
2	22071912	335	Low	10.0	Precise	1	29	35	27	34.0	59.4	10.2	35	29	27	59.4	34.0	10.2	1	0.795	0.001	D	29	34.0	1174.838	1176.867	1177.662	1177.664	0
2	22071912	336	Low	10.0	Precise	1	34	35	28	49.2	59.4	23.5	35	34	28	59.4	49.2	23.5	1	0.832	0.000	D	34	49.2	1178.167	1179.758	1180.590	1180.592	0
2	22071912	337	Low	10.0	Vague	2	26	35	6	40.1	59.4	5.3	6	26	35	5.3	40.1	59.4	1	3.638	0.000	D	26	40.1	1181.094	1183.632	1187.270	1187.275	0
2	22071912	338	Low	10.0	Precise	1	30	29	20	30.5	34.0	1.4	29	30	20	34.0	30.5	1.4	2	1.598	0.001	L	29	34.0	1187.777	1189.008	1190.606	1190.608	0
2	22071912	339	Low	10.0	Vague	2	30	33	11	30.5	67.0	10.1	11	33	30	10.1	67.0	30.5	1	4.462	0.001	R	30	30.5	1191.111	1192.112	1196.574	1196.576	0
2	22071912	340	Low	10.0	Precise	1	29	26	21	34.0	40.1	2.3	26	29	21	40.1	34.0	2.3	1	1.320	0.000	D	29	34.0	1197.079	1199.158	1200.478	1200.480	0
2	22071912	341	Low	10.0	Precise	1	26	34	22	40.1	49.2	20.3	34	26	22	49.2	40.1	20.3	2	0.927	0.000	L	34	49.2	1200.983	1203.943	1204.870	1204.872	0
2	22071912	342	Low	10.0	Precise	1	30	34	25	30.5	49.2	15.3	30	34	25	30.5	49.2	15.3	2	0.676	0.001	D	34	49.2	1205.375	1207.905	1208.582	1208.584	0
2	22071912	343	Low	10.0	Precise	1	30	35	22	30.5	59.4	20.3	30	22	35	30.5	20.3	59.4	3	1.578	0.000	D	22	20.3	1209.087	1211.652	1213.230	1213.232	0
2	22071912	344	Low	10.0	Vague	2	30	34	9	30.5	49.2	15.3	30	34	9	30.5	49.2	15.3	2	0.647	0.000	D	34	49.2	1213.735	1216.535	1217.182	1217.184	0
2	22071912	345	Low	10.0	Precise	1	29	26	25	34.0	40.1	15.3	26	29	25	40.1	34.0	15.3	1	0.849	0.000	D	29	34.0	1217.686	1219.237	1220.086	1220.088	0
2	22071912	346	Low	10.0	Vague	2	35	33	6	59.4	67.0	5.3	33	35	6	67.0	59.4	5.3	1	1.881	0.000	D	35	59.4	1220.590	1221.141	1223.022	1223.024	0
2	22071912	347	Low	10.0	Precise	1	30	33	27	30.5	67.0	10.2	27	33	30	10.2	67.0	30.5	3	1.270	0.000	L	27	10.2	1223.527	1225.816	1227.085	1227.088	0
2	22071912	348	Low	10.0	Vague	2	26	33	9	40.1	67.0	15.3	9	33	26	15.3	67.0	40.1	3	0.975	0.000	L	9	15.3	1227.590	1228.734	1229.709	1229.712	0
2	22071912	349	Low	10.0	Precise	1	30	35	21	30.5	59.4	2.3	30	21	35	30.5	2.3	59.4	2	1.223	0.000	R	35	59.4	1230.215	1231.679	1232.902	1232.904	0
2	22071912	350	Low	10.0	Vague	2	30	33	3	30.5	67.0	5.0	30	3	33	30.5	5.0	67.0	1	1.131	0.000	L	30	30.5	1233.407	1234.819	1235.950	1235.952	0
2	22071912	351	Low	10.0	Vague	2	29	34	9	34.0	49.2	15.3	34	9	29	49.2	15.3	34.0	2	0.652	0.000	L	34	49.2	1236.455	1238.905	1239.558	1239.560	0
2	22071912	352	Low	10.0	Vague	2	29	33	10	34.0	67.0	30.2	10	29	33	30.2	34.0	67.0	3	1.089	0.001	L	10	30.2	1240.062	1242.877	1243.966	1243.968	0
2	22071912	353	Low	10.0	Precise	1	26	33	21	40.1	67.0	2.3	26	33	21	40.1	67.0	2.3	1	1.644	0.000	L	26	40.1	1244.471	1246.978	1248.622	1248.624	0
2	22071912	354	Low	10.0	Precise	1	30	33	22	30.5	67.0	20.3	30	22	33	30.5	20.3	67.0	3	1.503	0.000	D	22	20.3	1249.127	1251.559	1253.062	1253.064	0
2	22071912	355	Low	10.0	Vague	2	34	33	3	49.2	67.0	5.0	3	34	33	5.0	49.2	67.0	1	1.026	0.000	D	34	49.2	1253.567	1254.572	1255.598	1255.600	0
2	22071912	356	Low	10.0	Precise	1	26	33	27	40.1	67.0	10.2	27	26	33	10.2	40.1	67.0	1	1.145	0.001	D	26	40.1	1256.103	1257.981	1259.126	1259.128	0
2	22071912	357	Low	10.0	Precise	1	35	33	25	59.4	67.0	15.3	35	33	25	59.4	67.0	15.3	2	2.794	0.000	D	33	67.0	1259.631	1260.740	1263.534	1263.536	0
2	22071912	358	Low	10.0	Precise	1	30	34	28	30.5	49.2	23.5	30	34	28	30.5	49.2	23.5	2	1.012	0.000	D	34	49.2	1264.039	1264.617	1265.630	1265.632	0
2	22071912	359	Low	10.0	Vague	2	30	33	6	30.5	67.0	5.3	6	33	30	5.3	67.0	30.5	2	1.529	0.000	D	33	67.0	1266.134	1267.845	1269.374	1269.377	0
2	22071912	360	Low	10.0	Precise	1	30	35	20	30.5	59.4	1.4	30	35	20	30.5	59.4	1.4	3	1.640	0.000	R	20	1.4	1269.880	1271.877	1273.517	1273.520	0
