Group	subID	trial	TimePressure	TimeConstraint	Vagueness	Vaguenesscode	ID1	ID2	ID3	V1	V2	V3	ID_left	ID_middle	ID_right	Bid_left	Bid_middle	Bid_right	chosenItem	RT	RTvariance	chosenPosition	chosenID	chosenValue	fixation_time	option_time	choice_time	feedback_time	timeout
2	22110304	1	High	1.5	Vague	2	27	29	13	1.8	2.4	1.2	13	27	29	1.2	1.8	2.4	2	0.816	0.000	R	29	2.4	3.746	6.250	7.066	7.070	0
2	22110304	2	High	1.5	Precise	1	31	33	30	3.4	6.2	0.6	30	31	33	0.6	3.4	6.2	2	1.111	0.000	R	33	6.2	7.576	9.531	10.642	10.645	0
2	22110304	3	High	1.5	Vague	2	36	31	7	2.5	3.4	1.0	7	36	31	1.0	2.5	3.4	2	0.832	0.000	R	31	3.4	11.150	13.170	14.002	14.005	0
2	22110304	4	High	1.5	Vague	2	29	33	2	2.4	6.2	0.8	29	33	2	2.4	6.2	0.8	1	0.865	0.000	L	29	2.4	14.510	15.538	16.403	16.405	0
2	22110304	5	High	1.5	Vague	2	27	29	5	1.8	2.4	1.2	27	5	29	1.8	1.2	2.4	1	1.146	0.001	L	27	1.8	16.909	19.177	20.323	20.327	0
2	22110304	6	High	1.5	Vague	2	27	34	5	1.8	11.0	1.2	5	27	34	1.2	1.8	11.0	2	0.591	0.000	R	34	11.0	20.833	23.195	23.786	23.789	0
2	22110304	7	High	1.5	Vague	2	31	33	13	3.4	6.2	1.2	33	31	13	6.2	3.4	1.2	2	0.722	0.001	L	33	6.2	24.292	25.409	26.131	26.133	0
2	22110304	8	High	1.5	Vague	2	27	36	7	1.8	2.5	1.0	27	7	36	1.8	1.0	2.5	2	0.903	0.001	R	36	2.5	26.636	27.908	28.811	28.813	0
2	22110304	9	High	1.5	Precise	1	31	34	30	3.4	11.0	0.6	30	34	31	0.6	11.0	3.4	1	0.588	0.001	R	31	3.4	29.315	31.614	32.203	32.206	0
2	22110304	10	High	1.5	Precise	1	27	34	22	1.8	11.0	0.8	27	34	22	1.8	11.0	0.8	2	0.579	0.000	D	34	11.0	32.708	33.840	34.419	34.421	0
2	22110304	11	High	1.5	Precise	1	29	33	30	2.4	6.2	0.6	33	29	30	6.2	2.4	0.6	1	1.000	0.001	D	29	2.4	34.923	37.506	38.507	38.510	0
2	22110304	12	High	1.5	Precise	1	36	33	28	2.5	6.2	1.4	33	36	28	6.2	2.5	1.4	3	0.799	0.001	R	28	1.4	39.013	41.980	42.778	42.781	0
2	22110304	13	High	1.5	Vague	2	36	34	7	2.5	11.0	1.0	36	7	34	2.5	1.0	11.0	2	0.502	0.000	R	34	11.0	43.283	45.796	46.298	46.301	0
2	22110304	14	High	1.5	Precise	1	36	31	35	2.5	3.4	1.0	35	31	36	1.0	3.4	2.5	1	0.915	0.001	R	36	2.5	46.804	47.911	48.827	48.829	0
2	22110304	15	High	1.5	Precise	1	27	29	22	1.8	2.4	0.8	29	22	27	2.4	0.8	1.8	1	0.917	0.000	R	27	1.8	49.332	50.149	51.067	51.069	0
2	22110304	16	High	1.5	Vague	2	31	33	7	3.4	6.2	1.0	7	31	33	1.0	3.4	6.2	2	0.834	0.000	R	33	6.2	51.572	52.928	53.762	53.765	0
2	22110304	17	High	1.5	Vague	2	27	31	11	1.8	3.4	0.4	27	31	11	1.8	3.4	0.4	2	0.928	0.001	D	31	3.4	54.267	55.746	56.675	56.677	0
2	22110304	18	High	1.5	Precise	1	27	34	28	1.8	11.0	1.4	34	27	28	11.0	1.8	1.4	2	0.653	0.000	L	34	11.0	57.179	59.893	60.546	60.549	0
2	22110304	19	High	1.5	Precise	1	27	31	35	1.8	3.4	1.0	27	31	35	1.8	3.4	1.0	1	0.880	0.001	L	27	1.8	61.052	63.499	64.379	64.382	0
2	22110304	20	High	1.5	Vague	2	36	33	7	2.5	6.2	1.0	33	7	36	6.2	1.0	2.5	2	0.916	0.000	L	33	6.2	64.884	65.462	66.378	66.381	0
2	22110304	21	High	1.5	Precise	1	36	33	30	2.5	6.2	0.6	33	36	30	6.2	2.5	0.6	2	0.777	0.000	L	33	6.2	66.884	69.826	70.602	70.605	0
2	22110304	22	High	1.5	Vague	2	36	34	18	2.5	11.0	1.5	18	34	36	1.5	11.0	2.5	1	0.772	0.000	R	36	2.5	71.107	72.758	73.530	73.533	0
2	22110304	23	High	1.5	Precise	1	27	36	21	1.8	2.5	0.2	36	27	21	2.5	1.8	0.2	2	0.752	0.000	L	36	2.5	74.036	75.667	76.418	76.421	0
2	22110304	24	High	1.5	Precise	1	29	36	21	2.4	2.5	0.2	36	29	21	2.5	2.4	0.2	2	0.732	0.001	L	36	2.5	76.923	79.135	79.867	79.869	0
2	22110304	25	High	1.5	Vague	2	29	36	13	2.4	2.5	1.2	29	13	36	2.4	1.2	2.5	1	0.799	0.000	L	29	2.4	80.371	81.819	82.618	82.621	0
2	22110304	26	High	1.5	Precise	1	33	34	28	6.2	11.0	1.4	28	33	34	1.4	6.2	11.0	2	0.599	0.001	R	34	11.0	83.124	84.339	84.939	84.941	0
2	22110304	27	High	1.5	Precise	1	36	31	21	2.5	3.4	0.2	36	21	31	2.5	0.2	3.4	1	0.786	0.001	L	36	2.5	85.443	86.680	87.466	87.469	0
2	22110304	28	High	1.5	Vague	2	27	29	7	1.8	2.4	1.0	7	29	27	1.0	2.4	1.8	3	1.176	0.000	L	7	1.0	87.972	90.114	91.290	91.293	0
2	22110304	29	High	1.5	Precise	1	36	31	28	2.5	3.4	1.4	28	36	31	1.4	2.5	3.4	3	1.117	0.000	L	28	1.4	91.795	93.910	95.026	95.029	0
2	22110304	30	High	1.5	Precise	1	36	33	22	2.5	6.2	0.8	36	33	22	2.5	6.2	0.8	1	0.800	0.001	L	36	2.5	95.532	97.003	97.802	97.805	0
2	22110304	31	High	1.5	Precise	1	36	31	22	2.5	3.4	0.8	36	31	22	2.5	3.4	0.8	1	1.206	0.000	L	36	2.5	98.308	100.324	101.530	101.533	0
2	22110304	32	High	1.5	Precise	1	36	34	21	2.5	11.0	0.2	34	21	36	11.0	0.2	2.5	2	0.761	0.001	L	34	11.0	102.035	103.105	103.867	103.869	0
2	22110304	33	High	1.5	Vague	2	29	33	7	2.4	6.2	1.0	29	7	33	2.4	1.0	6.2	2	0.848	0.001	R	33	6.2	104.372	106.994	107.843	107.845	0
2	22110304	34	High	1.5	Precise	1	36	31	26	2.5	3.4	0.4	31	36	26	3.4	2.5	0.4	1	1.116	0.000	D	36	2.5	108.348	109.166	110.282	110.285	0
2	22110304	35	High	1.5	Vague	2	27	36	5	1.8	2.5	1.2	27	5	36	1.8	1.2	2.5	2	0.771	0.001	R	36	2.5	110.788	112.863	113.634	113.637	0
2	22110304	36	High	1.5	Precise	1	27	31	21	1.8	3.4	0.2	27	31	21	1.8	3.4	0.2	1	0.898	0.001	L	27	1.8	114.140	115.945	116.842	116.845	0
2	22110304	37	High	1.5	Precise	1	36	34	26	2.5	11.0	0.4	36	34	26	2.5	11.0	0.4	2	0.999	0.000	D	34	11.0	117.347	117.899	118.898	118.901	0
2	22110304	38	High	1.5	Vague	2	29	31	13	2.4	3.4	1.2	31	13	29	3.4	1.2	2.4	2	0.850	0.001	L	31	3.4	119.404	122.137	122.987	122.989	0
2	22110304	39	High	1.5	Precise	1	29	31	30	2.4	3.4	0.6	29	31	30	2.4	3.4	0.6	3	0.935	0.000	R	30	0.6	123.493	125.859	126.794	126.797	0
2	22110304	40	High	1.5	Vague	2	27	33	2	1.8	6.2	0.8	33	2	27	6.2	0.8	1.8	1	0.888	0.000	R	27	1.8	127.300	128.554	129.442	129.445	0
2	22110304	41	High	1.5	Precise	1	29	31	26	2.4	3.4	0.4	29	26	31	2.4	0.4	3.4	1	1.134	0.001	L	29	2.4	129.947	132.565	133.699	133.701	0
2	22110304	42	High	1.5	Precise	1	27	33	35	1.8	6.2	1.0	33	35	27	6.2	1.0	1.8	1	0.616	0.000	R	27	1.8	134.203	135.011	135.626	135.629	0
2	22110304	43	High	1.5	Precise	1	36	33	26	2.5	6.2	0.4	26	33	36	0.4	6.2	2.5	2	0.913	0.001	D	33	6.2	136.131	137.074	137.987	137.989	0
2	22110304	44	High	1.5	Vague	2	33	34	11	6.2	11.0	0.4	34	11	33	11.0	0.4	6.2	2	0.757	0.000	L	34	11.0	138.492	141.317	142.074	142.077	0
2	22110304	45	High	1.5	Precise	1	29	34	22	2.4	11.0	0.8	34	29	22	11.0	2.4	0.8	2	0.579	0.001	L	34	11.0	142.580	144.808	145.386	145.389	0
2	22110304	46	High	1.5	Vague	2	27	36	2	1.8	2.5	0.8	2	36	27	0.8	2.5	1.8	1	1.013	0.001	R	27	1.8	145.892	147.453	148.467	148.469	0
2	22110304	47	High	1.5	Precise	1	27	29	26	1.8	2.4	0.4	27	29	26	1.8	2.4	0.4	1	0.903	0.000	L	27	1.8	148.971	151.123	152.026	152.029	0
2	22110304	48	High	1.5	Precise	1	27	33	22	1.8	6.2	0.8	27	22	33	1.8	0.8	6.2	1	0.490	0.000	L	27	1.8	152.532	153.360	153.850	153.853	0
2	22110304	49	High	1.5	Vague	2	36	31	11	2.5	3.4	0.4	11	31	36	0.4	3.4	2.5	1	0.815	0.001	R	36	2.5	154.356	156.107	156.922	156.925	0
2	22110304	50	High	1.5	Vague	2	36	34	11	2.5	11.0	0.4	34	11	36	11.0	0.4	2.5	2	0.609	0.000	L	34	11.0	157.427	158.337	158.946	158.949	0
2	22110304	51	High	1.5	Precise	1	33	34	21	6.2	11.0	0.2	34	33	21	11.0	6.2	0.2	2	0.440	0.001	L	34	11.0	159.452	160.514	160.955	160.957	0
2	22110304	52	High	1.5	Vague	2	29	31	18	2.4	3.4	1.5	31	18	29	3.4	1.5	2.4	1	1.099	0.001	R	29	2.4	161.460	161.999	163.098	163.101	0
2	22110304	53	High	1.5	Vague	2	36	31	2	2.5	3.4	0.8	36	31	2	2.5	3.4	0.8	1	0.733	0.000	L	36	2.5	163.603	164.517	165.250	165.253	0
2	22110304	54	High	1.5	Vague	2	27	33	13	1.8	6.2	1.2	27	33	13	1.8	6.2	1.2	1	0.712	0.000	L	27	1.8	165.756	168.690	169.402	169.405	0
2	22110304	55	High	1.5	Precise	1	31	34	26	3.4	11.0	0.4	34	26	31	11.0	0.4	3.4	2	0.622	0.000	L	34	11.0	169.907	171.468	172.090	172.093	0
2	22110304	56	High	1.5	Precise	1	27	31	26	1.8	3.4	0.4	27	26	31	1.8	0.4	3.4	1	1.023	0.001	L	27	1.8	172.596	173.324	174.346	174.349	0
2	22110304	57	High	1.5	Vague	2	29	34	18	2.4	11.0	1.5	29	18	34	2.4	1.5	11.0	2	0.711	0.001	R	34	11.0	174.851	176.747	177.458	177.461	0
2	22110304	58	High	1.5	Precise	1	29	33	28	2.4	6.2	1.4	33	29	28	6.2	2.4	1.4	2	1.272	0.001	L	33	6.2	177.963	180.587	181.859	181.861	0
2	22110304	59	High	1.5	Vague	2	29	36	7	2.4	2.5	1.0	36	7	29	2.5	1.0	2.4	NaN	NaN	NaN	NaN	NaN	NaN	182.363	184.584	NaN	186.075	1
2	22110304	60	High	1.5	Precise	1	27	36	35	1.8	2.5	1.0	27	36	35	1.8	2.5	1.0	1	0.585	0.001	L	27	1.8	188.079	189.801	190.386	190.391	0
2	22110304	61	High	1.5	Precise	1	29	31	21	2.4	3.4	0.2	29	31	21	2.4	3.4	0.2	1	0.688	0.001	L	29	2.4	199.187	200.794	201.482	201.485	0
2	22110304	62	High	1.5	Vague	2	27	34	11	1.8	11.0	0.4	11	27	34	0.4	1.8	11.0	2	0.638	0.001	R	34	11.0	201.988	202.988	203.626	203.629	0
2	22110304	63	High	1.5	Vague	2	27	34	7	1.8	11.0	1.0	34	27	7	11.0	1.8	1.0	2	0.520	0.001	L	34	11.0	204.131	205.778	206.298	206.301	0
2	22110304	64	High	1.5	Vague	2	29	33	18	2.4	6.2	1.5	18	33	29	1.5	6.2	2.4	2	0.854	0.000	D	33	6.2	206.804	209.004	209.858	209.860	0
2	22110304	65	High	1.5	Precise	1	29	31	35	2.4	3.4	1.0	35	29	31	1.0	2.4	3.4	1	0.764	0.000	D	29	2.4	210.364	212.206	212.970	212.973	0
2	22110304	66	High	1.5	Precise	1	27	33	28	1.8	6.2	1.4	33	27	28	6.2	1.8	1.4	2	0.683	0.000	L	33	6.2	213.476	216.087	216.770	216.772	0
2	22110304	67	High	1.5	Precise	1	29	31	22	2.4	3.4	0.8	22	29	31	0.8	2.4	3.4	3	0.965	0.001	L	22	0.8	217.276	217.853	218.818	218.821	0
2	22110304	68	High	1.5	Vague	2	29	31	11	2.4	3.4	0.4	31	29	11	3.4	2.4	0.4	1	1.002	0.000	D	29	2.4	219.324	221.096	222.098	222.101	0
2	22110304	69	High	1.5	Vague	2	29	34	5	2.4	11.0	1.2	29	34	5	2.4	11.0	1.2	2	0.630	0.000	D	34	11.0	222.604	223.828	224.458	224.461	0
2	22110304	70	High	1.5	Precise	1	27	36	22	1.8	2.5	0.8	22	36	27	0.8	2.5	1.8	2	0.920	0.000	D	36	2.5	224.964	227.898	228.818	228.821	0
2	22110304	71	High	1.5	Precise	1	29	33	35	2.4	6.2	1.0	29	35	33	2.4	1.0	6.2	2	0.898	0.001	R	33	6.2	229.323	231.784	232.682	232.685	0
2	22110304	72	High	1.5	Vague	2	27	34	13	1.8	11.0	1.2	13	34	27	1.2	11.0	1.8	2	0.669	0.001	D	34	11.0	233.188	235.181	235.850	235.854	0
2	22110304	73	High	1.5	Precise	1	27	31	30	1.8	3.4	0.6	30	31	27	0.6	3.4	1.8	1	0.720	0.000	R	27	1.8	236.357	237.146	237.866	237.869	0
2	22110304	74	High	1.5	Vague	2	36	33	2	2.5	6.2	0.8	2	33	36	0.8	6.2	2.5	1	0.911	0.001	R	36	2.5	238.371	239.595	240.506	240.509	0
2	22110304	75	High	1.5	Precise	1	29	36	30	2.4	2.5	0.6	30	36	29	0.6	2.5	2.4	2	0.932	0.001	D	36	2.5	241.011	241.734	242.666	242.669	0
2	22110304	76	High	1.5	Vague	2	27	31	7	1.8	3.4	1.0	7	27	31	1.0	1.8	3.4	2	0.840	0.000	R	31	3.4	243.172	244.602	245.442	245.445	0
2	22110304	77	High	1.5	Precise	1	31	33	26	3.4	6.2	0.4	26	33	31	0.4	6.2	3.4	1	0.810	0.001	R	31	3.4	245.947	247.481	248.290	248.293	0
2	22110304	78	High	1.5	Vague	2	29	31	5	2.4	3.4	1.2	31	5	29	3.4	1.2	2.4	3	0.748	0.001	D	5	1.2	248.795	251.270	252.018	252.021	0
2	22110304	79	High	1.5	Vague	2	33	34	2	6.2	11.0	0.8	34	33	2	11.0	6.2	0.8	2	0.575	0.000	L	34	11.0	252.524	253.084	253.658	253.661	0
2	22110304	80	High	1.5	Vague	2	29	36	5	2.4	2.5	1.2	29	36	5	2.4	2.5	1.2	2	0.659	0.001	D	36	2.5	254.164	255.871	256.530	256.533	0
2	22110304	81	High	1.5	Vague	2	31	33	2	3.4	6.2	0.8	2	31	33	0.8	3.4	6.2	2	1.154	0.000	R	33	6.2	257.036	259.159	260.314	260.316	0
2	22110304	82	High	1.5	Precise	1	27	29	30	1.8	2.4	0.6	30	29	27	0.6	2.4	1.8	1	0.630	0.000	R	27	1.8	260.819	261.748	262.378	262.381	0
2	22110304	83	High	1.5	Vague	2	29	33	11	2.4	6.2	0.4	11	33	29	0.4	6.2	2.4	2	0.648	0.001	D	33	6.2	262.884	265.874	266.522	266.525	0
2	22110304	84	High	1.5	Vague	2	36	34	13	2.5	11.0	1.2	13	34	36	1.2	11.0	2.5	2	0.578	0.001	D	34	11.0	267.028	267.784	268.362	268.365	0
2	22110304	85	High	1.5	Vague	2	36	33	13	2.5	6.2	1.2	36	13	33	2.5	1.2	6.2	1	0.777	0.001	L	36	2.5	268.868	270.258	271.034	271.037	0
2	22110304	86	High	1.5	Precise	1	27	36	28	1.8	2.5	1.4	27	28	36	1.8	1.4	2.5	2	0.976	0.000	R	36	2.5	271.539	273.802	274.778	274.781	0
2	22110304	87	High	1.5	Precise	1	36	34	28	2.5	11.0	1.4	36	34	28	2.5	11.0	1.4	2	0.617	0.001	D	34	11.0	275.283	277.937	278.554	278.557	0
2	22110304	88	High	1.5	Precise	1	27	33	30	1.8	6.2	0.6	33	27	30	6.2	1.8	0.6	2	0.504	0.000	L	33	6.2	279.059	281.146	281.650	281.653	0
2	22110304	89	High	1.5	Vague	2	27	29	18	1.8	2.4	1.5	27	29	18	1.8	2.4	1.5	3	1.008	0.000	R	18	1.5	282.155	283.098	284.106	284.108	0
2	22110304	90	High	1.5	Precise	1	31	34	35	3.4	11.0	1.0	35	31	34	1.0	3.4	11.0	2	0.814	0.000	R	34	11.0	284.611	285.852	286.666	286.669	0
2	22110304	91	High	1.5	Precise	1	31	33	35	3.4	6.2	1.0	33	31	35	6.2	3.4	1.0	2	0.636	0.001	L	33	6.2	287.171	287.798	288.434	288.437	0
2	22110304	92	High	1.5	Vague	2	29	34	13	2.4	11.0	1.2	13	34	29	1.2	11.0	2.4	2	0.554	0.001	D	34	11.0	288.940	291.072	291.626	291.629	0
2	22110304	93	High	1.5	Vague	2	27	29	11	1.8	2.4	0.4	29	27	11	2.4	1.8	0.4	1	0.647	0.001	D	27	1.8	292.131	294.987	295.634	295.637	0
2	22110304	94	High	1.5	Vague	2	31	33	5	3.4	6.2	1.2	31	5	33	3.4	1.2	6.2	2	0.870	0.000	R	33	6.2	296.139	296.877	297.746	297.749	0
2	22110304	95	High	1.5	Precise	1	27	31	28	1.8	3.4	1.4	27	28	31	1.8	1.4	3.4	1	0.756	0.000	L	27	1.8	298.252	299.094	299.850	299.852	0
2	22110304	96	High	1.5	Vague	2	36	34	2	2.5	11.0	0.8	36	2	34	2.5	0.8	11.0	2	0.516	0.001	R	34	11.0	300.355	302.615	303.130	303.133	0
2	22110304	97	High	1.5	Vague	2	36	31	13	2.5	3.4	1.2	13	31	36	1.2	3.4	2.5	1	0.790	0.001	R	36	2.5	303.636	306.164	306.954	306.957	0
2	22110304	98	High	1.5	Precise	1	36	33	35	2.5	6.2	1.0	33	36	35	6.2	2.5	1.0	2	0.720	0.000	L	33	6.2	307.459	310.210	310.930	310.932	0
2	22110304	99	High	1.5	Precise	1	36	33	21	2.5	6.2	0.2	36	33	21	2.5	6.2	0.2	2	0.720	0.001	D	33	6.2	311.436	313.562	314.282	314.285	0
2	22110304	100	High	1.5	Vague	2	29	36	11	2.4	2.5	0.4	36	29	11	2.5	2.4	0.4	2	0.711	0.000	L	36	2.5	314.787	316.979	317.690	317.692	0
2	22110304	101	High	1.5	Vague	2	29	31	2	2.4	3.4	0.8	31	2	29	3.4	0.8	2.4	1	1.176	0.001	R	29	2.4	318.195	321.082	322.258	322.261	0
2	22110304	102	High	1.5	Precise	1	33	34	35	6.2	11.0	1.0	33	35	34	6.2	1.0	11.0	2	0.551	0.000	R	34	11.0	322.763	323.619	324.170	324.173	0
2	22110304	103	High	1.5	Precise	1	31	34	22	3.4	11.0	0.8	31	22	34	3.4	0.8	11.0	2	0.617	0.001	R	34	11.0	324.675	327.217	327.834	327.836	0
2	22110304	104	High	1.5	Vague	2	29	36	18	2.4	2.5	1.5	18	36	29	1.5	2.5	2.4	2	1.314	0.000	D	36	2.5	328.339	329.864	331.178	331.180	0
2	22110304	105	High	1.5	Vague	2	27	31	2	1.8	3.4	0.8	27	31	2	1.8	3.4	0.8	1	0.835	0.001	L	27	1.8	331.683	332.751	333.586	333.589	0
2	22110304	106	High	1.5	Vague	2	27	31	13	1.8	3.4	1.2	13	27	31	1.2	1.8	3.4	1	1.058	0.001	D	27	1.8	334.091	334.785	335.842	335.845	0
2	22110304	107	High	1.5	Precise	1	31	34	28	3.4	11.0	1.4	31	34	28	3.4	11.0	1.4	2	0.570	0.000	D	34	11.0	336.347	339.248	339.818	339.821	0
2	22110304	108	High	1.5	Precise	1	29	34	21	2.4	11.0	0.2	29	34	21	2.4	11.0	0.2	2	0.572	0.001	D	34	11.0	340.324	340.911	341.482	341.485	0
2	22110304	109	High	1.5	Vague	2	36	33	18	2.5	6.2	1.5	33	18	36	6.2	1.5	2.5	2	0.854	0.001	L	33	6.2	341.988	344.156	345.010	345.013	0
2	22110304	110	High	1.5	Precise	1	29	33	26	2.4	6.2	0.4	29	26	33	2.4	0.4	6.2	2	0.794	0.000	R	33	6.2	345.516	346.512	347.306	347.308	0
2	22110304	111	High	1.5	Vague	2	36	31	5	2.5	3.4	1.2	36	5	31	2.5	1.2	3.4	1	1.168	0.000	L	36	2.5	347.811	349.995	351.162	351.164	0
2	22110304	112	High	1.5	Precise	1	27	34	30	1.8	11.0	0.6	27	34	30	1.8	11.0	0.6	2	0.625	0.001	D	34	11.0	351.667	352.945	353.570	353.573	0
2	22110304	113	High	1.5	Precise	1	36	34	22	2.5	11.0	0.8	36	34	22	2.5	11.0	0.8	2	0.590	0.001	D	34	11.0	354.075	355.228	355.818	355.821	0
2	22110304	114	High	1.5	Vague	2	31	34	7	3.4	11.0	1.0	7	31	34	1.0	3.4	11.0	2	0.582	0.001	R	34	11.0	356.323	358.349	358.930	358.933	0
2	22110304	115	High	1.5	Precise	1	29	34	30	2.4	11.0	0.6	30	34	29	0.6	11.0	2.4	2	0.606	0.000	D	34	11.0	359.436	361.979	362.586	362.588	0
2	22110304	116	High	1.5	Vague	2	27	33	11	1.8	6.2	0.4	27	11	33	1.8	0.4	6.2	2	0.744	0.000	R	33	6.2	363.091	363.866	364.610	364.612	0
2	22110304	117	High	1.5	Vague	2	36	33	5	2.5	6.2	1.2	36	5	33	2.5	1.2	6.2	2	0.641	0.001	R	33	6.2	365.116	367.673	368.314	368.317	0
2	22110304	118	High	1.5	Vague	2	27	34	2	1.8	11.0	0.8	2	27	34	0.8	1.8	11.0	2	0.673	0.000	R	34	11.0	368.819	369.449	370.122	370.125	0
2	22110304	119	High	1.5	Precise	1	31	33	28	3.4	6.2	1.4	31	33	28	3.4	6.2	1.4	2	0.773	0.000	D	33	6.2	370.628	371.189	371.962	371.965	0
2	22110304	120	High	1.5	Precise	1	27	36	26	1.8	2.5	0.4	36	27	26	2.5	1.8	0.4	2	1.061	0.001	L	36	2.5	372.467	373.542	374.602	374.605	0
2	22110304	121	High	1.5	Precise	1	36	31	30	2.5	3.4	0.6	30	36	31	0.6	2.5	3.4	1	0.898	0.000	D	36	2.5	379.944	381.480	382.378	382.380	0
2	22110304	122	High	1.5	Vague	2	27	33	5	1.8	6.2	1.2	27	33	5	1.8	6.2	1.2	2	0.889	0.001	D	33	6.2	382.883	383.481	384.370	384.373	0
2	22110304	123	High	1.5	Precise	1	33	34	26	6.2	11.0	0.4	33	34	26	6.2	11.0	0.4	2	0.628	0.000	D	34	11.0	384.875	385.590	386.218	386.220	0
2	22110304	124	High	1.5	Precise	1	29	33	21	2.4	6.2	0.2	21	33	29	0.2	6.2	2.4	2	0.631	0.000	D	33	6.2	386.723	388.963	389.594	389.596	0
2	22110304	125	High	1.5	Precise	1	29	34	28	2.4	11.0	1.4	28	34	29	1.4	11.0	2.4	2	0.487	0.001	D	34	11.0	390.099	392.667	393.154	393.156	0
2	22110304	126	High	1.5	Precise	1	29	33	22	2.4	6.2	0.8	22	29	33	0.8	2.4	6.2	2	0.738	0.000	R	33	6.2	393.659	396.272	397.010	397.012	0
2	22110304	127	High	1.5	Vague	2	29	33	13	2.4	6.2	1.2	29	33	13	2.4	6.2	1.2	2	0.659	0.000	D	33	6.2	397.515	398.463	399.122	399.124	0
2	22110304	128	High	1.5	Vague	2	27	36	11	1.8	2.5	0.4	36	11	27	2.5	0.4	1.8	1	1.011	0.001	R	27	1.8	399.627	400.527	401.538	401.540	0
2	22110304	129	High	1.5	Precise	1	27	29	28	1.8	2.4	1.4	29	27	28	2.4	1.8	1.4	1	0.631	0.001	D	27	1.8	402.043	404.091	404.722	404.724	0
2	22110304	130	High	1.5	Vague	2	29	36	2	2.4	2.5	0.8	2	29	36	0.8	2.4	2.5	2	0.696	0.000	R	36	2.5	405.227	406.594	407.290	407.292	0
2	22110304	131	High	1.5	Vague	2	29	34	2	2.4	11.0	0.8	34	2	29	11.0	0.8	2.4	2	0.584	0.000	L	34	11.0	407.795	409.602	410.186	410.188	0
2	22110304	132	High	1.5	Vague	2	27	31	5	1.8	3.4	1.2	31	5	27	3.4	1.2	1.8	1	0.625	0.001	R	27	1.8	410.691	411.417	412.042	412.045	0
2	22110304	133	High	1.5	Vague	2	31	33	11	3.4	6.2	0.4	33	11	31	6.2	0.4	3.4	2	0.560	0.000	L	33	6.2	412.547	413.954	414.514	414.516	0
2	22110304	134	High	1.5	Precise	1	29	36	28	2.4	2.5	1.4	36	28	29	2.5	1.4	2.4	2	0.634	0.001	L	36	2.5	415.020	416.712	417.346	417.349	0
2	22110304	135	High	1.5	Precise	1	33	34	22	6.2	11.0	0.8	22	34	33	0.8	11.0	6.2	2	0.748	0.001	D	34	11.0	417.851	418.654	419.402	419.404	0
2	22110304	136	High	1.5	Precise	1	27	29	21	1.8	2.4	0.2	27	29	21	1.8	2.4	0.2	1	1.123	0.001	L	27	1.8	419.907	420.527	421.650	421.652	0
2	22110304	137	High	1.5	Vague	2	29	34	7	2.4	11.0	1.0	34	29	7	11.0	2.4	1.0	2	0.636	0.001	L	34	11.0	422.155	423.366	424.002	424.004	0
2	22110304	138	High	1.5	Precise	1	27	34	26	1.8	11.0	0.4	27	34	26	1.8	11.0	0.4	2	0.708	0.001	D	34	11.0	424.507	426.351	427.058	427.061	0
2	22110304	139	High	1.5	Vague	2	27	36	18	1.8	2.5	1.5	18	36	27	1.5	2.5	1.8	1	0.968	0.000	R	27	1.8	427.564	429.841	430.810	430.812	0
2	22110304	140	High	1.5	Vague	2	27	34	18	1.8	11.0	1.5	27	18	34	1.8	1.5	11.0	2	0.515	0.001	R	34	11.0	431.315	433.615	434.130	434.133	0
2	22110304	141	High	1.5	Vague	2	27	33	18	1.8	6.2	1.5	27	33	18	1.8	6.2	1.5	2	0.668	0.000	D	33	6.2	434.635	437.270	437.938	437.940	0
2	22110304	142	High	1.5	Vague	2	31	34	11	3.4	11.0	0.4	31	34	11	3.4	11.0	0.4	2	0.463	0.001	D	34	11.0	438.443	440.099	440.562	440.564	0
2	22110304	143	High	1.5	Vague	2	27	36	13	1.8	2.5	1.2	13	27	36	1.2	1.8	2.5	2	0.563	0.001	R	36	2.5	441.067	443.015	443.578	443.580	0
2	22110304	144	High	1.5	Precise	1	27	34	35	1.8	11.0	1.0	35	34	27	1.0	11.0	1.8	2	0.504	0.000	D	34	11.0	444.083	445.489	445.994	445.996	0
2	22110304	145	High	1.5	Vague	2	33	34	5	6.2	11.0	1.2	5	33	34	1.2	6.2	11.0	2	0.533	0.000	R	34	11.0	446.499	447.685	448.218	448.220	0
2	22110304	146	High	1.5	Vague	2	36	34	5	2.5	11.0	1.2	34	5	36	11.0	1.2	2.5	2	0.654	0.001	L	34	11.0	448.723	449.612	450.266	450.269	0
2	22110304	147	High	1.5	Precise	1	29	36	22	2.4	2.5	0.8	22	36	29	0.8	2.5	2.4	2	0.671	0.001	D	36	2.5	450.771	452.851	453.522	453.524	0
2	22110304	148	High	1.5	Precise	1	36	34	35	2.5	11.0	1.0	36	34	35	2.5	11.0	1.0	2	0.513	0.001	D	34	11.0	454.028	456.233	456.746	456.749	0
2	22110304	149	High	1.5	Precise	1	27	33	21	1.8	6.2	0.2	33	21	27	6.2	0.2	1.8	2	0.698	0.000	L	33	6.2	457.252	458.376	459.074	459.076	0
2	22110304	150	High	1.5	Vague	2	29	34	11	2.4	11.0	0.4	29	11	34	2.4	0.4	11.0	2	0.423	0.001	R	34	11.0	459.579	462.131	462.554	462.556	0
2	22110304	151	High	1.5	Vague	2	27	29	2	1.8	2.4	0.8	2	29	27	0.8	2.4	1.8	1	0.686	0.000	R	27	1.8	463.059	463.724	464.410	464.412	0
2	22110304	152	High	1.5	Precise	1	31	33	22	3.4	6.2	0.8	33	31	22	6.2	3.4	0.8	2	0.655	0.000	L	33	6.2	464.914	465.779	466.434	466.436	0
2	22110304	153	High	1.5	Vague	2	29	31	7	2.4	3.4	1.0	29	7	31	2.4	1.0	3.4	2	0.727	0.000	R	31	3.4	466.939	468.314	469.042	469.044	0
2	22110304	154	High	1.5	Vague	2	36	33	11	2.5	6.2	0.4	33	11	36	6.2	0.4	2.5	2	0.623	0.000	L	33	6.2	469.547	470.419	471.042	471.044	0
2	22110304	155	High	1.5	Precise	1	33	34	30	6.2	11.0	0.6	34	30	33	11.0	0.6	6.2	2	0.467	0.000	L	34	11.0	471.548	472.687	473.154	473.156	0
2	22110304	156	High	1.5	Vague	2	31	33	18	3.4	6.2	1.5	33	31	18	6.2	3.4	1.5	2	0.703	0.001	L	33	6.2	473.659	476.571	477.274	477.276	0
2	22110304	157	High	1.5	Vague	2	29	33	5	2.4	6.2	1.2	33	29	5	6.2	2.4	1.2	2	0.530	0.000	L	33	6.2	477.779	478.344	478.874	478.876	0
2	22110304	158	High	1.5	Vague	2	31	34	18	3.4	11.0	1.5	18	31	34	1.5	3.4	11.0	2	0.537	0.000	R	34	11.0	479.379	481.593	482.130	482.132	0
2	22110304	159	High	1.5	Vague	2	31	34	13	3.4	11.0	1.2	34	31	13	11.0	3.4	1.2	2	0.471	0.000	L	34	11.0	482.635	484.802	485.274	485.276	0
2	22110304	160	High	1.5	Vague	2	36	31	18	2.5	3.4	1.5	31	18	36	3.4	1.5	2.5	1	0.925	0.001	R	36	2.5	485.779	486.869	487.794	487.796	0
2	22110304	161	High	1.5	Precise	1	36	34	30	2.5	11.0	0.6	36	30	34	2.5	0.6	11.0	2	0.535	0.000	R	34	11.0	488.299	489.026	489.562	489.564	0
2	22110304	162	High	1.5	Precise	1	27	34	21	1.8	11.0	0.2	34	27	21	11.0	1.8	0.2	2	0.502	0.001	L	34	11.0	490.067	492.572	493.074	493.076	0
2	22110304	163	High	1.5	Precise	1	27	29	35	1.8	2.4	1.0	27	29	35	1.8	2.4	1.0	1	0.562	0.001	L	27	1.8	493.579	494.184	494.746	494.748	0
2	22110304	164	High	1.5	Precise	1	29	36	35	2.4	2.5	1.0	29	36	35	2.4	2.5	1.0	2	0.884	0.000	D	36	2.5	495.251	497.862	498.746	498.748	0
2	22110304	165	High	1.5	Precise	1	29	34	35	2.4	11.0	1.0	34	35	29	11.0	1.0	2.4	2	0.523	0.001	L	34	11.0	499.251	501.639	502.162	502.164	0
2	22110304	166	High	1.5	Precise	1	27	33	26	1.8	6.2	0.4	27	33	26	1.8	6.2	0.4	2	0.873	0.000	D	33	6.2	502.667	504.209	505.082	505.084	0
2	22110304	167	High	1.5	Vague	2	31	34	2	3.4	11.0	0.8	31	34	2	3.4	11.0	0.8	2	0.575	0.001	D	34	11.0	505.587	508.267	508.842	508.845	0
2	22110304	168	High	1.5	Precise	1	29	31	28	2.4	3.4	1.4	31	28	29	3.4	1.4	2.4	3	1.117	0.001	D	28	1.4	509.348	511.981	513.098	513.101	0
2	22110304	169	High	1.5	Precise	1	29	34	26	2.4	11.0	0.4	29	26	34	2.4	0.4	11.0	2	0.521	0.001	R	34	11.0	513.603	515.953	516.474	516.476	0
2	22110304	170	High	1.5	Precise	1	27	36	30	1.8	2.5	0.6	30	27	36	0.6	1.8	2.5	2	0.559	0.000	R	36	2.5	516.979	519.827	520.386	520.388	0
2	22110304	171	High	1.5	Vague	2	31	34	5	3.4	11.0	1.2	34	5	31	11.0	1.2	3.4	3	0.532	0.000	D	5	1.2	520.891	522.510	523.042	523.045	0
2	22110304	172	High	1.5	Vague	2	27	31	18	1.8	3.4	1.5	27	31	18	1.8	3.4	1.5	1	0.944	0.001	L	27	1.8	523.548	526.433	527.378	527.380	0
2	22110304	173	High	1.5	Precise	1	31	34	21	3.4	11.0	0.2	34	21	31	11.0	0.2	3.4	2	0.495	0.000	L	34	11.0	527.883	530.058	530.554	530.556	0
2	22110304	174	High	1.5	Vague	2	27	33	7	1.8	6.2	1.0	27	7	33	1.8	1.0	6.2	1	0.667	0.000	L	27	1.8	531.059	533.655	534.322	534.324	0
2	22110304	175	High	1.5	Precise	1	31	33	21	3.4	6.2	0.2	33	31	21	6.2	3.4	0.2	2	0.527	0.001	L	33	6.2	534.827	537.291	537.818	537.820	0
2	22110304	176	High	1.5	Precise	1	27	31	22	1.8	3.4	0.8	31	22	27	3.4	0.8	1.8	1	0.610	0.001	R	27	1.8	538.323	540.432	541.042	541.044	0
2	22110304	177	High	1.5	Vague	2	33	34	7	6.2	11.0	1.0	33	7	34	6.2	1.0	11.0	2	0.498	0.001	R	34	11.0	541.547	544.520	545.018	545.020	0
2	22110304	178	High	1.5	Precise	1	29	36	26	2.4	2.5	0.4	29	26	36	2.4	0.4	2.5	1	1.132	0.001	L	29	2.4	545.524	547.254	548.386	548.388	0
2	22110304	179	High	1.5	Vague	2	33	34	13	6.2	11.0	1.2	34	13	33	11.0	1.2	6.2	2	0.539	0.000	L	34	11.0	548.891	550.391	550.930	550.932	0
2	22110304	180	High	1.5	Vague	2	33	34	18	6.2	11.0	1.5	34	18	33	11.0	1.5	6.2	2	0.554	0.000	L	34	11.0	551.434	553.159	553.713	553.716	0
2	22110304	181	Low	10.0	Vague	2	29	31	15	2.4	3.4	1.1	31	15	29	3.4	1.1	2.4	1	1.060	0.001	R	29	2.4	560.672	562.150	563.210	563.212	0
2	22110304	182	Low	10.0	Precise	1	31	34	32	3.4	11.0	1.3	31	34	32	3.4	11.0	1.3	2	0.793	0.001	D	34	11.0	563.715	565.009	565.802	565.804	0
2	22110304	183	Low	10.0	Vague	2	27	31	8	1.8	3.4	1.2	8	31	27	1.2	3.4	1.8	1	1.094	0.001	R	27	1.8	566.307	568.204	569.298	569.300	0
2	22110304	184	Low	10.0	Precise	1	29	33	20	2.4	6.2	0.5	20	29	33	0.5	2.4	6.2	2	1.116	0.000	R	33	6.2	569.803	572.077	573.193	573.196	0
2	22110304	185	Low	10.0	Precise	1	29	31	23	2.4	3.4	0.1	31	23	29	3.4	0.1	2.4	2	1.175	0.001	L	31	3.4	573.699	575.107	576.282	576.284	0
2	22110304	186	Low	10.0	Vague	2	27	36	14	1.8	2.5	1.0	14	27	36	1.0	1.8	2.5	2	0.934	0.000	R	36	2.5	576.787	579.611	580.546	580.548	0
2	22110304	187	Low	10.0	Vague	2	36	34	14	2.5	11.0	1.0	36	14	34	2.5	1.0	11.0	2	0.538	0.001	R	34	11.0	581.051	582.344	582.882	582.884	0
2	22110304	188	Low	10.0	Precise	1	27	36	24	1.8	2.5	0.8	36	24	27	2.5	0.8	1.8	1	0.804	0.001	R	27	1.8	583.387	584.542	585.346	585.348	0
2	22110304	189	Low	10.0	Precise	1	29	31	32	2.4	3.4	1.3	32	31	29	1.3	3.4	2.4	2	1.134	0.001	D	31	3.4	585.851	587.004	588.138	588.140	0
2	22110304	190	Low	10.0	Precise	1	36	33	24	2.5	6.2	0.8	36	24	33	2.5	0.8	6.2	2	1.139	0.000	R	33	6.2	588.643	589.863	591.002	591.004	0
2	22110304	191	Low	10.0	Precise	1	36	31	24	2.5	3.4	0.8	36	24	31	2.5	0.8	3.4	1	1.228	0.001	L	36	2.5	591.507	593.814	595.042	595.044	0
2	22110304	192	Low	10.0	Vague	2	27	34	14	1.8	11.0	1.0	27	14	34	1.8	1.0	11.0	2	0.582	0.001	R	34	11.0	595.548	597.788	598.370	598.372	0
2	22110304	193	Low	10.0	Precise	1	29	34	19	2.4	11.0	0.3	19	29	34	0.3	2.4	11.0	2	0.528	0.001	R	34	11.0	598.875	600.953	601.482	601.484	0
2	22110304	194	Low	10.0	Vague	2	27	36	6	1.8	2.5	0.2	6	27	36	0.2	1.8	2.5	2	1.200	0.001	R	36	2.5	601.987	604.010	605.210	605.212	0
2	22110304	195	Low	10.0	Precise	1	27	36	25	1.8	2.5	0.9	27	36	25	1.8	2.5	0.9	3	1.580	0.001	R	25	0.9	605.714	607.805	609.386	609.388	0
2	22110304	196	Low	10.0	Precise	1	31	33	19	3.4	6.2	0.3	33	31	19	6.2	3.4	0.3	2	0.805	0.001	L	33	6.2	609.891	610.765	611.570	611.572	0
2	22110304	197	Low	10.0	Precise	1	29	31	19	2.4	3.4	0.3	19	31	29	0.3	3.4	2.4	2	1.588	0.001	D	31	3.4	612.075	613.294	614.882	614.884	0
2	22110304	198	Low	10.0	Vague	2	29	33	1	2.4	6.2	0.4	33	1	29	6.2	0.4	2.4	2	0.801	0.001	L	33	6.2	615.387	617.761	618.562	618.564	0
2	22110304	199	Low	10.0	Precise	1	31	34	20	3.4	11.0	0.5	20	34	31	0.5	11.0	3.4	2	0.714	0.001	D	34	11.0	619.067	621.423	622.138	622.140	0
2	22110304	200	Low	10.0	Precise	1	27	29	32	1.8	2.4	1.3	29	27	32	2.4	1.8	1.3	1	0.802	0.001	D	27	1.8	622.643	624.824	625.626	625.628	0
2	22110304	201	Low	10.0	Vague	2	27	36	8	1.8	2.5	1.2	27	36	8	1.8	2.5	1.2	2	1.259	0.001	D	36	2.5	626.131	629.119	630.378	630.380	0
2	22110304	202	Low	10.0	Vague	2	27	36	1	1.8	2.5	0.4	36	1	27	2.5	0.4	1.8	1	0.714	0.001	R	27	1.8	630.883	633.087	633.802	633.804	0
2	22110304	203	Low	10.0	Vague	2	29	36	9	2.4	2.5	1.5	9	29	36	1.5	2.4	2.5	2	1.321	0.000	R	36	2.5	634.307	636.537	637.857	637.860	0
2	22110304	204	Low	10.0	Vague	2	31	34	15	3.4	11.0	1.1	15	31	34	1.1	3.4	11.0	2	0.582	0.001	R	34	11.0	638.363	640.276	640.858	640.860	0
2	22110304	205	Low	10.0	Vague	2	29	34	15	2.4	11.0	1.1	34	29	15	11.0	2.4	1.1	2	0.640	0.000	L	34	11.0	641.363	643.642	644.282	644.284	0
2	22110304	206	Low	10.0	Precise	1	36	34	32	2.5	11.0	1.3	32	36	34	1.3	2.5	11.0	2	0.607	0.001	R	34	11.0	644.787	646.275	646.882	646.884	0
2	22110304	207	Low	10.0	Precise	1	29	33	25	2.4	6.2	0.9	29	25	33	2.4	0.9	6.2	2	0.830	0.001	R	33	6.2	647.387	648.915	649.746	649.748	0
2	22110304	208	Low	10.0	Precise	1	27	29	23	1.8	2.4	0.1	23	27	29	0.1	1.8	2.4	1	1.122	0.001	D	27	1.8	650.251	652.616	653.738	653.740	0
2	22110304	209	Low	10.0	Precise	1	29	34	23	2.4	11.0	0.1	34	23	29	11.0	0.1	2.4	2	0.616	0.001	L	34	11.0	654.243	656.042	656.658	656.660	0
2	22110304	210	Low	10.0	Vague	2	29	31	1	2.4	3.4	0.4	31	29	1	3.4	2.4	0.4	2	1.406	0.000	L	31	3.4	657.163	659.243	660.649	660.652	0
2	22110304	211	Low	10.0	Precise	1	29	34	25	2.4	11.0	0.9	29	34	25	2.4	11.0	0.9	2	0.521	0.000	D	34	11.0	661.154	663.912	664.433	664.436	0
2	22110304	212	Low	10.0	Precise	1	27	29	24	1.8	2.4	0.8	27	24	29	1.8	0.8	2.4	1	0.774	0.001	L	27	1.8	664.938	666.252	667.026	667.028	0
2	22110304	213	Low	10.0	Precise	1	27	33	24	1.8	6.2	0.8	24	27	33	0.8	1.8	6.2	2	0.814	0.001	R	33	6.2	667.531	669.891	670.706	670.708	0
2	22110304	214	Low	10.0	Precise	1	36	34	20	2.5	11.0	0.5	36	20	34	2.5	0.5	11.0	2	0.526	0.001	R	34	11.0	671.211	672.700	673.226	673.228	0
2	22110304	215	Low	10.0	Vague	2	27	33	8	1.8	6.2	1.2	33	8	27	6.2	1.2	1.8	2	0.676	0.001	L	33	6.2	673.731	675.022	675.698	675.700	0
2	22110304	216	Low	10.0	Vague	2	29	34	9	2.4	11.0	1.5	9	34	29	1.5	11.0	2.4	2	0.647	0.001	D	34	11.0	676.203	679.043	679.690	679.692	0
2	22110304	217	Low	10.0	Precise	1	33	34	25	6.2	11.0	0.9	34	33	25	11.0	6.2	0.9	2	0.530	0.000	L	34	11.0	680.195	681.087	681.617	681.620	0
2	22110304	218	Low	10.0	Vague	2	27	33	6	1.8	6.2	0.2	33	6	27	6.2	0.2	1.8	2	0.846	0.001	L	33	6.2	682.123	684.372	685.218	685.220	0
2	22110304	219	Low	10.0	Precise	1	27	34	25	1.8	11.0	0.9	25	27	34	0.9	1.8	11.0	2	0.467	0.001	R	34	11.0	685.722	687.383	687.850	687.852	0
2	22110304	220	Low	10.0	Vague	2	31	34	14	3.4	11.0	1.0	34	31	14	11.0	3.4	1.0	2	0.471	0.001	L	34	11.0	688.355	690.907	691.378	691.380	0
2	22110304	221	Low	10.0	Vague	2	27	29	6	1.8	2.4	0.2	29	6	27	2.4	0.2	1.8	1	0.825	0.000	R	27	1.8	691.882	692.417	693.241	693.244	0
2	22110304	222	Low	10.0	Precise	1	29	36	25	2.4	2.5	0.9	25	36	29	0.9	2.5	2.4	3	1.570	0.000	L	25	0.9	693.747	694.287	695.857	695.860	0
2	22110304	223	Low	10.0	Precise	1	36	33	32	2.5	6.2	1.3	32	36	33	1.3	2.5	6.2	2	0.844	0.001	R	33	6.2	696.363	698.126	698.970	698.972	0
2	22110304	224	Low	10.0	Precise	1	31	33	20	3.4	6.2	0.5	31	20	33	3.4	0.5	6.2	2	0.812	0.000	R	33	6.2	699.475	700.061	700.873	700.876	0
2	22110304	225	Low	10.0	Vague	2	27	36	9	1.8	2.5	1.5	9	36	27	1.5	2.5	1.8	1	0.712	0.000	R	27	1.8	701.379	702.073	702.785	702.788	0
2	22110304	226	Low	10.0	Precise	1	36	34	19	2.5	11.0	0.3	34	36	19	11.0	2.5	0.3	2	0.536	0.000	L	34	11.0	703.291	705.290	705.825	705.828	0
2	22110304	227	Low	10.0	Vague	2	29	33	8	2.4	6.2	1.2	8	29	33	1.2	2.4	6.2	2	0.830	0.000	R	33	6.2	706.330	709.179	710.009	710.012	0
2	22110304	228	Low	10.0	Vague	2	29	34	6	2.4	11.0	0.2	6	29	34	0.2	2.4	11.0	2	0.487	0.001	R	34	11.0	710.514	712.563	713.050	713.052	0
2	22110304	229	Low	10.0	Precise	1	36	33	20	2.5	6.2	0.5	33	20	36	6.2	0.5	2.5	2	0.926	0.000	L	33	6.2	713.555	715.275	716.201	716.204	0
2	22110304	230	Low	10.0	Precise	1	36	31	32	2.5	3.4	1.3	31	32	36	3.4	1.3	2.5	1	1.433	0.001	R	36	2.5	716.708	719.377	720.810	720.812	0
2	22110304	231	Low	10.0	Precise	1	27	33	32	1.8	6.2	1.3	27	32	33	1.8	1.3	6.2	2	1.100	0.000	R	33	6.2	721.315	723.013	724.113	724.116	0
2	22110304	232	Low	10.0	Vague	2	36	31	15	2.5	3.4	1.1	36	31	15	2.5	3.4	1.1	1	1.019	0.001	L	36	2.5	724.619	726.007	727.026	727.028	0
2	22110304	233	Low	10.0	Vague	2	36	31	6	2.5	3.4	0.2	6	36	31	0.2	2.5	3.4	1	1.186	0.001	D	36	2.5	727.531	730.312	731.498	731.500	0
2	22110304	234	Low	10.0	Precise	1	29	34	20	2.4	11.0	0.5	34	29	20	11.0	2.4	0.5	2	0.676	0.001	L	34	11.0	732.003	733.958	734.634	734.636	0
2	22110304	235	Low	10.0	Vague	2	27	29	15	1.8	2.4	1.1	29	15	27	2.4	1.1	1.8	1	0.623	0.001	R	27	1.8	735.139	737.683	738.306	738.308	0
2	22110304	236	Low	10.0	Vague	2	31	34	8	3.4	11.0	1.2	31	8	34	3.4	1.2	11.0	2	0.494	0.000	R	34	11.0	738.811	739.835	740.329	740.332	0
2	22110304	237	Low	10.0	Vague	2	31	34	6	3.4	11.0	0.2	31	34	6	3.4	11.0	0.2	2	0.742	0.001	D	34	11.0	740.834	741.756	742.498	742.500	0
2	22110304	238	Low	10.0	Precise	1	31	33	25	3.4	6.2	0.9	31	25	33	3.4	0.9	6.2	2	0.624	0.001	R	33	6.2	743.003	744.034	744.658	744.660	0
2	22110304	239	Low	10.0	Precise	1	33	34	32	6.2	11.0	1.3	33	34	32	6.2	11.0	1.3	2	0.629	0.000	D	34	11.0	745.163	746.332	746.962	746.964	0
2	22110304	240	Low	10.0	Precise	1	29	31	25	2.4	3.4	0.9	29	31	25	2.4	3.4	0.9	3	1.034	0.001	R	25	0.9	747.467	748.728	749.762	749.764	0
2	22110304	241	Low	10.0	Precise	1	29	36	24	2.4	2.5	0.8	24	36	29	0.8	2.5	2.4	2	0.981	0.001	D	36	2.5	757.294	760.189	761.170	761.172	0
2	22110304	242	Low	10.0	Vague	2	29	31	6	2.4	3.4	0.2	31	29	6	3.4	2.4	0.2	2	0.897	0.000	L	31	3.4	761.675	763.121	764.017	764.020	0
2	22110304	243	Low	10.0	Vague	2	36	34	9	2.5	11.0	1.5	9	34	36	1.5	11.0	2.5	2	0.579	0.001	D	34	11.0	764.523	767.358	767.938	767.940	0
2	22110304	244	Low	10.0	Vague	2	29	36	14	2.4	2.5	1.0	14	29	36	1.0	2.4	2.5	2	1.146	0.000	R	36	2.5	768.443	769.359	770.506	770.508	0
2	22110304	245	Low	10.0	Vague	2	33	34	15	6.2	11.0	1.1	34	33	15	11.0	6.2	1.1	2	0.562	0.000	L	34	11.0	771.010	773.687	774.249	774.252	0
2	22110304	246	Low	10.0	Precise	1	36	34	24	2.5	11.0	0.8	36	24	34	2.5	0.8	11.0	2	0.486	0.001	R	34	11.0	774.754	775.868	776.354	776.356	0
2	22110304	247	Low	10.0	Precise	1	29	34	24	2.4	11.0	0.8	24	34	29	0.8	11.0	2.4	2	0.838	0.001	D	34	11.0	776.859	779.659	780.498	780.500	0
2	22110304	248	Low	10.0	Vague	2	27	29	9	1.8	2.4	1.5	27	9	29	1.8	1.5	2.4	2	3.356	0.001	R	29	2.4	781.002	782.101	785.458	785.460	0
2	22110304	249	Low	10.0	Precise	1	31	34	19	3.4	11.0	0.3	31	19	34	3.4	0.3	11.0	2	0.560	0.000	R	34	11.0	785.963	786.833	787.393	787.396	0
2	22110304	250	Low	10.0	Precise	1	36	31	25	2.5	3.4	0.9	25	31	36	0.9	3.4	2.5	1	0.788	0.000	R	36	2.5	787.898	790.718	791.506	791.508	0
2	22110304	251	Low	10.0	Vague	2	31	33	8	3.4	6.2	1.2	31	33	8	3.4	6.2	1.2	2	1.376	0.001	D	33	6.2	792.010	793.258	794.634	794.636	0
2	22110304	252	Low	10.0	Precise	1	27	33	20	1.8	6.2	0.5	27	33	20	1.8	6.2	0.5	2	0.776	0.000	D	33	6.2	795.138	796.074	796.849	796.852	0
2	22110304	253	Low	10.0	Precise	1	27	36	23	1.8	2.5	0.1	36	23	27	2.5	0.1	1.8	1	1.111	0.001	R	27	1.8	797.355	799.618	800.730	800.732	0
2	22110304	254	Low	10.0	Vague	2	29	33	6	2.4	6.2	0.2	29	6	33	2.4	0.2	6.2	2	0.759	0.001	R	33	6.2	801.235	804.170	804.930	804.932	0
2	22110304	255	Low	10.0	Precise	1	31	34	24	3.4	11.0	0.8	31	24	34	3.4	0.8	11.0	2	0.456	0.001	R	34	11.0	805.434	808.226	808.682	808.684	0
2	22110304	256	Low	10.0	Vague	2	29	34	14	2.4	11.0	1.0	34	29	14	11.0	2.4	1.0	2	0.808	0.000	L	34	11.0	809.187	811.225	812.033	812.036	0
2	22110304	257	Low	10.0	Vague	2	29	34	1	2.4	11.0	0.4	34	29	1	11.0	2.4	0.4	2	0.529	0.001	L	34	11.0	812.539	814.953	815.482	815.484	0
2	22110304	258	Low	10.0	Precise	1	33	34	23	6.2	11.0	0.1	34	23	33	11.0	0.1	6.2	2	0.517	0.000	L	34	11.0	815.987	818.060	818.577	818.580	0
2	22110304	259	Low	10.0	Vague	2	29	36	15	2.4	2.5	1.1	36	15	29	2.5	1.1	2.4	3	1.979	0.001	D	15	1.1	819.084	820.358	822.338	822.340	0
2	22110304	260	Low	10.0	Precise	1	36	34	25	2.5	11.0	0.9	25	34	36	0.9	11.0	2.5	2	0.568	0.001	D	34	11.0	822.843	825.642	826.210	826.212	0
2	22110304	261	Low	10.0	Vague	2	36	31	8	2.5	3.4	1.2	31	8	36	3.4	1.2	2.5	1	0.985	0.001	R	36	2.5	826.715	829.704	830.689	830.692	0
2	22110304	262	Low	10.0	Vague	2	36	33	6	2.5	6.2	0.2	6	33	36	0.2	6.2	2.5	1	0.908	0.000	R	36	2.5	831.195	831.781	832.689	832.692	0
2	22110304	263	Low	10.0	Precise	1	27	33	19	1.8	6.2	0.3	33	27	19	6.2	1.8	0.3	2	0.589	0.001	L	33	6.2	833.195	834.125	834.714	834.716	0
2	22110304	264	Low	10.0	Vague	2	36	33	8	2.5	6.2	1.2	33	36	8	6.2	2.5	1.2	2	0.700	0.001	L	33	6.2	835.219	837.749	838.450	838.452	0
2	22110304	265	Low	10.0	Precise	1	27	31	25	1.8	3.4	0.9	31	27	25	3.4	1.8	0.9	1	0.866	0.001	D	27	1.8	838.955	840.847	841.714	841.716	0
2	22110304	266	Low	10.0	Vague	2	29	33	14	2.4	6.2	1.0	14	33	29	1.0	6.2	2.4	2	0.787	0.000	D	33	6.2	842.218	842.982	843.769	843.772	0
2	22110304	267	Low	10.0	Precise	1	36	34	23	2.5	11.0	0.1	23	34	36	0.1	11.0	2.5	2	0.606	0.000	D	34	11.0	844.275	847.267	847.873	847.876	0
2	22110304	268	Low	10.0	Precise	1	27	29	25	1.8	2.4	0.9	27	29	25	1.8	2.4	0.9	1	0.947	0.000	L	27	1.8	848.379	851.094	852.041	852.044	0
2	22110304	269	Low	10.0	Precise	1	31	33	24	3.4	6.2	0.8	24	31	33	0.8	3.4	6.2	2	0.610	0.001	R	33	6.2	852.546	855.367	855.978	855.980	0
2	22110304	270	Low	10.0	Vague	2	31	33	15	3.4	6.2	1.1	31	15	33	3.4	1.1	6.2	2	0.575	0.000	R	33	6.2	856.483	858.442	859.017	859.020	0
2	22110304	271	Low	10.0	Vague	2	27	33	15	1.8	6.2	1.1	33	15	27	6.2	1.1	1.8	2	0.934	0.001	L	33	6.2	859.523	860.164	861.097	861.100	0
2	22110304	272	Low	10.0	Precise	1	27	29	20	1.8	2.4	0.5	29	27	20	2.4	1.8	0.5	1	0.652	0.000	D	27	1.8	861.603	864.149	864.801	864.804	0
2	22110304	273	Low	10.0	Vague	2	27	29	1	1.8	2.4	0.4	27	29	1	1.8	2.4	0.4	1	0.582	0.001	L	27	1.8	865.307	866.532	867.114	867.116	0
2	22110304	274	Low	10.0	Vague	2	33	34	14	6.2	11.0	1.0	14	34	33	1.0	11.0	6.2	2	0.751	0.000	D	34	11.0	867.619	869.115	869.866	869.868	0
2	22110304	275	Low	10.0	Vague	2	31	33	9	3.4	6.2	1.5	9	33	31	1.5	6.2	3.4	2	0.639	0.000	D	33	6.2	870.371	872.818	873.457	873.460	0
2	22110304	276	Low	10.0	Precise	1	27	34	32	1.8	11.0	1.3	32	34	27	1.3	11.0	1.8	2	0.863	0.001	D	34	11.0	873.963	876.627	877.490	877.492	0
2	22110304	277	Low	10.0	Precise	1	29	34	32	2.4	11.0	1.3	34	32	29	11.0	1.3	2.4	2	0.853	0.000	L	34	11.0	877.995	878.628	879.481	879.484	0
2	22110304	278	Low	10.0	Precise	1	36	33	19	2.5	6.2	0.3	36	19	33	2.5	0.3	6.2	2	0.686	0.000	R	33	6.2	879.987	882.444	883.129	883.132	0
2	22110304	279	Low	10.0	Vague	2	27	31	14	1.8	3.4	1.0	27	31	14	1.8	3.4	1.0	2	1.356	0.001	D	31	3.4	883.634	884.798	886.153	886.156	0
2	22110304	280	Low	10.0	Vague	2	29	34	8	2.4	11.0	1.2	34	29	8	11.0	2.4	1.2	2	0.642	0.000	L	34	11.0	886.659	888.583	889.225	889.228	0
2	22110304	281	Low	10.0	Vague	2	27	29	14	1.8	2.4	1.0	14	29	27	1.0	2.4	1.8	1	1.512	0.000	R	27	1.8	889.730	890.417	891.929	891.932	0
2	22110304	282	Low	10.0	Vague	2	31	34	1	3.4	11.0	0.4	1	34	31	0.4	11.0	3.4	2	0.669	0.001	D	34	11.0	892.435	894.725	895.393	895.396	0
2	22110304	283	Low	10.0	Precise	1	27	36	20	1.8	2.5	0.5	20	27	36	0.5	1.8	2.5	1	1.674	0.001	D	27	1.8	895.899	896.752	898.426	898.429	0
2	22110304	284	Low	10.0	Precise	1	27	31	24	1.8	3.4	0.8	31	27	24	3.4	1.8	0.8	1	1.171	0.001	D	27	1.8	898.932	901.143	902.314	902.316	0
2	22110304	285	Low	10.0	Precise	1	31	33	32	3.4	6.2	1.3	32	31	33	1.3	3.4	6.2	2	0.923	0.001	R	33	6.2	902.819	905.415	906.337	906.340	0
2	22110304	286	Low	10.0	Precise	1	27	33	23	1.8	6.2	0.1	27	33	23	1.8	6.2	0.1	1	0.648	0.001	L	27	1.8	906.842	907.394	908.042	908.044	0
2	22110304	287	Low	10.0	Precise	1	27	31	32	1.8	3.4	1.3	32	31	27	1.3	3.4	1.8	1	0.803	0.001	R	27	1.8	908.548	910.158	910.961	910.964	0
2	22110304	288	Low	10.0	Precise	1	27	31	20	1.8	3.4	0.5	31	20	27	3.4	0.5	1.8	1	0.609	0.001	R	27	1.8	911.466	912.409	913.018	913.020	0
2	22110304	289	Low	10.0	Vague	2	27	34	9	1.8	11.0	1.5	34	9	27	11.0	1.5	1.8	1	0.497	0.001	R	27	1.8	913.522	915.881	916.378	916.380	0
2	22110304	290	Low	10.0	Precise	1	31	34	25	3.4	11.0	0.9	25	31	34	0.9	3.4	11.0	2	0.524	0.000	R	34	11.0	916.882	919.797	920.321	920.323	0
2	22110304	291	Low	10.0	Vague	2	27	33	9	1.8	6.2	1.5	27	9	33	1.8	1.5	6.2	2	1.082	0.001	R	33	6.2	920.826	922.911	923.993	923.996	0
2	22110304	292	Low	10.0	Vague	2	27	31	6	1.8	3.4	0.2	31	6	27	3.4	0.2	1.8	1	0.773	0.000	R	27	1.8	924.498	925.508	926.281	926.283	0
2	22110304	293	Low	10.0	Precise	1	31	33	23	3.4	6.2	0.1	31	23	33	3.4	0.1	6.2	2	0.565	0.000	R	33	6.2	926.787	928.604	929.169	929.172	0
2	22110304	294	Low	10.0	Vague	2	36	33	9	2.5	6.2	1.5	36	9	33	2.5	1.5	6.2	2	0.696	0.001	R	33	6.2	929.675	931.353	932.049	932.052	0
2	22110304	295	Low	10.0	Vague	2	29	36	6	2.4	2.5	0.2	6	36	29	0.2	2.5	2.4	2	1.467	0.001	D	36	2.5	932.555	933.902	935.369	935.372	0
2	22110304	296	Low	10.0	Precise	1	27	34	20	1.8	11.0	0.5	34	20	27	11.0	0.5	1.8	2	0.634	0.000	L	34	11.0	935.874	936.559	937.193	937.196	0
2	22110304	297	Low	10.0	Vague	2	29	31	9	2.4	3.4	1.5	9	29	31	1.5	2.4	3.4	2	1.640	0.001	R	31	3.4	937.699	940.153	941.793	941.796	0
2	22110304	298	Low	10.0	Precise	1	36	31	20	2.5	3.4	0.5	36	20	31	2.5	0.5	3.4	1	1.253	0.001	L	36	2.5	942.299	944.781	946.033	946.036	0
2	22110304	299	Low	10.0	Precise	1	27	33	25	1.8	6.2	0.9	27	25	33	1.8	0.9	6.2	1	0.862	0.000	L	27	1.8	946.538	948.955	949.817	949.820	0
2	22110304	300	Low	10.0	Vague	2	36	31	1	2.5	3.4	0.4	31	1	36	3.4	0.4	2.5	1	0.921	0.001	R	36	2.5	950.323	953.288	954.209	954.212	0
2	22110304	301	Low	10.0	Vague	2	31	33	1	3.4	6.2	0.4	33	1	31	6.2	0.4	3.4	2	0.624	0.001	L	33	6.2	960.729	963.450	964.073	964.076	0
2	22110304	302	Low	10.0	Precise	1	29	36	20	2.4	2.5	0.5	29	36	20	2.4	2.5	0.5	2	1.302	0.000	D	36	2.5	964.579	967.172	968.474	968.476	0
2	22110304	303	Low	10.0	Vague	2	29	36	8	2.4	2.5	1.2	8	29	36	1.2	2.4	2.5	2	1.180	0.001	R	36	2.5	968.979	971.253	972.433	972.436	0
2	22110304	304	Low	10.0	Precise	1	27	34	24	1.8	11.0	0.8	24	27	34	0.8	1.8	11.0	2	0.572	0.001	R	34	11.0	972.939	973.925	974.497	974.500	0
2	22110304	305	Low	10.0	Vague	2	27	33	1	1.8	6.2	0.4	33	27	1	6.2	1.8	0.4	2	0.637	0.001	L	33	6.2	975.003	976.261	976.897	976.900	0
2	22110304	306	Low	10.0	Vague	2	36	31	9	2.5	3.4	1.5	9	36	31	1.5	2.5	3.4	1	1.376	0.001	D	36	2.5	977.403	979.378	980.753	980.756	0
2	22110304	307	Low	10.0	Vague	2	27	31	9	1.8	3.4	1.5	27	9	31	1.8	1.5	3.4	1	0.780	0.000	L	27	1.8	981.259	982.533	983.313	983.316	0
2	22110304	308	Low	10.0	Vague	2	36	31	14	2.5	3.4	1.0	14	36	31	1.0	2.5	3.4	1	1.573	0.001	D	36	2.5	983.818	984.356	985.929	985.932	0
2	22110304	309	Low	10.0	Precise	1	27	31	19	1.8	3.4	0.3	27	19	31	1.8	0.3	3.4	1	0.598	0.001	L	27	1.8	986.434	988.579	989.177	989.181	0
2	22110304	310	Low	10.0	Precise	1	33	34	20	6.2	11.0	0.5	20	34	33	0.5	11.0	6.2	2	0.673	0.001	D	34	11.0	989.684	991.472	992.145	992.148	0
2	22110304	311	Low	10.0	Vague	2	29	33	9	2.4	6.2	1.5	29	33	9	2.4	6.2	1.5	2	0.566	0.001	D	33	6.2	992.650	995.347	995.913	995.916	0
2	22110304	312	Low	10.0	Vague	2	29	33	15	2.4	6.2	1.1	29	33	15	2.4	6.2	1.1	3	1.396	0.001	R	15	1.1	996.419	998.022	999.418	999.420	0
2	22110304	313	Low	10.0	Vague	2	31	33	6	3.4	6.2	0.2	31	6	33	3.4	0.2	6.2	2	0.964	0.001	R	33	6.2	999.922	1001.845	1002.809	1002.812	0
2	22110304	314	Low	10.0	Precise	1	36	31	19	2.5	3.4	0.3	36	19	31	2.5	0.3	3.4	1	0.860	0.000	L	36	2.5	1003.315	1004.661	1005.521	1005.524	0
2	22110304	315	Low	10.0	Precise	1	29	33	19	2.4	6.2	0.3	33	19	29	6.2	0.3	2.4	2	0.638	0.000	L	33	6.2	1006.026	1008.612	1009.249	1009.252	0
2	22110304	316	Low	10.0	Vague	2	27	33	14	1.8	6.2	1.0	14	33	27	1.0	6.2	1.8	2	0.891	0.000	D	33	6.2	1009.755	1010.718	1011.609	1011.612	0
2	22110304	317	Low	10.0	Vague	2	27	31	15	1.8	3.4	1.1	31	15	27	3.4	1.1	1.8	1	0.746	0.000	R	27	1.8	1012.115	1014.975	1015.721	1015.724	0
2	22110304	318	Low	10.0	Vague	2	36	34	1	2.5	11.0	0.4	34	1	36	11.0	0.4	2.5	2	0.627	0.001	L	34	11.0	1016.227	1017.134	1017.761	1017.764	0
2	22110304	319	Low	10.0	Vague	2	33	34	9	6.2	11.0	1.5	9	33	34	1.5	6.2	11.0	2	0.476	0.001	R	34	11.0	1018.267	1019.221	1019.697	1019.700	0
2	22110304	320	Low	10.0	Vague	2	31	33	14	3.4	6.2	1.0	31	33	14	3.4	6.2	1.0	2	0.692	0.001	D	33	6.2	1020.203	1020.741	1021.433	1021.436	0
2	22110304	321	Low	10.0	Vague	2	33	34	6	6.2	11.0	0.2	34	6	33	11.0	0.2	6.2	2	0.507	0.001	L	34	11.0	1021.938	1023.062	1023.569	1023.572	0
2	22110304	322	Low	10.0	Precise	1	27	34	23	1.8	11.0	0.1	34	23	27	11.0	0.1	1.8	2	0.477	0.000	L	34	11.0	1024.075	1025.468	1025.945	1025.948	0
2	22110304	323	Low	10.0	Precise	1	31	34	23	3.4	11.0	0.1	31	23	34	3.4	0.1	11.0	2	0.505	0.000	R	34	11.0	1026.450	1029.200	1029.705	1029.708	0
2	22110304	324	Low	10.0	Vague	2	27	34	15	1.8	11.0	1.1	34	27	15	11.0	1.8	1.1	2	0.463	0.001	L	34	11.0	1030.210	1032.450	1032.913	1032.916	0
2	22110304	325	Low	10.0	Vague	2	36	33	1	2.5	6.2	0.4	33	36	1	6.2	2.5	0.4	2	1.196	0.000	L	33	6.2	1033.419	1036.156	1037.353	1037.355	0
2	22110304	326	Low	10.0	Precise	1	29	31	24	2.4	3.4	0.8	31	29	24	3.4	2.4	0.8	2	1.184	0.000	L	31	3.4	1037.858	1039.665	1040.849	1040.852	0
2	22110304	327	Low	10.0	Vague	2	29	31	8	2.4	3.4	1.2	8	31	29	1.2	3.4	2.4	2	1.486	0.000	D	31	3.4	1041.355	1044.163	1045.649	1045.652	0
2	22110304	328	Low	10.0	Precise	1	27	29	19	1.8	2.4	0.3	27	29	19	1.8	2.4	0.3	1	0.676	0.001	L	27	1.8	1046.154	1047.853	1048.529	1048.531	0
2	22110304	329	Low	10.0	Vague	2	36	34	6	2.5	11.0	0.2	6	34	36	0.2	11.0	2.5	2	0.704	0.001	D	34	11.0	1049.034	1049.706	1050.409	1050.412	0
2	22110304	330	Low	10.0	Vague	2	27	36	15	1.8	2.5	1.1	27	15	36	1.8	1.1	2.5	1	1.114	0.000	L	27	1.8	1050.915	1052.559	1053.673	1053.676	0
2	22110304	331	Low	10.0	Precise	1	27	34	19	1.8	11.0	0.3	19	27	34	0.3	1.8	11.0	2	0.522	0.001	R	34	11.0	1054.178	1057.103	1057.625	1057.627	0
2	22110304	332	Low	10.0	Precise	1	36	33	23	2.5	6.2	0.1	36	23	33	2.5	0.1	6.2	2	0.784	0.001	R	33	6.2	1058.130	1061.057	1061.841	1061.844	0
2	22110304	333	Low	10.0	Vague	2	36	34	8	2.5	11.0	1.2	34	8	36	11.0	1.2	2.5	2	0.540	0.000	L	34	11.0	1062.347	1065.245	1065.785	1065.787	0
2	22110304	334	Low	10.0	Vague	2	29	36	1	2.4	2.5	0.4	1	36	29	0.4	2.5	2.4	2	1.037	0.001	D	36	2.5	1066.290	1067.316	1068.353	1068.356	0
2	22110304	335	Low	10.0	Precise	1	29	33	24	2.4	6.2	0.8	33	24	29	6.2	0.8	2.4	2	0.747	0.001	L	33	6.2	1068.859	1071.782	1072.529	1072.532	0
2	22110304	336	Low	10.0	Precise	1	29	36	19	2.4	2.5	0.3	29	19	36	2.4	0.3	2.5	2	0.792	0.000	R	36	2.5	1073.035	1075.560	1076.353	1076.355	0
2	22110304	337	Low	10.0	Precise	1	27	36	32	1.8	2.5	1.3	36	32	27	2.5	1.3	1.8	1	1.290	0.001	R	27	1.8	1076.858	1079.247	1080.537	1080.540	0
2	22110304	338	Low	10.0	Vague	2	33	34	8	6.2	11.0	1.2	8	34	33	1.2	11.0	6.2	2	0.688	0.001	D	34	11.0	1081.042	1083.898	1084.585	1084.588	0
2	22110304	339	Low	10.0	Vague	2	27	31	1	1.8	3.4	0.4	31	1	27	3.4	0.4	1.8	1	0.552	0.000	R	27	1.8	1085.090	1086.729	1087.281	1087.283	0
2	22110304	340	Low	10.0	Vague	2	33	34	1	6.2	11.0	0.4	34	1	33	11.0	0.4	6.2	2	0.670	0.001	L	34	11.0	1087.786	1090.051	1090.721	1090.723	0
2	22110304	341	Low	10.0	Precise	1	33	34	24	6.2	11.0	0.8	34	24	33	11.0	0.8	6.2	2	0.525	0.001	L	34	11.0	1091.227	1094.021	1094.545	1094.548	0
2	22110304	342	Low	10.0	Vague	2	27	34	6	1.8	11.0	0.2	27	6	34	1.8	0.2	11.0	2	0.552	0.001	R	34	11.0	1095.051	1097.425	1097.977	1097.979	0
2	22110304	343	Low	10.0	Vague	2	31	34	9	3.4	11.0	1.5	9	31	34	1.5	3.4	11.0	2	0.501	0.001	R	34	11.0	1098.482	1100.437	1100.937	1100.940	0
2	22110304	344	Low	10.0	Precise	1	27	36	19	1.8	2.5	0.3	27	36	19	1.8	2.5	0.3	1	0.838	0.001	L	27	1.8	1101.443	1102.091	1102.929	1102.932	0
2	22110304	345	Low	10.0	Vague	2	36	33	14	2.5	6.2	1.0	14	36	33	1.0	2.5	6.2	2	0.917	0.001	R	33	6.2	1103.435	1105.092	1106.009	1106.012	0
2	22110304	346	Low	10.0	Vague	2	27	29	8	1.8	2.4	1.2	8	29	27	1.2	2.4	1.8	1	0.718	0.001	R	27	1.8	1106.514	1107.163	1107.881	1107.884	0
2	22110304	347	Low	10.0	Precise	1	29	36	32	2.4	2.5	1.3	36	29	32	2.5	2.4	1.3	1	1.369	0.001	D	29	2.4	1108.386	1110.377	1111.745	1111.748	0
2	22110304	348	Low	10.0	Precise	1	36	33	25	2.5	6.2	0.9	33	36	25	6.2	2.5	0.9	2	0.782	0.001	L	33	6.2	1112.251	1113.644	1114.425	1114.427	0
2	22110304	349	Low	10.0	Precise	1	29	31	20	2.4	3.4	0.5	31	29	20	3.4	2.4	0.5	2	2.078	0.001	L	31	3.4	1114.930	1116.660	1118.737	1118.739	0
2	22110304	350	Low	10.0	Vague	2	29	31	14	2.4	3.4	1.0	31	14	29	3.4	1.0	2.4	2	1.584	0.000	L	31	3.4	1119.242	1121.705	1123.289	1123.291	0
2	22110304	351	Low	10.0	Vague	2	36	34	15	2.5	11.0	1.1	15	34	36	1.1	11.0	2.5	2	0.807	0.001	D	34	11.0	1123.794	1126.122	1126.929	1126.931	0
2	22110304	352	Low	10.0	Precise	1	29	36	23	2.4	2.5	0.1	23	29	36	0.1	2.4	2.5	2	1.257	0.001	R	36	2.5	1127.434	1128.441	1129.697	1129.700	0
2	22110304	353	Low	10.0	Vague	2	36	33	15	2.5	6.2	1.1	33	36	15	6.2	2.5	1.1	2	0.921	0.000	L	33	6.2	1130.202	1131.264	1132.185	1132.187	0
2	22110304	354	Low	10.0	Precise	1	36	31	23	2.5	3.4	0.1	36	31	23	2.5	3.4	0.1	1	1.275	0.000	L	36	2.5	1132.690	1135.222	1136.497	1136.499	0
2	22110304	355	Low	10.0	Precise	1	29	33	32	2.4	6.2	1.3	32	29	33	1.3	2.4	6.2	2	0.791	0.001	R	33	6.2	1137.003	1138.226	1139.017	1139.019	0
2	22110304	356	Low	10.0	Precise	1	27	31	23	1.8	3.4	0.1	31	27	23	3.4	1.8	0.1	2	1.945	0.000	L	31	3.4	1139.522	1141.807	1143.753	1143.755	0
2	22110304	357	Low	10.0	Precise	1	33	34	19	6.2	11.0	0.3	33	34	19	6.2	11.0	0.3	2	0.607	0.001	D	34	11.0	1144.258	1144.770	1145.377	1145.380	0
2	22110304	358	Low	10.0	Precise	1	29	33	23	2.4	6.2	0.1	33	29	23	6.2	2.4	0.1	2	0.719	0.000	L	33	6.2	1145.883	1146.577	1147.297	1147.300	0
2	22110304	359	Low	10.0	Vague	2	27	34	1	1.8	11.0	0.4	27	1	34	1.8	0.4	11.0	2	0.652	0.001	R	34	11.0	1147.802	1148.317	1148.969	1148.971	0
2	22110304	360	Low	10.0	Vague	2	27	34	8	1.8	11.0	1.2	27	8	34	1.8	1.2	11.0	2	0.470	0.000	R	34	11.0	1149.474	1152.083	1152.553	1152.556	0
