Group	subID	trial	TimePressure	TimeConstraint	Vagueness	Vaguenesscode	ID1	ID2	ID3	V1	V2	V3	ID_left	ID_middle	ID_right	Bid_left	Bid_middle	Bid_right	chosenItem	RT	RTvariance	chosenPosition	chosenID	chosenValue	fixation_time	option_time	choice_time	feedback_time	timeout
2	22110301	1	Low	10.0	Precise	1	33	34	31	0.3	5.3	0.3	34	33	31	5.3	0.3	0.3	2	1.220	0.000	L	34	5.3	6.786	8.219	9.439	9.443	0
2	22110301	2	Low	10.0	Precise	1	25	34	24	2.5	5.3	0.0	25	34	24	2.5	5.3	0.0	2	1.328	0.000	D	34	5.3	9.948	12.632	13.959	13.962	0
2	22110301	3	Low	10.0	Vague	2	26	30	6	0.7	0.8	0.0	30	6	26	0.8	0.0	0.7	2	1.777	0.000	L	30	0.8	14.467	16.423	18.200	18.202	0
2	22110301	4	Low	10.0	Precise	1	33	26	24	0.3	0.7	0.0	26	33	24	0.7	0.3	0.0	2	1.189	0.000	L	26	0.7	18.706	19.915	21.104	21.106	0
2	22110301	5	Low	10.0	Vague	2	25	34	14	2.5	5.3	0.3	34	25	14	5.3	2.5	0.3	2	0.730	0.000	L	34	5.3	21.611	23.317	24.047	24.052	0
2	22110301	6	Low	10.0	Vague	2	33	35	1	0.3	6.7	0.0	35	33	1	6.7	0.3	0.0	2	1.046	0.001	L	35	6.7	24.558	26.954	28.000	28.002	0
2	22110301	7	Low	10.0	Vague	2	30	34	5	0.8	5.3	0.2	34	30	5	5.3	0.8	0.2	2	0.710	0.001	L	34	5.3	28.505	30.785	31.496	31.498	0
2	22110301	8	Low	10.0	Precise	1	33	25	20	0.3	2.5	0.0	25	33	20	2.5	0.3	0.0	2	1.309	0.000	L	25	2.5	32.002	34.170	35.479	35.482	0
2	22110301	9	Low	10.0	Vague	2	26	34	6	0.7	5.3	0.0	34	26	6	5.3	0.7	0.0	2	0.844	0.000	L	34	5.3	35.985	36.876	37.720	37.722	0
2	22110301	10	Low	10.0	Vague	2	30	25	6	0.8	2.5	0.0	6	30	25	0.0	0.8	2.5	1	1.389	0.001	D	30	0.8	38.225	40.587	41.976	41.978	0
2	22110301	11	Low	10.0	Vague	2	26	25	6	0.7	2.5	0.0	26	6	25	0.7	0.0	2.5	2	1.054	0.000	R	25	2.5	42.481	43.874	44.928	44.930	0
2	22110301	12	Low	10.0	Vague	2	33	34	4	0.3	5.3	0.3	34	33	4	5.3	0.3	0.3	2	0.639	0.000	L	34	5.3	45.433	46.473	47.111	47.114	0
2	22110301	13	Low	10.0	Precise	1	33	34	24	0.3	5.3	0.0	24	33	34	0.0	0.3	5.3	2	1.081	0.000	R	34	5.3	47.617	48.326	49.408	49.410	0
2	22110301	14	Low	10.0	Precise	1	33	35	24	0.3	6.7	0.0	33	24	35	0.3	0.0	6.7	2	1.024	0.001	R	35	6.7	49.913	51.367	52.392	52.394	0
2	22110301	15	Low	10.0	Vague	2	26	25	14	0.7	2.5	0.3	14	25	26	0.3	2.5	0.7	2	1.573	0.000	D	25	2.5	52.896	54.002	55.575	55.578	0
2	22110301	16	Low	10.0	Precise	1	33	30	20	0.3	0.8	0.0	33	30	20	0.3	0.8	0.0	2	1.424	0.001	D	30	0.8	56.080	56.712	58.136	58.138	0
2	22110301	17	Low	10.0	Precise	1	30	25	29	0.8	2.5	0.2	25	29	30	2.5	0.2	0.8	1	1.100	0.000	R	30	0.8	58.641	59.307	60.407	60.410	0
2	22110301	18	Low	10.0	Vague	2	26	25	18	0.7	2.5	0.3	18	25	26	0.3	2.5	0.7	2	1.028	0.000	D	25	2.5	60.913	62.995	64.023	64.026	0
2	22110301	19	Low	10.0	Precise	1	30	25	22	0.8	2.5	0.2	25	30	22	2.5	0.8	0.2	2	0.853	0.000	L	25	2.5	64.529	67.146	68.000	68.002	0
2	22110301	20	Low	10.0	Precise	1	26	34	22	0.7	5.3	0.2	22	26	34	0.2	0.7	5.3	2	0.830	0.001	R	34	5.3	68.505	71.289	72.120	72.122	0
2	22110301	21	Low	10.0	Precise	1	25	35	24	2.5	6.7	0.0	24	35	25	0.0	6.7	2.5	1	0.831	0.000	R	25	2.5	72.625	73.624	74.455	74.458	0
2	22110301	22	Low	10.0	Vague	2	26	30	4	0.7	0.8	0.3	4	30	26	0.3	0.8	0.7	2	1.487	0.001	D	30	0.8	74.961	77.072	78.560	78.562	0
2	22110301	23	Low	10.0	Vague	2	30	25	1	0.8	2.5	0.0	25	30	1	2.5	0.8	0.0	2	0.845	0.000	L	25	2.5	79.065	80.706	81.551	81.554	0
2	22110301	24	Low	10.0	Precise	1	30	25	20	0.8	2.5	0.0	25	30	20	2.5	0.8	0.0	2	1.106	0.000	L	25	2.5	82.057	83.822	84.928	84.930	0
2	22110301	25	Low	10.0	Vague	2	25	34	6	2.5	5.3	0.0	6	34	25	0.0	5.3	2.5	1	0.696	0.000	R	25	2.5	85.433	86.303	86.999	87.002	0
2	22110301	26	Low	10.0	Precise	1	30	25	36	0.8	2.5	0.0	36	25	30	0.0	2.5	0.8	2	1.148	0.001	D	25	2.5	87.505	90.468	91.616	91.618	0
2	22110301	27	Low	10.0	Vague	2	30	34	4	0.8	5.3	0.3	30	4	34	0.8	0.3	5.3	2	0.719	0.000	R	34	5.3	92.121	92.664	93.384	93.386	0
2	22110301	28	Low	10.0	Precise	1	33	34	20	0.3	5.3	0.0	20	33	34	0.0	0.3	5.3	2	0.548	0.000	R	34	5.3	93.889	96.428	96.976	96.978	0
2	22110301	29	Low	10.0	Precise	1	30	25	24	0.8	2.5	0.0	30	24	25	0.8	0.0	2.5	2	1.595	0.000	R	25	2.5	97.480	99.996	101.591	101.594	0
2	22110301	30	Low	10.0	Vague	2	33	26	4	0.3	0.7	0.3	26	4	33	0.7	0.3	0.3	2	1.451	0.000	L	26	0.7	102.097	103.237	104.688	104.690	0
2	22110301	31	Low	10.0	Vague	2	33	25	1	0.3	2.5	0.0	25	1	33	2.5	0.0	0.3	2	0.995	0.001	L	25	2.5	105.192	107.965	108.960	108.962	0
2	22110301	32	Low	10.0	Vague	2	33	34	6	0.3	5.3	0.0	33	6	34	0.3	0.0	5.3	2	0.818	0.001	R	34	5.3	109.465	110.965	111.784	111.786	0
2	22110301	33	Low	10.0	Vague	2	25	34	5	2.5	5.3	0.2	25	5	34	2.5	0.2	5.3	2	0.858	0.000	R	34	5.3	112.288	113.357	114.215	114.218	0
2	22110301	34	Low	10.0	Precise	1	30	35	36	0.8	6.7	0.0	30	35	36	0.8	6.7	0.0	2	1.407	0.000	D	35	6.7	114.720	117.224	118.632	118.634	0
2	22110301	35	Low	10.0	Precise	1	26	35	36	0.7	6.7	0.0	35	36	26	6.7	0.0	0.7	2	1.108	0.001	L	35	6.7	119.137	121.724	122.832	122.834	0
2	22110301	36	Low	10.0	Precise	1	26	30	24	0.7	0.8	0.0	24	26	30	0.0	0.7	0.8	1	1.525	0.000	D	26	0.7	123.337	124.491	126.016	126.018	0
2	22110301	37	Low	10.0	Precise	1	30	34	36	0.8	5.3	0.0	30	34	36	0.8	5.3	0.0	2	0.947	0.000	D	34	5.3	126.521	128.389	129.335	129.338	0
2	22110301	38	Low	10.0	Vague	2	30	34	6	0.8	5.3	0.0	6	34	30	0.0	5.3	0.8	2	0.771	0.000	D	34	5.3	129.841	131.557	132.328	132.330	0
2	22110301	39	Low	10.0	Vague	2	34	35	6	5.3	6.7	0.0	35	34	6	6.7	5.3	0.0	2	1.505	0.001	L	35	6.7	132.832	135.494	137.000	137.002	0
2	22110301	40	Low	10.0	Vague	2	26	34	4	0.7	5.3	0.3	4	26	34	0.3	0.7	5.3	2	0.824	0.000	R	34	5.3	137.504	138.696	139.520	139.522	0
2	22110301	41	Low	10.0	Vague	2	26	35	18	0.7	6.7	0.3	18	26	35	0.3	0.7	6.7	2	1.099	0.000	R	35	6.7	140.025	140.820	141.919	141.922	0
2	22110301	42	Low	10.0	Precise	1	30	25	31	0.8	2.5	0.3	25	31	30	2.5	0.3	0.8	2	1.121	0.000	L	25	2.5	142.425	143.327	144.448	144.450	0
2	22110301	43	Low	10.0	Vague	2	34	35	5	5.3	6.7	0.2	35	5	34	6.7	0.2	5.3	2	2.319	0.000	L	35	6.7	144.952	146.800	149.119	149.122	0
2	22110301	44	Low	10.0	Vague	2	26	30	5	0.7	0.8	0.2	26	5	30	0.7	0.2	0.8	1	1.509	0.000	L	26	0.7	149.624	151.138	152.647	152.650	0
2	22110301	45	Low	10.0	Precise	1	30	35	29	0.8	6.7	0.2	35	30	29	6.7	0.8	0.2	2	0.715	0.001	L	35	6.7	153.154	154.404	155.120	155.122	0
2	22110301	46	Low	10.0	Precise	1	26	35	22	0.7	6.7	0.2	22	26	35	0.2	0.7	6.7	2	0.671	0.000	R	35	6.7	155.625	158.432	159.103	159.106	0
2	22110301	47	Low	10.0	Vague	2	33	35	6	0.3	6.7	0.0	6	35	33	0.0	6.7	0.3	2	1.070	0.001	D	35	6.7	159.609	162.033	163.104	163.106	0
2	22110301	48	Low	10.0	Precise	1	26	35	24	0.7	6.7	0.0	35	24	26	6.7	0.0	0.7	2	0.844	0.000	L	35	6.7	163.609	165.332	166.176	166.178	0
2	22110301	49	Low	10.0	Vague	2	30	25	18	0.8	2.5	0.3	25	30	18	2.5	0.8	0.3	2	0.812	0.000	L	25	2.5	166.681	169.612	170.424	170.426	0
2	22110301	50	Low	10.0	Precise	1	26	34	24	0.7	5.3	0.0	26	24	34	0.7	0.0	5.3	2	0.687	0.000	R	34	5.3	170.929	173.568	174.255	174.258	0
2	22110301	51	Low	10.0	Precise	1	26	25	24	0.7	2.5	0.0	26	25	24	0.7	2.5	0.0	2	0.860	0.001	D	25	2.5	174.761	175.956	176.816	176.819	0
2	22110301	52	Low	10.0	Vague	2	33	30	4	0.3	0.8	0.3	4	30	33	0.3	0.8	0.3	2	2.219	0.001	D	30	0.8	177.321	178.388	180.608	180.610	0
2	22110301	53	Low	10.0	Precise	1	34	35	20	5.3	6.7	0.0	34	35	20	5.3	6.7	0.0	2	1.487	0.001	D	35	6.7	181.113	182.745	184.232	184.234	0
2	22110301	54	Low	10.0	Vague	2	33	26	1	0.3	0.7	0.0	33	26	1	0.3	0.7	0.0	2	1.420	0.001	D	26	0.7	184.736	185.436	186.856	186.858	0
2	22110301	55	Low	10.0	Vague	2	30	35	4	0.8	6.7	0.3	35	30	4	6.7	0.8	0.3	2	1.340	0.000	L	35	6.7	187.360	188.259	189.599	189.602	0
2	22110301	56	Low	10.0	Precise	1	26	25	29	0.7	2.5	0.2	25	26	29	2.5	0.7	0.2	2	1.032	0.000	L	25	2.5	190.104	192.487	193.519	193.522	0
2	22110301	57	Low	10.0	Precise	1	26	30	22	0.7	0.8	0.2	26	30	22	0.7	0.8	0.2	1	1.723	0.000	L	26	0.7	194.024	196.501	198.223	198.226	0
2	22110301	58	Low	10.0	Vague	2	33	25	4	0.3	2.5	0.3	33	25	4	0.3	2.5	0.3	2	1.555	0.000	D	25	2.5	198.729	199.556	201.111	201.114	0
2	22110301	59	Low	10.0	Precise	1	33	25	31	0.3	2.5	0.3	31	33	25	0.3	0.3	2.5	2	0.766	0.000	R	25	2.5	201.616	202.762	203.527	203.530	0
2	22110301	60	Low	10.0	Vague	2	26	34	5	0.7	5.3	0.2	26	34	5	0.7	5.3	0.2	2	1.184	0.000	D	34	5.3	204.033	204.680	205.864	205.866	0
2	22110301	61	Low	10.0	Vague	2	26	25	4	0.7	2.5	0.3	26	25	4	0.7	2.5	0.3	2	1.408	0.001	D	25	2.5	221.425	224.000	225.408	225.410	0
2	22110301	62	Low	10.0	Precise	1	33	30	29	0.3	0.8	0.2	33	29	30	0.3	0.2	0.8	2	1.332	0.001	R	30	0.8	225.913	226.812	228.144	228.146	0
2	22110301	63	Low	10.0	Precise	1	33	30	31	0.3	0.8	0.3	30	31	33	0.8	0.3	0.3	2	1.046	0.000	L	30	0.8	228.649	230.865	231.911	231.914	0
2	22110301	64	Low	10.0	Precise	1	25	34	22	2.5	5.3	0.2	34	25	22	5.3	2.5	0.2	2	0.874	0.000	L	34	5.3	232.417	234.477	235.351	235.354	0
2	22110301	65	Low	10.0	Precise	1	26	34	20	0.7	5.3	0.0	20	26	34	0.0	0.7	5.3	2	0.725	0.001	R	34	5.3	235.857	238.107	238.832	238.834	0
2	22110301	66	Low	10.0	Precise	1	25	35	22	2.5	6.7	0.2	35	22	25	6.7	0.2	2.5	2	0.839	0.000	L	35	6.7	239.338	240.440	241.280	241.282	0
2	22110301	67	Low	10.0	Precise	1	30	34	29	0.8	5.3	0.2	29	34	30	0.2	5.3	0.8	2	0.765	0.000	D	34	5.3	241.785	244.595	245.360	245.362	0
2	22110301	68	Low	10.0	Precise	1	33	35	22	0.3	6.7	0.2	35	22	33	6.7	0.2	0.3	2	0.820	0.001	L	35	6.7	245.865	248.715	249.536	249.538	0
2	22110301	69	Low	10.0	Vague	2	33	30	6	0.3	0.8	0.0	6	30	33	0.0	0.8	0.3	2	1.131	0.000	D	30	0.8	250.042	252.060	253.191	253.194	0
2	22110301	70	Low	10.0	Precise	1	33	25	22	0.3	2.5	0.2	33	22	25	0.3	0.2	2.5	2	0.962	0.000	R	25	2.5	253.697	254.918	255.880	255.882	0
2	22110301	71	Low	10.0	Vague	2	25	35	14	2.5	6.7	0.3	35	25	14	6.7	2.5	0.3	2	0.922	0.001	L	35	6.7	256.385	257.166	258.088	258.090	0
2	22110301	72	Low	10.0	Vague	2	25	34	18	2.5	5.3	0.3	34	25	18	5.3	2.5	0.3	2	0.596	0.001	L	34	5.3	258.593	260.892	261.488	261.490	0
2	22110301	73	Low	10.0	Precise	1	30	35	22	0.8	6.7	0.2	30	22	35	0.8	0.2	6.7	1	1.036	0.000	L	30	0.8	261.993	262.771	263.807	263.810	0
2	22110301	74	Low	10.0	Vague	2	33	30	5	0.3	0.8	0.2	5	33	30	0.2	0.3	0.8	2	1.510	0.000	R	30	0.8	264.313	265.938	267.448	267.450	0
2	22110301	75	Low	10.0	Vague	2	25	35	18	2.5	6.7	0.3	18	35	25	0.3	6.7	2.5	2	1.041	0.000	D	35	6.7	267.953	270.159	271.199	271.202	0
2	22110301	76	Low	10.0	Vague	2	33	25	18	0.3	2.5	0.3	33	18	25	0.3	0.3	2.5	2	0.633	0.000	R	25	2.5	271.705	274.222	274.856	274.858	0
2	22110301	77	Low	10.0	Vague	2	25	35	5	2.5	6.7	0.2	35	25	5	6.7	2.5	0.2	2	0.729	0.000	L	35	6.7	275.360	277.142	277.871	277.874	0
2	22110301	78	Low	10.0	Precise	1	33	35	36	0.3	6.7	0.0	36	33	35	0.0	0.3	6.7	2	0.732	0.000	R	35	6.7	278.376	280.132	280.864	280.866	0
2	22110301	79	Low	10.0	Vague	2	34	35	18	5.3	6.7	0.3	18	35	34	0.3	6.7	5.3	2	1.015	0.000	D	35	6.7	281.369	282.577	283.592	283.594	0
2	22110301	80	Low	10.0	Precise	1	33	34	29	0.3	5.3	0.2	33	29	34	0.3	0.2	5.3	2	0.704	0.001	R	34	5.3	284.097	285.543	286.248	286.250	0
2	22110301	81	Low	10.0	Precise	1	33	26	22	0.3	0.7	0.2	22	33	26	0.2	0.3	0.7	2	1.443	0.000	R	26	0.7	286.753	289.181	290.623	290.626	0
2	22110301	82	Low	10.0	Vague	2	26	30	14	0.7	0.8	0.3	26	30	14	0.7	0.8	0.3	1	1.099	0.000	L	26	0.7	291.129	292.308	293.408	293.410	0
2	22110301	83	Low	10.0	Vague	2	33	35	5	0.3	6.7	0.2	5	35	33	0.2	6.7	0.3	2	0.981	0.000	D	35	6.7	293.913	295.595	296.576	296.578	0
2	22110301	84	Low	10.0	Vague	2	30	35	5	0.8	6.7	0.2	35	5	30	6.7	0.2	0.8	2	0.728	0.000	L	35	6.7	297.081	299.424	300.152	300.154	0
2	22110301	85	Low	10.0	Vague	2	30	35	14	0.8	6.7	0.3	30	14	35	0.8	0.3	6.7	2	0.663	0.000	R	35	6.7	300.657	303.200	303.863	303.866	0
2	22110301	86	Low	10.0	Precise	1	26	30	31	0.7	0.8	0.3	31	30	26	0.3	0.8	0.7	1	0.634	0.000	R	26	0.7	304.368	307.341	307.975	307.978	0
2	22110301	87	Low	10.0	Vague	2	30	25	14	0.8	2.5	0.3	25	30	14	2.5	0.8	0.3	2	0.708	0.000	L	25	2.5	308.481	310.099	310.808	310.810	0
2	22110301	88	Low	10.0	Precise	1	34	35	24	5.3	6.7	0.0	24	34	35	0.0	5.3	6.7	2	0.936	0.001	R	35	6.7	311.312	313.400	314.336	314.338	0
2	22110301	89	Low	10.0	Precise	1	25	35	31	2.5	6.7	0.3	35	25	31	6.7	2.5	0.3	2	0.543	0.001	L	35	6.7	314.841	316.664	317.208	317.210	0
2	22110301	90	Low	10.0	Vague	2	33	34	1	0.3	5.3	0.0	33	34	1	0.3	5.3	0.0	2	0.734	0.001	D	34	5.3	317.713	318.730	319.463	319.467	0
2	22110301	91	Low	10.0	Precise	1	34	35	36	5.3	6.7	0.0	36	35	34	0.0	6.7	5.3	1	0.570	0.000	R	34	5.3	319.969	322.301	322.871	322.874	0
2	22110301	92	Low	10.0	Vague	2	34	35	4	5.3	6.7	0.3	35	34	4	6.7	5.3	0.3	2	1.120	0.001	L	35	6.7	323.376	326.272	327.392	327.394	0
2	22110301	93	Low	10.0	Vague	2	26	35	14	0.7	6.7	0.3	14	26	35	0.3	0.7	6.7	2	0.614	0.000	R	35	6.7	327.897	329.193	329.808	329.810	0
2	22110301	94	Low	10.0	Precise	1	26	35	31	0.7	6.7	0.3	26	31	35	0.7	0.3	6.7	2	0.497	0.000	R	35	6.7	330.313	332.127	332.624	332.626	0
2	22110301	95	Low	10.0	Precise	1	33	34	22	0.3	5.3	0.2	22	33	34	0.2	0.3	5.3	2	0.610	0.001	R	34	5.3	333.129	334.974	335.584	335.586	0
2	22110301	96	Low	10.0	Vague	2	33	35	14	0.3	6.7	0.3	33	35	14	0.3	6.7	0.3	2	0.805	0.000	D	35	6.7	336.088	336.595	337.400	337.402	0
2	22110301	97	Low	10.0	Precise	1	25	34	20	2.5	5.3	0.0	20	34	25	0.0	5.3	2.5	2	1.193	0.000	D	34	5.3	337.904	340.030	341.224	341.226	0
2	22110301	98	Low	10.0	Precise	1	33	34	36	0.3	5.3	0.0	36	33	34	0.0	0.3	5.3	2	0.647	0.000	R	34	5.3	341.729	344.624	345.272	345.274	0
2	22110301	99	Low	10.0	Precise	1	33	26	36	0.3	0.7	0.0	26	33	36	0.7	0.3	0.0	2	1.614	0.001	L	26	0.7	345.777	348.610	350.224	350.226	0
2	22110301	100	Low	10.0	Vague	2	26	34	1	0.7	5.3	0.0	34	26	1	5.3	0.7	0.0	2	0.768	0.000	L	34	5.3	350.729	353.159	353.927	353.930	0
2	22110301	101	Low	10.0	Precise	1	26	34	29	0.7	5.3	0.2	29	26	34	0.2	0.7	5.3	2	0.593	0.000	R	34	5.3	354.432	356.159	356.751	356.754	0
2	22110301	102	Low	10.0	Precise	1	30	35	20	0.8	6.7	0.0	35	20	30	6.7	0.0	0.8	2	0.601	0.000	L	35	6.7	357.257	360.063	360.664	360.666	0
2	22110301	103	Low	10.0	Vague	2	33	35	4	0.3	6.7	0.3	33	35	4	0.3	6.7	0.3	2	0.784	0.001	D	35	6.7	361.168	363.936	364.720	364.722	0
2	22110301	104	Low	10.0	Vague	2	33	30	18	0.3	0.8	0.3	18	30	33	0.3	0.8	0.3	2	1.232	0.000	D	30	0.8	365.225	367.103	368.335	368.338	0
2	22110301	105	Low	10.0	Vague	2	33	30	1	0.3	0.8	0.0	33	1	30	0.3	0.0	0.8	2	0.886	0.000	R	30	0.8	368.841	370.337	371.223	371.226	0
2	22110301	106	Low	10.0	Precise	1	26	25	20	0.7	2.5	0.0	26	20	25	0.7	0.0	2.5	1	0.779	0.001	L	26	0.7	371.728	372.701	373.480	373.482	0
2	22110301	107	Low	10.0	Vague	2	30	25	4	0.8	2.5	0.3	25	4	30	2.5	0.3	0.8	2	1.011	0.000	L	25	2.5	373.984	375.045	376.056	376.058	0
2	22110301	108	Low	10.0	Vague	2	33	25	5	0.3	2.5	0.2	33	5	25	0.3	0.2	2.5	2	0.620	0.000	R	25	2.5	376.561	378.180	378.799	378.802	0
2	22110301	109	Low	10.0	Precise	1	34	35	29	5.3	6.7	0.2	35	29	34	6.7	0.2	5.3	2	0.836	0.000	L	35	6.7	379.305	380.251	381.088	381.090	0
2	22110301	110	Low	10.0	Vague	2	26	35	4	0.7	6.7	0.3	4	26	35	0.3	0.7	6.7	2	0.911	0.001	R	35	6.7	381.593	383.625	384.536	384.538	0
2	22110301	111	Low	10.0	Vague	2	25	35	1	2.5	6.7	0.0	1	25	35	0.0	2.5	6.7	2	0.648	0.000	R	35	6.7	385.040	387.200	387.848	387.850	0
2	22110301	112	Low	10.0	Precise	1	26	35	29	0.7	6.7	0.2	29	26	35	0.2	0.7	6.7	2	0.601	0.000	R	35	6.7	388.352	391.015	391.616	391.618	0
2	22110301	113	Low	10.0	Vague	2	26	30	18	0.7	0.8	0.3	26	30	18	0.7	0.8	0.3	1	1.303	0.000	L	26	0.7	392.120	393.664	394.967	394.970	0
2	22110301	114	Low	10.0	Vague	2	26	34	14	0.7	5.3	0.3	26	14	34	0.7	0.3	5.3	2	0.632	0.000	R	34	5.3	395.472	396.536	397.168	397.170	0
2	22110301	115	Low	10.0	Vague	2	34	35	1	5.3	6.7	0.0	35	1	34	6.7	0.0	5.3	2	0.936	0.000	L	35	6.7	397.673	400.456	401.391	401.394	0
2	22110301	116	Low	10.0	Vague	2	33	30	14	0.3	0.8	0.3	14	33	30	0.3	0.3	0.8	2	1.302	0.000	R	30	0.8	401.897	403.913	405.216	405.218	0
2	22110301	117	Low	10.0	Vague	2	26	25	1	0.7	2.5	0.0	26	25	1	0.7	2.5	0.0	1	0.872	0.000	L	26	0.7	405.722	407.136	408.008	408.010	0
2	22110301	118	Low	10.0	Vague	2	26	30	1	0.7	0.8	0.0	30	1	26	0.8	0.0	0.7	1	0.746	0.000	R	26	0.7	408.512	409.877	410.624	410.626	0
2	22110301	119	Low	10.0	Vague	2	33	26	14	0.3	0.7	0.3	33	14	26	0.3	0.3	0.7	2	0.882	0.000	R	26	0.7	411.129	414.037	414.919	414.922	0
2	22110301	120	Low	10.0	Vague	2	26	35	1	0.7	6.7	0.0	35	26	1	6.7	0.7	0.0	2	0.794	0.001	L	35	6.7	415.425	418.198	418.992	418.994	0
2	22110301	121	Low	10.0	Precise	1	33	35	29	0.3	6.7	0.2	29	33	35	0.2	0.3	6.7	2	0.706	0.001	R	35	6.7	427.029	429.221	429.928	429.930	0
2	22110301	122	Low	10.0	Precise	1	30	34	20	0.8	5.3	0.0	34	30	20	5.3	0.8	0.0	2	0.495	0.000	L	34	5.3	430.433	433.160	433.656	433.658	0
2	22110301	123	Low	10.0	Precise	1	26	35	20	0.7	6.7	0.0	35	26	20	6.7	0.7	0.0	2	0.623	0.001	L	35	6.7	434.161	436.001	436.624	436.626	0
2	22110301	124	Low	10.0	Vague	2	26	25	5	0.7	2.5	0.2	25	5	26	2.5	0.2	0.7	2	0.837	0.000	L	25	2.5	437.129	438.643	439.480	439.482	0
2	22110301	125	Low	10.0	Vague	2	25	34	4	2.5	5.3	0.3	34	4	25	5.3	0.3	2.5	2	0.700	0.001	L	34	5.3	439.984	441.131	441.832	441.834	0
2	22110301	126	Low	10.0	Precise	1	33	30	22	0.3	0.8	0.2	33	22	30	0.3	0.2	0.8	2	0.884	0.001	R	30	0.8	442.336	444.500	445.384	445.386	0
2	22110301	127	Low	10.0	Precise	1	33	25	24	0.3	2.5	0.0	33	25	24	0.3	2.5	0.0	2	1.285	0.001	D	25	2.5	445.888	446.683	447.968	447.970	0
2	22110301	128	Low	10.0	Vague	2	30	25	5	0.8	2.5	0.2	25	5	30	2.5	0.2	0.8	2	0.511	0.001	L	25	2.5	448.473	451.272	451.784	451.786	0
2	22110301	129	Low	10.0	Vague	2	33	26	5	0.3	0.7	0.2	26	5	33	0.7	0.2	0.3	2	0.868	0.000	L	26	0.7	452.288	454.867	455.735	455.738	0
2	22110301	130	Low	10.0	Precise	1	25	35	36	2.5	6.7	0.0	25	36	35	2.5	0.0	6.7	1	0.639	0.001	L	25	2.5	456.240	457.873	458.512	458.514	0
2	22110301	131	Low	10.0	Vague	2	25	34	1	2.5	5.3	0.0	1	25	34	0.0	2.5	5.3	2	0.837	0.000	R	34	5.3	459.017	461.187	462.024	462.026	0
2	22110301	132	Low	10.0	Vague	2	30	35	1	0.8	6.7	0.0	30	1	35	0.8	0.0	6.7	2	0.649	0.000	R	35	6.7	462.529	463.974	464.623	464.626	0
2	22110301	133	Low	10.0	Precise	1	30	35	31	0.8	6.7	0.3	35	30	31	6.7	0.8	0.3	2	0.527	0.000	L	35	6.7	465.129	466.865	467.392	467.394	0
2	22110301	134	Low	10.0	Precise	1	25	34	36	2.5	5.3	0.0	25	34	36	2.5	5.3	0.0	2	1.147	0.000	D	34	5.3	467.897	470.756	471.903	471.906	0
2	22110301	135	Low	10.0	Vague	2	30	34	1	0.8	5.3	0.0	30	34	1	0.8	5.3	0.0	2	0.615	0.000	D	34	5.3	472.409	475.128	475.743	475.746	0
2	22110301	136	Low	10.0	Vague	2	33	34	14	0.3	5.3	0.3	34	14	33	5.3	0.3	0.3	2	0.581	0.000	L	34	5.3	476.249	477.314	477.895	477.898	0
2	22110301	137	Low	10.0	Precise	1	33	26	20	0.3	0.7	0.0	33	26	20	0.3	0.7	0.0	2	0.822	0.001	D	26	0.7	478.401	480.561	481.384	481.386	0
2	22110301	138	Low	10.0	Precise	1	33	35	31	0.3	6.7	0.3	31	33	35	0.3	0.3	6.7	2	0.691	0.000	R	35	6.7	481.890	484.124	484.815	484.818	0
2	22110301	139	Low	10.0	Precise	1	25	35	20	2.5	6.7	0.0	35	25	20	6.7	2.5	0.0	2	0.585	0.000	L	35	6.7	485.321	486.351	486.936	486.938	0
2	22110301	140	Low	10.0	Precise	1	30	34	31	0.8	5.3	0.3	30	34	31	0.8	5.3	0.3	2	0.623	0.001	D	34	5.3	487.440	488.489	489.112	489.115	0
2	22110301	141	Low	10.0	Precise	1	34	35	22	5.3	6.7	0.2	22	35	34	0.2	6.7	5.3	1	0.536	0.000	R	34	5.3	489.618	491.047	491.583	491.586	0
2	22110301	142	Low	10.0	Precise	1	33	26	29	0.3	0.7	0.2	26	29	33	0.7	0.2	0.3	2	0.810	0.000	L	26	0.7	492.089	493.302	494.112	494.114	0
2	22110301	143	Low	10.0	Precise	1	26	25	31	0.7	2.5	0.3	25	26	31	2.5	0.7	0.3	1	0.820	0.000	D	26	0.7	494.618	495.412	496.232	496.234	0
2	22110301	144	Low	10.0	Vague	2	30	35	18	0.8	6.7	0.3	30	35	18	0.8	6.7	0.3	2	0.677	0.000	D	35	6.7	496.737	497.490	498.168	498.170	0
2	22110301	145	Low	10.0	Precise	1	33	25	29	0.3	2.5	0.2	33	25	29	0.3	2.5	0.2	2	1.045	0.000	D	25	2.5	498.672	499.330	500.375	500.378	0
2	22110301	146	Low	10.0	Vague	2	26	34	18	0.7	5.3	0.3	26	18	34	0.7	0.3	5.3	2	0.863	0.000	R	34	5.3	500.880	501.801	502.664	502.666	0
2	22110301	147	Low	10.0	Precise	1	26	34	31	0.7	5.3	0.3	34	31	26	5.3	0.3	0.7	2	0.759	0.001	L	34	5.3	503.169	506.113	506.872	506.874	0
2	22110301	148	Low	10.0	Vague	2	34	35	14	5.3	6.7	0.3	34	14	35	5.3	0.3	6.7	2	0.722	0.000	R	35	6.7	507.378	509.589	510.311	510.314	0
2	22110301	149	Low	10.0	Precise	1	25	35	29	2.5	6.7	0.2	29	35	25	0.2	6.7	2.5	2	0.637	0.001	D	35	6.7	510.817	513.747	514.384	514.387	0
2	22110301	150	Low	10.0	Vague	2	25	35	6	2.5	6.7	0.0	6	25	35	0.0	2.5	6.7	2	0.689	0.000	R	35	6.7	514.889	516.966	517.656	517.658	0
2	22110301	151	Low	10.0	Vague	2	33	34	5	0.3	5.3	0.2	33	34	5	0.3	5.3	0.2	2	0.533	0.000	D	34	5.3	518.161	521.138	521.672	521.674	0
2	22110301	152	Low	10.0	Vague	2	33	25	14	0.3	2.5	0.3	14	25	33	0.3	2.5	0.3	2	0.865	0.000	D	25	2.5	522.177	524.935	525.800	525.802	0
2	22110301	153	Low	10.0	Vague	2	26	35	6	0.7	6.7	0.0	6	35	26	0.0	6.7	0.7	2	0.723	0.001	D	35	6.7	526.305	528.308	529.032	529.034	0
2	22110301	154	Low	10.0	Precise	1	33	25	36	0.3	2.5	0.0	33	36	25	0.3	0.0	2.5	2	0.788	0.001	R	25	2.5	529.537	531.228	532.016	532.018	0
2	22110301	155	Low	10.0	Vague	2	33	34	18	0.3	5.3	0.3	33	18	34	0.3	0.3	5.3	2	0.577	0.000	R	34	5.3	532.521	534.551	535.128	535.130	0
2	22110301	156	Low	10.0	Vague	2	33	25	6	0.3	2.5	0.0	25	33	6	2.5	0.3	0.0	2	0.672	0.000	L	25	2.5	535.633	536.952	537.624	537.626	0
2	22110301	157	Low	10.0	Vague	2	26	35	5	0.7	6.7	0.2	26	5	35	0.7	0.2	6.7	2	0.574	0.000	R	35	6.7	538.129	540.401	540.975	540.978	0
2	22110301	158	Low	10.0	Precise	1	25	34	31	2.5	5.3	0.3	34	25	31	5.3	2.5	0.3	2	1.081	0.000	L	34	5.3	541.482	542.550	543.631	543.634	0
2	22110301	159	Low	10.0	Vague	2	33	35	18	0.3	6.7	0.3	18	33	35	0.3	0.3	6.7	2	0.539	0.000	R	35	6.7	544.137	545.388	545.927	545.930	0
2	22110301	160	Low	10.0	Vague	2	33	26	6	0.3	0.7	0.0	6	26	33	0.0	0.7	0.3	2	0.774	0.000	D	26	0.7	546.433	547.082	547.856	547.858	0
2	22110301	161	Low	10.0	Vague	2	30	34	14	0.8	5.3	0.3	30	34	14	0.8	5.3	0.3	2	0.804	0.000	D	34	5.3	548.361	549.187	549.992	549.994	0
2	22110301	162	Low	10.0	Precise	1	30	34	24	0.8	5.3	0.0	30	34	24	0.8	5.3	0.0	2	0.771	0.000	D	34	5.3	550.497	552.140	552.912	552.914	0
2	22110301	163	Low	10.0	Vague	2	33	26	18	0.3	0.7	0.3	18	26	33	0.3	0.7	0.3	2	0.759	0.001	D	26	0.7	553.417	556.337	557.096	557.098	0
2	22110301	164	Low	10.0	Vague	2	30	34	18	0.8	5.3	0.3	34	30	18	5.3	0.8	0.3	2	0.834	0.001	L	34	5.3	557.601	559.438	560.272	560.274	0
2	22110301	165	Low	10.0	Precise	1	26	34	36	0.7	5.3	0.0	36	34	26	0.0	5.3	0.7	2	0.656	0.000	D	34	5.3	560.777	561.775	562.431	562.434	0
2	22110301	166	Low	10.0	Precise	1	33	30	36	0.3	0.8	0.0	33	30	36	0.3	0.8	0.0	3	0.766	0.001	R	36	0.0	562.937	563.873	564.640	564.642	0
2	22110301	167	Low	10.0	Precise	1	33	35	20	0.3	6.7	0.0	35	20	33	6.7	0.0	0.3	2	0.638	0.000	L	35	6.7	565.145	566.393	567.032	567.034	0
2	22110301	168	Low	10.0	Precise	1	26	25	22	0.7	2.5	0.2	22	26	25	0.2	0.7	2.5	2	0.936	0.000	R	25	2.5	567.536	568.288	569.224	569.226	0
2	22110301	169	Low	10.0	Vague	2	30	35	6	0.8	6.7	0.0	6	35	30	0.0	6.7	0.8	2	0.857	0.001	D	35	6.7	569.729	570.711	571.568	571.571	0
2	22110301	170	Low	10.0	Precise	1	30	35	24	0.8	6.7	0.0	24	30	35	0.0	0.8	6.7	2	0.591	0.001	R	35	6.7	572.074	572.785	573.376	573.378	0
2	22110301	171	Low	10.0	Precise	1	30	34	22	0.8	5.3	0.2	22	30	34	0.2	0.8	5.3	2	0.583	0.000	R	34	5.3	573.881	575.041	575.624	575.626	0
2	22110301	172	Low	10.0	Precise	1	25	34	29	2.5	5.3	0.2	29	25	34	0.2	2.5	5.3	2	0.500	0.001	R	34	5.3	576.129	577.948	578.448	578.450	0
2	22110301	173	Low	10.0	Precise	1	26	30	29	0.7	0.8	0.2	30	29	26	0.8	0.2	0.7	1	1.011	0.000	R	26	0.7	578.953	579.589	580.599	580.603	0
2	22110301	174	Low	10.0	Vague	2	25	35	4	2.5	6.7	0.3	25	4	35	2.5	0.3	6.7	2	1.015	0.000	R	35	6.7	581.105	583.833	584.847	584.850	0
2	22110301	175	Low	10.0	Precise	1	33	26	31	0.3	0.7	0.3	26	33	31	0.7	0.3	0.3	2	0.953	0.001	L	26	0.7	585.353	586.247	587.200	587.202	0
2	22110301	176	Low	10.0	Precise	1	26	30	36	0.7	0.8	0.0	26	30	36	0.7	0.8	0.0	3	0.678	0.000	R	36	0.0	587.705	589.498	590.175	590.178	0
2	22110301	177	Low	10.0	Precise	1	34	35	31	5.3	6.7	0.3	35	31	34	6.7	0.3	5.3	2	0.699	0.001	L	35	6.7	590.681	592.069	592.768	592.770	0
2	22110301	178	Low	10.0	Precise	1	26	30	20	0.7	0.8	0.0	26	30	20	0.7	0.8	0.0	1	0.923	0.000	L	26	0.7	593.273	594.213	595.135	595.138	0
2	22110301	179	Low	10.0	Precise	1	26	25	36	0.7	2.5	0.0	26	36	25	0.7	0.0	2.5	1	1.112	0.000	L	26	0.7	595.640	598.000	599.111	599.114	0
2	22110301	180	Low	10.0	Precise	1	33	30	24	0.3	0.8	0.0	24	33	30	0.0	0.3	0.8	2	1.294	0.000	R	30	0.8	599.617	600.586	601.880	601.882	0
2	22110301	181	High	1.5	Precise	1	33	35	19	0.3	6.7	0.0	19	33	35	0.0	0.3	6.7	2	0.567	0.001	R	35	6.7	615.366	617.193	617.760	617.762	0
2	22110301	182	High	1.5	Precise	1	26	35	23	0.7	6.7	0.0	26	35	23	0.7	6.7	0.0	2	0.703	0.000	D	35	6.7	618.265	620.009	620.712	620.714	0
2	22110301	183	High	1.5	Vague	2	34	35	16	5.3	6.7	0.3	34	16	35	5.3	0.3	6.7	2	0.618	0.001	R	35	6.7	621.217	623.646	624.264	624.266	0
2	22110301	184	High	1.5	Precise	1	26	25	19	0.7	2.5	0.0	26	19	25	0.7	0.0	2.5	2	0.696	0.000	R	25	2.5	624.769	626.392	627.087	627.090	0
2	22110301	185	High	1.5	Vague	2	30	35	11	0.8	6.7	0.2	35	11	30	6.7	0.2	0.8	2	0.503	0.000	L	35	6.7	627.593	629.881	630.384	630.386	0
2	22110301	186	High	1.5	Precise	1	26	34	27	0.7	5.3	0.2	27	34	26	0.2	5.3	0.7	2	0.796	0.000	D	34	5.3	630.889	631.787	632.584	632.586	0
2	22110301	187	High	1.5	Precise	1	25	35	19	2.5	6.7	0.0	35	19	25	6.7	0.0	2.5	2	0.678	0.001	L	35	6.7	633.089	633.970	634.648	634.650	0
2	22110301	188	High	1.5	Precise	1	25	35	21	2.5	6.7	0.2	21	25	35	0.2	2.5	6.7	2	0.462	0.000	R	35	6.7	635.153	637.193	637.655	637.658	0
2	22110301	189	High	1.5	Vague	2	33	26	13	0.3	0.7	0.3	13	33	26	0.3	0.3	0.7	2	0.712	0.000	R	26	0.7	638.161	638.959	639.671	639.674	0
2	22110301	190	High	1.5	Vague	2	33	25	2	0.3	2.5	0.2	2	33	25	0.2	0.3	2.5	2	0.663	0.000	R	25	2.5	640.177	641.873	642.536	642.538	0
2	22110301	191	High	1.5	Precise	1	33	34	28	0.3	5.3	0.3	28	33	34	0.3	0.3	5.3	2	0.499	0.000	R	34	5.3	643.041	644.804	645.304	645.306	0
2	22110301	192	High	1.5	Vague	2	30	35	16	0.8	6.7	0.3	30	16	35	0.8	0.3	6.7	2	0.519	0.001	R	35	6.7	645.809	648.352	648.872	648.874	0
2	22110301	193	High	1.5	Vague	2	26	25	16	0.7	2.5	0.3	16	25	26	0.3	2.5	0.7	1	0.786	0.001	R	26	0.7	649.378	651.158	651.944	651.946	0
2	22110301	194	High	1.5	Vague	2	25	35	2	2.5	6.7	0.2	25	35	2	2.5	6.7	0.2	1	0.778	0.000	L	25	2.5	652.449	653.533	654.311	654.314	0
2	22110301	195	High	1.5	Precise	1	30	25	32	0.8	2.5	0.0	32	25	30	0.0	2.5	0.8	1	0.631	0.000	R	30	0.8	654.817	657.568	658.199	658.202	0
2	22110301	196	High	1.5	Vague	2	33	30	13	0.3	0.8	0.3	30	33	13	0.8	0.3	0.3	2	1.161	0.001	L	30	0.8	658.704	659.463	660.624	660.626	0
2	22110301	197	High	1.5	Precise	1	34	35	23	5.3	6.7	0.0	34	23	35	5.3	0.0	6.7	2	0.809	0.000	R	35	6.7	661.129	663.807	664.616	664.618	0
2	22110301	198	High	1.5	Vague	2	26	35	2	0.7	6.7	0.2	35	26	2	6.7	0.7	0.2	2	0.647	0.000	L	35	6.7	665.121	667.032	667.679	667.682	0
2	22110301	199	High	1.5	Vague	2	25	35	16	2.5	6.7	0.3	25	35	16	2.5	6.7	0.3	2	0.898	0.000	D	35	6.7	668.185	669.846	670.744	670.746	0
2	22110301	200	High	1.5	Precise	1	30	34	28	0.8	5.3	0.3	30	34	28	0.8	5.3	0.3	2	0.615	0.000	D	34	5.3	671.249	672.616	673.232	673.234	0
2	22110301	201	High	1.5	Vague	2	33	34	13	0.3	5.3	0.3	34	13	33	5.3	0.3	0.3	2	0.609	0.000	L	34	5.3	673.737	675.903	676.512	676.514	0
2	22110301	202	High	1.5	Precise	1	34	35	32	5.3	6.7	0.0	35	32	34	6.7	0.0	5.3	2	0.655	0.000	L	35	6.7	677.016	678.440	679.096	679.099	0
2	22110301	203	High	1.5	Vague	2	26	34	7	0.7	5.3	0.4	26	7	34	0.7	0.4	5.3	2	0.532	0.000	R	34	5.3	679.601	680.507	681.039	681.042	0
2	22110301	204	High	1.5	Precise	1	30	34	32	0.8	5.3	0.0	30	34	32	0.8	5.3	0.0	2	0.705	0.001	D	34	5.3	681.545	683.639	684.344	684.346	0
2	22110301	205	High	1.5	Precise	1	33	25	28	0.3	2.5	0.3	28	25	33	0.3	2.5	0.3	2	0.566	0.000	D	25	2.5	684.849	686.138	686.704	686.706	0
2	22110301	206	High	1.5	Vague	2	30	34	11	0.8	5.3	0.2	34	11	30	5.3	0.2	0.8	2	0.557	0.000	L	34	5.3	687.209	688.682	689.239	689.242	0
2	22110301	207	High	1.5	Precise	1	30	35	28	0.8	6.7	0.3	30	35	28	0.8	6.7	0.3	2	0.749	0.000	D	35	6.7	689.745	692.475	693.224	693.226	0
2	22110301	208	High	1.5	Precise	1	26	25	32	0.7	2.5	0.0	25	26	32	2.5	0.7	0.0	2	0.626	0.000	L	25	2.5	693.729	695.149	695.776	695.778	0
2	22110301	209	High	1.5	Precise	1	25	34	19	2.5	5.3	0.0	34	25	19	5.3	2.5	0.0	2	0.530	0.001	L	34	5.3	696.281	697.910	698.440	698.442	0
2	22110301	210	High	1.5	Vague	2	26	25	3	0.7	2.5	0.0	25	3	26	2.5	0.0	0.7	2	0.630	0.000	L	25	2.5	698.945	699.953	700.583	700.586	0
2	22110301	211	High	1.5	Vague	2	33	35	16	0.3	6.7	0.3	33	35	16	0.3	6.7	0.3	2	0.669	0.000	D	35	6.7	701.088	703.427	704.096	704.098	0
2	22110301	212	High	1.5	Precise	1	33	35	27	0.3	6.7	0.2	27	35	33	0.2	6.7	0.3	2	0.498	0.000	D	35	6.7	704.600	706.349	706.848	706.850	0
2	22110301	213	High	1.5	Vague	2	34	35	13	5.3	6.7	0.3	13	35	34	0.3	6.7	5.3	2	0.499	0.000	D	35	6.7	707.353	708.765	709.264	709.266	0
2	22110301	214	High	1.5	Vague	2	30	34	2	0.8	5.3	0.2	34	2	30	5.3	0.2	0.8	2	0.634	0.001	L	34	5.3	709.768	710.422	711.056	711.058	0
2	22110301	215	High	1.5	Precise	1	33	25	23	0.3	2.5	0.0	23	25	33	0.0	2.5	0.3	2	0.552	0.001	D	25	2.5	711.561	714.080	714.632	714.634	0
2	22110301	216	High	1.5	Vague	2	33	25	3	0.3	2.5	0.0	33	3	25	0.3	0.0	2.5	2	0.726	0.000	R	25	2.5	715.137	718.002	718.728	718.730	0
2	22110301	217	High	1.5	Vague	2	33	30	3	0.3	0.8	0.0	33	3	30	0.3	0.0	0.8	3	0.631	0.001	D	3	0.0	719.233	721.161	721.792	721.794	0
2	22110301	218	High	1.5	Vague	2	33	35	3	0.3	6.7	0.0	35	3	33	6.7	0.0	0.3	2	0.583	0.000	L	35	6.7	722.297	724.353	724.936	724.938	0
2	22110301	219	High	1.5	Precise	1	26	30	28	0.7	0.8	0.3	30	28	26	0.8	0.3	0.7	1	0.889	0.000	R	26	0.7	725.441	728.063	728.951	728.954	0
2	22110301	220	High	1.5	Vague	2	34	35	2	5.3	6.7	0.2	34	35	2	5.3	6.7	0.2	1	0.543	0.000	L	34	5.3	729.457	731.968	732.511	732.514	0
2	22110301	221	High	1.5	Precise	1	26	30	27	0.7	0.8	0.2	27	30	26	0.2	0.8	0.7	1	1.261	0.000	R	26	0.7	733.017	734.066	735.327	735.330	0
2	22110301	222	High	1.5	Vague	2	25	35	3	2.5	6.7	0.0	3	25	35	0.0	2.5	6.7	2	0.940	0.001	R	35	6.7	735.833	736.956	737.896	737.898	0
2	22110301	223	High	1.5	Vague	2	33	26	2	0.3	0.7	0.2	26	33	2	0.7	0.3	0.2	2	0.883	0.000	L	26	0.7	738.400	740.149	741.031	741.034	0
2	22110301	224	High	1.5	Precise	1	26	34	19	0.7	5.3	0.0	19	26	34	0.0	0.7	5.3	2	0.649	0.000	R	34	5.3	741.537	743.767	744.416	744.418	0
2	22110301	225	High	1.5	Precise	1	30	25	23	0.8	2.5	0.0	30	25	23	0.8	2.5	0.0	2	0.996	0.000	D	25	2.5	744.920	746.660	747.656	747.658	0
2	22110301	226	High	1.5	Vague	2	33	35	13	0.3	6.7	0.3	33	35	13	0.3	6.7	0.3	2	0.543	0.000	D	35	6.7	748.161	751.145	751.687	751.690	0
2	22110301	227	High	1.5	Vague	2	25	34	2	2.5	5.3	0.2	2	25	34	0.2	2.5	5.3	2	1.068	0.000	R	34	5.3	752.193	753.251	754.319	754.322	0
2	22110301	228	High	1.5	Vague	2	25	34	7	2.5	5.3	0.4	25	34	7	2.5	5.3	0.4	1	0.942	0.000	L	25	2.5	754.825	755.394	756.336	756.338	0
2	22110301	229	High	1.5	Vague	2	26	35	13	0.7	6.7	0.3	26	35	13	0.7	6.7	0.3	2	0.588	0.000	D	35	6.7	756.841	759.660	760.248	760.250	0
2	22110301	230	High	1.5	Precise	1	33	26	28	0.3	0.7	0.3	26	33	28	0.7	0.3	0.3	2	1.381	0.000	L	26	0.7	760.753	762.107	763.487	763.490	0
2	22110301	231	High	1.5	Vague	2	30	25	7	0.8	2.5	0.4	7	25	30	0.4	2.5	0.8	2	0.863	0.001	D	25	2.5	763.993	766.369	767.232	767.234	0
2	22110301	232	High	1.5	Vague	2	26	30	7	0.7	0.8	0.4	26	30	7	0.7	0.8	0.4	1	1.058	0.000	L	26	0.7	767.738	768.622	769.680	769.682	0
2	22110301	233	High	1.5	Precise	1	30	34	23	0.8	5.3	0.0	23	30	34	0.0	0.8	5.3	2	0.655	0.000	R	34	5.3	770.185	772.705	773.360	773.363	0
2	22110301	234	High	1.5	Vague	2	33	26	11	0.3	0.7	0.2	26	11	33	0.7	0.2	0.3	2	0.604	0.001	L	26	0.7	773.865	776.739	777.344	777.346	0
2	22110301	235	High	1.5	Vague	2	33	30	2	0.3	0.8	0.2	2	30	33	0.2	0.8	0.3	2	0.743	0.000	D	30	0.8	777.849	780.417	781.160	781.162	0
2	22110301	236	High	1.5	Precise	1	26	25	27	0.7	2.5	0.2	27	26	25	0.2	0.7	2.5	2	0.690	0.000	R	25	2.5	781.665	782.909	783.600	783.602	0
2	22110301	237	High	1.5	Precise	1	33	30	19	0.3	0.8	0.0	33	19	30	0.3	0.0	0.8	2	0.670	0.000	R	30	0.8	784.105	784.850	785.519	785.522	0
2	22110301	238	High	1.5	Vague	2	26	35	3	0.7	6.7	0.0	3	26	35	0.0	0.7	6.7	2	0.628	0.000	R	35	6.7	786.025	788.179	788.807	788.810	0
2	22110301	239	High	1.5	Precise	1	26	30	21	0.7	0.8	0.2	21	30	26	0.2	0.8	0.7	1	0.722	0.001	R	26	0.7	789.313	791.382	792.104	792.106	0
2	22110301	240	High	1.5	Precise	1	33	30	28	0.3	0.8	0.3	33	30	28	0.3	0.8	0.3	2	1.020	0.000	D	30	0.8	792.609	795.428	796.448	796.450	0
2	22110301	241	High	1.5	Vague	2	26	30	13	0.7	0.8	0.3	26	13	30	0.7	0.3	0.8	2	1.201	0.000	R	30	0.8	807.002	809.543	810.743	810.746	0
2	22110301	242	High	1.5	Precise	1	33	25	19	0.3	2.5	0.0	33	25	19	0.3	2.5	0.0	2	0.645	0.001	D	25	2.5	811.248	813.715	814.360	814.362	0
2	22110301	243	High	1.5	Vague	2	34	35	7	5.3	6.7	0.4	7	35	34	0.4	6.7	5.3	2	0.764	0.000	D	35	6.7	814.864	816.387	817.152	817.154	0
2	22110301	244	High	1.5	Precise	1	26	34	32	0.7	5.3	0.0	34	26	32	5.3	0.7	0.0	1	1.029	0.001	D	26	0.7	817.656	818.914	819.944	819.946	0
2	22110301	245	High	1.5	Vague	2	25	34	3	2.5	5.3	0.0	34	25	3	5.3	2.5	0.0	2	0.767	0.000	L	34	5.3	820.449	821.120	821.887	821.890	0
2	22110301	246	High	1.5	Vague	2	26	25	13	0.7	2.5	0.3	26	25	13	0.7	2.5	0.3	2	0.998	0.001	D	25	2.5	822.392	823.690	824.688	824.690	0
2	22110301	247	High	1.5	Precise	1	30	25	27	0.8	2.5	0.2	30	27	25	0.8	0.2	2.5	2	0.876	0.000	R	25	2.5	825.193	827.196	828.071	828.074	0
2	22110301	248	High	1.5	Vague	2	26	30	2	0.7	0.8	0.2	30	2	26	0.8	0.2	0.7	1	1.059	0.000	R	26	0.7	828.577	830.292	831.351	831.354	0
2	22110301	249	High	1.5	Vague	2	33	35	2	0.3	6.7	0.2	2	33	35	0.2	0.3	6.7	2	0.594	0.000	R	35	6.7	831.857	834.438	835.031	835.034	0
2	22110301	250	High	1.5	Vague	2	33	30	11	0.3	0.8	0.2	11	30	33	0.2	0.8	0.3	2	1.007	0.000	D	30	0.8	835.537	838.001	839.008	839.010	0
2	22110301	251	High	1.5	Vague	2	26	34	2	0.7	5.3	0.2	26	2	34	0.7	0.2	5.3	2	0.692	0.000	R	34	5.3	839.513	841.403	842.095	842.098	0
2	22110301	252	High	1.5	Precise	1	33	34	23	0.3	5.3	0.0	33	23	34	0.3	0.0	5.3	2	0.591	0.001	R	34	5.3	842.601	844.241	844.832	844.834	0
2	22110301	253	High	1.5	Precise	1	25	35	28	2.5	6.7	0.3	28	35	25	0.3	6.7	2.5	2	0.812	0.001	D	35	6.7	845.337	847.732	848.544	848.546	0
2	22110301	254	High	1.5	Vague	2	33	30	7	0.3	0.8	0.4	33	7	30	0.3	0.4	0.8	2	0.855	0.001	R	30	0.8	849.049	851.553	852.408	852.410	0
2	22110301	255	High	1.5	Vague	2	33	34	2	0.3	5.3	0.2	34	33	2	5.3	0.3	0.2	2	0.632	0.000	L	34	5.3	852.914	854.328	854.960	854.962	0
2	22110301	256	High	1.5	Precise	1	33	26	21	0.3	0.7	0.2	33	26	21	0.3	0.7	0.2	2	0.954	0.000	D	26	0.7	855.464	857.478	858.432	858.434	0
2	22110301	257	High	1.5	Vague	2	33	25	11	0.3	2.5	0.2	33	25	11	0.3	2.5	0.2	2	0.615	0.000	D	25	2.5	858.937	860.801	861.416	861.418	0
2	22110301	258	High	1.5	Precise	1	25	34	32	2.5	5.3	0.0	32	25	34	0.0	2.5	5.3	2	0.728	0.000	R	34	5.3	861.920	864.567	865.295	865.298	0
2	22110301	259	High	1.5	Precise	1	30	25	19	0.8	2.5	0.0	30	25	19	0.8	2.5	0.0	2	0.593	0.000	D	25	2.5	865.801	868.111	868.704	868.706	0
2	22110301	260	High	1.5	Precise	1	30	25	21	0.8	2.5	0.2	21	25	30	0.2	2.5	0.8	2	0.716	0.000	D	25	2.5	869.209	871.580	872.296	872.298	0
2	22110301	261	High	1.5	Precise	1	30	34	21	0.8	5.3	0.2	30	34	21	0.8	5.3	0.2	2	0.592	0.000	D	34	5.3	872.801	874.760	875.352	875.354	0
2	22110301	262	High	1.5	Vague	2	26	34	16	0.7	5.3	0.3	34	26	16	5.3	0.7	0.3	2	0.592	0.000	L	34	5.3	875.857	877.088	877.680	877.682	0
2	22110301	263	High	1.5	Vague	2	33	34	11	0.3	5.3	0.2	33	11	34	0.3	0.2	5.3	2	0.528	0.001	R	34	5.3	878.184	879.832	880.360	880.362	0
2	22110301	264	High	1.5	Vague	2	25	35	11	2.5	6.7	0.2	25	35	11	2.5	6.7	0.2	2	0.755	0.000	D	35	6.7	880.864	882.181	882.936	882.938	0
2	22110301	265	High	1.5	Vague	2	30	34	13	0.8	5.3	0.3	30	13	34	0.8	0.3	5.3	2	0.570	0.000	R	34	5.3	883.441	883.942	884.512	884.514	0
2	22110301	266	High	1.5	Precise	1	30	35	19	0.8	6.7	0.0	30	35	19	0.8	6.7	0.0	2	0.519	0.000	D	35	6.7	885.017	887.017	887.536	887.538	0
2	22110301	267	High	1.5	Precise	1	30	35	27	0.8	6.7	0.2	27	30	35	0.2	0.8	6.7	2	0.633	0.001	R	35	6.7	888.041	889.855	890.488	890.491	0
2	22110301	268	High	1.5	Precise	1	33	34	32	0.3	5.3	0.0	34	32	33	5.3	0.0	0.3	2	0.824	0.000	L	34	5.3	890.993	891.567	892.391	892.394	0
2	22110301	269	High	1.5	Vague	2	25	34	16	2.5	5.3	0.3	25	34	16	2.5	5.3	0.3	2	0.907	0.001	D	34	5.3	892.897	893.493	894.400	894.402	0
2	22110301	270	High	1.5	Vague	2	30	34	16	0.8	5.3	0.3	30	34	16	0.8	5.3	0.3	2	0.682	0.000	D	34	5.3	894.906	895.790	896.472	896.474	0
2	22110301	271	High	1.5	Vague	2	30	35	2	0.8	6.7	0.2	35	2	30	6.7	0.2	0.8	2	0.645	0.000	L	35	6.7	896.976	898.163	898.808	898.810	0
2	22110301	272	High	1.5	Vague	2	26	35	11	0.7	6.7	0.2	11	35	26	0.2	6.7	0.7	2	0.523	0.001	D	35	6.7	899.314	900.957	901.480	901.482	0
2	22110301	273	High	1.5	Precise	1	30	35	32	0.8	6.7	0.0	35	30	32	6.7	0.8	0.0	2	0.593	0.000	L	35	6.7	901.986	903.062	903.655	903.658	0
2	22110301	274	High	1.5	Precise	1	30	35	21	0.8	6.7	0.2	21	35	30	0.2	6.7	0.8	2	0.503	0.000	D	35	6.7	904.161	905.561	906.064	906.066	0
2	22110301	275	High	1.5	Precise	1	25	35	23	2.5	6.7	0.0	35	25	23	6.7	2.5	0.0	2	0.565	0.000	L	35	6.7	906.569	907.635	908.199	908.202	0
2	22110301	276	High	1.5	Precise	1	25	34	21	2.5	5.3	0.2	34	21	25	5.3	0.2	2.5	2	0.556	0.000	L	34	5.3	908.705	911.100	911.655	911.658	0
2	22110301	277	High	1.5	Vague	2	25	35	13	2.5	6.7	0.3	35	13	25	6.7	0.3	2.5	2	0.777	0.001	L	35	6.7	912.161	912.871	913.648	913.650	0
2	22110301	278	High	1.5	Precise	1	26	35	27	0.7	6.7	0.2	27	35	26	0.2	6.7	0.7	2	0.630	0.000	D	35	6.7	914.153	916.890	917.519	917.522	0
2	22110301	279	High	1.5	Vague	2	33	34	16	0.3	5.3	0.3	33	34	16	0.3	5.3	0.3	2	0.580	0.001	D	34	5.3	918.024	919.004	919.584	919.586	0
2	22110301	280	High	1.5	Vague	2	26	30	11	0.7	0.8	0.2	30	26	11	0.8	0.7	0.2	1	1.232	0.000	D	26	0.7	920.089	921.024	922.256	922.258	0
2	22110301	281	High	1.5	Vague	2	26	25	7	0.7	2.5	0.4	7	26	25	0.4	0.7	2.5	2	0.612	0.000	R	25	2.5	922.761	925.196	925.808	925.810	0
2	22110301	282	High	1.5	Vague	2	33	25	7	0.3	2.5	0.4	33	25	7	0.3	2.5	0.4	2	0.543	0.001	D	25	2.5	926.313	929.097	929.640	929.642	0
2	22110301	283	High	1.5	Vague	2	30	25	16	0.8	2.5	0.3	25	16	30	2.5	0.3	0.8	2	0.602	0.000	L	25	2.5	930.145	932.606	933.208	933.210	0
2	22110301	284	High	1.5	Vague	2	30	25	3	0.8	2.5	0.0	30	25	3	0.8	2.5	0.0	2	0.503	0.000	D	25	2.5	933.713	936.369	936.872	936.874	0
2	22110301	285	High	1.5	Precise	1	33	35	32	0.3	6.7	0.0	32	33	35	0.0	0.3	6.7	2	0.591	0.001	R	35	6.7	937.377	939.984	940.576	940.578	0
2	22110301	286	High	1.5	Precise	1	26	35	19	0.7	6.7	0.0	35	26	19	6.7	0.7	0.0	2	0.500	0.001	L	35	6.7	941.081	943.755	944.256	944.258	0
2	22110301	287	High	1.5	Precise	1	25	34	28	2.5	5.3	0.3	28	34	25	0.3	5.3	2.5	1	0.543	0.000	R	25	2.5	944.762	947.249	947.792	947.794	0
2	22110301	288	High	1.5	Precise	1	30	35	23	0.8	6.7	0.0	30	35	23	0.8	6.7	0.0	2	0.777	0.000	D	35	6.7	948.297	949.310	950.088	950.090	0
2	22110301	289	High	1.5	Precise	1	33	35	21	0.3	6.7	0.2	33	21	35	0.3	0.2	6.7	2	0.501	0.001	R	35	6.7	950.594	953.195	953.696	953.698	0
2	22110301	290	High	1.5	Vague	2	30	25	11	0.8	2.5	0.2	11	30	25	0.2	0.8	2.5	2	0.665	0.001	R	25	2.5	954.201	955.543	956.208	956.210	0
2	22110301	291	High	1.5	Vague	2	33	35	7	0.3	6.7	0.4	33	7	35	0.3	0.4	6.7	2	0.473	0.001	R	35	6.7	956.713	959.526	960.000	960.002	0
2	22110301	292	High	1.5	Precise	1	33	35	23	0.3	6.7	0.0	23	35	33	0.0	6.7	0.3	3	0.825	0.000	L	23	0.0	960.505	961.318	962.144	962.146	0
2	22110301	293	High	1.5	Precise	1	33	30	27	0.3	0.8	0.2	33	27	30	0.3	0.2	0.8	2	0.695	0.000	R	30	0.8	962.649	965.208	965.904	965.906	0
2	22110301	294	High	1.5	Precise	1	26	35	21	0.7	6.7	0.2	35	26	21	6.7	0.7	0.2	2	0.577	0.000	L	35	6.7	966.409	967.479	968.056	968.058	0
2	22110301	295	High	1.5	Precise	1	33	25	27	0.3	2.5	0.2	27	33	25	0.2	0.3	2.5	2	0.712	0.001	R	25	2.5	968.561	971.384	972.096	972.098	0
2	22110301	296	High	1.5	Vague	2	26	35	16	0.7	6.7	0.3	26	16	35	0.7	0.3	6.7	2	0.543	0.000	R	35	6.7	972.602	974.593	975.135	975.138	0
2	22110301	297	High	1.5	Precise	1	33	30	21	0.3	0.8	0.2	33	21	30	0.3	0.2	0.8	2	0.851	0.000	R	30	0.8	975.641	977.100	977.951	977.954	0
2	22110301	298	High	1.5	Vague	2	26	34	13	0.7	5.3	0.3	34	26	13	5.3	0.7	0.3	2	0.612	0.000	L	34	5.3	978.456	979.852	980.463	980.466	0
2	22110301	299	High	1.5	Vague	2	30	34	7	0.8	5.3	0.4	30	7	34	0.8	0.4	5.3	2	0.572	0.000	R	34	5.3	980.969	981.852	982.424	982.426	0
2	22110301	300	High	1.5	Precise	1	33	26	19	0.3	0.7	0.0	19	33	26	0.0	0.3	0.7	2	0.621	0.000	R	26	0.7	982.929	985.578	986.200	986.202	0
2	22110301	301	High	1.5	Precise	1	30	25	28	0.8	2.5	0.3	25	30	28	2.5	0.8	0.3	2	0.867	0.000	L	25	2.5	997.156	998.717	999.584	999.586	0
2	22110301	302	High	1.5	Precise	1	33	34	21	0.3	5.3	0.2	33	21	34	0.3	0.2	5.3	2	0.515	0.001	R	34	5.3	1000.089	1001.165	1001.680	1001.682	0
2	22110301	303	High	1.5	Vague	2	30	34	3	0.8	5.3	0.0	34	3	30	5.3	0.0	0.8	2	0.463	0.000	L	34	5.3	1002.184	1004.208	1004.671	1004.675	0
2	22110301	304	High	1.5	Precise	1	26	30	19	0.7	0.8	0.0	30	19	26	0.8	0.0	0.7	1	0.681	0.000	R	26	0.7	1005.178	1006.143	1006.823	1006.826	0
2	22110301	305	High	1.5	Vague	2	25	35	7	2.5	6.7	0.4	7	25	35	0.4	2.5	6.7	2	0.550	0.001	R	35	6.7	1007.329	1009.754	1010.304	1010.306	0
2	22110301	306	High	1.5	Vague	2	26	30	16	0.7	0.8	0.3	16	26	30	0.3	0.7	0.8	3	0.476	0.000	L	16	0.3	1010.809	1011.580	1012.056	1012.058	0
2	22110301	307	High	1.5	Precise	1	33	25	32	0.3	2.5	0.0	32	33	25	0.0	0.3	2.5	2	0.490	0.000	R	25	2.5	1012.561	1013.709	1014.200	1014.202	0
2	22110301	308	High	1.5	Precise	1	26	35	28	0.7	6.7	0.3	35	26	28	6.7	0.7	0.3	2	0.522	0.000	L	35	6.7	1014.704	1015.398	1015.920	1015.922	0
2	22110301	309	High	1.5	Vague	2	30	25	13	0.8	2.5	0.3	25	30	13	2.5	0.8	0.3	2	0.657	0.000	L	25	2.5	1016.424	1018.822	1019.479	1019.482	0
2	22110301	310	High	1.5	Vague	2	26	25	2	0.7	2.5	0.2	26	25	2	0.7	2.5	0.2	2	0.905	0.000	D	25	2.5	1019.984	1022.751	1023.656	1023.658	0
2	22110301	311	High	1.5	Precise	1	30	34	19	0.8	5.3	0.0	30	19	34	0.8	0.0	5.3	2	0.699	0.000	R	34	5.3	1024.162	1025.741	1026.439	1026.442	0
2	22110301	312	High	1.5	Precise	1	33	35	28	0.3	6.7	0.3	33	28	35	0.3	0.3	6.7	2	0.681	0.000	R	35	6.7	1026.944	1028.223	1028.903	1028.906	0
2	22110301	313	High	1.5	Vague	2	33	25	16	0.3	2.5	0.3	33	16	25	0.3	0.3	2.5	2	0.594	0.000	R	25	2.5	1029.409	1030.581	1031.175	1031.178	0
2	22110301	314	High	1.5	Vague	2	26	25	11	0.7	2.5	0.2	11	26	25	0.2	0.7	2.5	2	0.487	0.000	R	25	2.5	1031.681	1034.073	1034.560	1034.562	0
2	22110301	315	High	1.5	Precise	1	33	30	32	0.3	0.8	0.0	32	30	33	0.0	0.8	0.3	2	1.219	0.001	D	30	0.8	1035.065	1037.996	1039.215	1039.218	0
2	22110301	316	High	1.5	Vague	2	33	26	3	0.3	0.7	0.0	3	26	33	0.0	0.7	0.3	2	1.081	0.000	D	26	0.7	1039.721	1040.903	1041.984	1041.986	0
2	22110301	317	High	1.5	Vague	2	26	35	7	0.7	6.7	0.4	26	7	35	0.7	0.4	6.7	2	0.615	0.000	R	35	6.7	1042.488	1043.361	1043.975	1043.978	0
2	22110301	318	High	1.5	Precise	1	33	34	27	0.3	5.3	0.2	33	27	34	0.3	0.2	5.3	2	0.710	0.000	R	34	5.3	1044.482	1045.850	1046.560	1046.562	0
2	22110301	319	High	1.5	Vague	2	25	34	11	2.5	5.3	0.2	34	11	25	5.3	0.2	2.5	1	0.833	0.000	R	25	2.5	1047.065	1048.071	1048.904	1048.906	0
2	22110301	320	High	1.5	Precise	1	33	26	32	0.3	0.7	0.0	32	26	33	0.0	0.7	0.3	2	0.711	0.000	D	26	0.7	1049.408	1050.776	1051.487	1051.490	0
2	22110301	321	High	1.5	Vague	2	26	34	11	0.7	5.3	0.2	11	34	26	0.2	5.3	0.7	2	0.998	0.000	D	34	5.3	1051.992	1053.577	1054.576	1054.578	0
2	22110301	322	High	1.5	Vague	2	30	35	3	0.8	6.7	0.0	35	3	30	6.7	0.0	0.8	2	0.729	0.000	L	35	6.7	1055.080	1055.735	1056.463	1056.466	0
2	22110301	323	High	1.5	Vague	2	33	34	3	0.3	5.3	0.0	34	33	3	5.3	0.3	0.0	2	0.594	0.001	L	34	5.3	1056.969	1059.838	1060.432	1060.434	0
2	22110301	324	High	1.5	Precise	1	25	35	27	2.5	6.7	0.2	25	35	27	2.5	6.7	0.2	1	0.810	0.001	L	25	2.5	1060.938	1063.582	1064.392	1064.394	0
2	22110301	325	High	1.5	Vague	2	26	30	3	0.7	0.8	0.0	3	26	30	0.0	0.7	0.8	1	0.902	0.000	D	26	0.7	1064.897	1065.418	1066.320	1066.322	0
2	22110301	326	High	1.5	Vague	2	30	25	2	0.8	2.5	0.2	25	30	2	2.5	0.8	0.2	2	0.705	0.001	L	25	2.5	1066.825	1068.254	1068.960	1068.962	0
2	22110301	327	High	1.5	Precise	1	26	34	21	0.7	5.3	0.2	21	26	34	0.2	0.7	5.3	2	0.715	0.000	R	34	5.3	1069.464	1071.292	1072.008	1072.010	0
2	22110301	328	High	1.5	Vague	2	33	25	13	0.3	2.5	0.3	25	13	33	2.5	0.3	0.3	2	0.867	0.000	L	25	2.5	1072.513	1073.549	1074.416	1074.418	0
2	22110301	329	High	1.5	Precise	1	26	34	23	0.7	5.3	0.0	34	23	26	5.3	0.0	0.7	2	0.693	0.000	L	34	5.3	1074.922	1075.443	1076.136	1076.138	0
2	22110301	330	High	1.5	Precise	1	30	34	27	0.8	5.3	0.2	34	30	27	5.3	0.8	0.2	2	0.575	0.000	L	34	5.3	1076.642	1077.849	1078.423	1078.426	0
2	22110301	331	High	1.5	Vague	2	25	34	13	2.5	5.3	0.3	13	25	34	0.3	2.5	5.3	2	0.591	0.000	R	34	5.3	1078.929	1079.553	1080.144	1080.146	0
2	22110301	332	High	1.5	Vague	2	30	35	13	0.8	6.7	0.3	35	13	30	6.7	0.3	0.8	2	0.624	0.000	L	35	6.7	1080.649	1082.904	1083.528	1083.530	0
2	22110301	333	High	1.5	Vague	2	34	35	11	5.3	6.7	0.2	34	11	35	5.3	0.2	6.7	2	0.744	0.001	R	35	6.7	1084.033	1085.648	1086.392	1086.395	0
2	22110301	334	High	1.5	Vague	2	33	34	7	0.3	5.3	0.4	33	34	7	0.3	5.3	0.4	2	0.759	0.000	D	34	5.3	1086.898	1089.201	1089.960	1089.962	0
2	22110301	335	High	1.5	Precise	1	33	34	19	0.3	5.3	0.0	34	33	19	5.3	0.3	0.0	2	0.596	0.000	L	34	5.3	1090.465	1092.276	1092.872	1092.874	0
2	22110301	336	High	1.5	Precise	1	33	25	21	0.3	2.5	0.2	25	21	33	2.5	0.2	0.3	2	0.651	0.001	L	25	2.5	1093.377	1094.317	1094.968	1094.970	0
2	22110301	337	High	1.5	Precise	1	33	26	27	0.3	0.7	0.2	26	33	27	0.7	0.3	0.2	2	1.042	0.000	L	26	0.7	1095.473	1096.677	1097.720	1097.722	0
2	22110301	338	High	1.5	Vague	2	33	26	16	0.3	0.7	0.3	26	33	16	0.7	0.3	0.3	2	0.676	0.000	L	26	0.7	1098.225	1100.379	1101.055	1101.058	0
2	22110301	339	High	1.5	Vague	2	33	26	7	0.3	0.7	0.4	33	7	26	0.3	0.4	0.7	2	0.602	0.000	R	26	0.7	1101.561	1103.085	1103.687	1103.690	0
2	22110301	340	High	1.5	Precise	1	26	30	32	0.7	0.8	0.0	30	26	32	0.8	0.7	0.0	1	0.823	0.000	D	26	0.7	1104.192	1106.560	1107.384	1107.386	0
2	22110301	341	High	1.5	Precise	1	26	25	21	0.7	2.5	0.2	25	26	21	2.5	0.7	0.2	2	0.780	0.000	L	25	2.5	1107.889	1109.147	1109.927	1109.930	0
2	22110301	342	High	1.5	Precise	1	34	35	27	5.3	6.7	0.2	35	27	34	6.7	0.2	5.3	2	0.628	0.000	L	35	6.7	1110.432	1112.476	1113.104	1113.106	0
2	22110301	343	High	1.5	Precise	1	25	34	23	2.5	5.3	0.0	25	23	34	2.5	0.0	5.3	2	0.740	0.001	R	34	5.3	1113.608	1116.556	1117.296	1117.298	0
2	22110301	344	High	1.5	Precise	1	26	34	28	0.7	5.3	0.3	26	28	34	0.7	0.3	5.3	2	0.602	0.000	R	34	5.3	1117.801	1120.142	1120.743	1120.746	0
2	22110301	345	High	1.5	Vague	2	33	30	16	0.3	0.8	0.3	30	16	33	0.8	0.3	0.3	3	0.718	0.001	D	16	0.3	1121.249	1121.826	1122.544	1122.546	0
2	22110301	346	High	1.5	Precise	1	25	35	32	2.5	6.7	0.0	25	35	32	2.5	6.7	0.0	2	0.866	0.000	D	35	6.7	1123.049	1124.325	1125.192	1125.194	0
2	22110301	347	High	1.5	Precise	1	26	35	32	0.7	6.7	0.0	35	32	26	6.7	0.0	0.7	2	0.680	0.000	L	35	6.7	1125.696	1127.071	1127.752	1127.754	0
2	22110301	348	High	1.5	Vague	2	33	35	11	0.3	6.7	0.2	11	35	33	0.2	6.7	0.3	2	0.602	0.000	D	35	6.7	1128.257	1131.238	1131.840	1131.842	0
2	22110301	349	High	1.5	Precise	1	34	35	21	5.3	6.7	0.2	34	21	35	5.3	0.2	6.7	2	0.585	0.000	R	35	6.7	1132.345	1133.399	1133.984	1133.986	0
2	22110301	350	High	1.5	Precise	1	26	25	28	0.7	2.5	0.3	28	25	26	0.3	2.5	0.7	2	0.970	0.000	D	25	2.5	1134.488	1135.014	1135.983	1135.986	0
2	22110301	351	High	1.5	Precise	1	33	30	23	0.3	0.8	0.0	23	33	30	0.0	0.3	0.8	2	0.752	0.001	R	30	0.8	1136.489	1139.080	1139.832	1139.834	0
2	22110301	352	High	1.5	Vague	2	30	35	7	0.8	6.7	0.4	7	30	35	0.4	0.8	6.7	2	0.549	0.001	R	35	6.7	1140.337	1142.811	1143.360	1143.362	0
2	22110301	353	High	1.5	Precise	1	33	26	23	0.3	0.7	0.0	33	26	23	0.3	0.7	0.0	2	0.827	0.000	D	26	0.7	1143.865	1144.637	1145.464	1145.466	0
2	22110301	354	High	1.5	Precise	1	34	35	28	5.3	6.7	0.3	28	34	35	0.3	5.3	6.7	2	0.535	0.000	R	35	6.7	1145.969	1147.753	1148.287	1148.290	0
2	22110301	355	High	1.5	Precise	1	26	25	23	0.7	2.5	0.0	23	26	25	0.0	0.7	2.5	2	0.623	0.001	R	25	2.5	1148.793	1150.120	1150.744	1150.746	0
2	22110301	356	High	1.5	Precise	1	34	35	19	5.3	6.7	0.0	34	19	35	5.3	0.0	6.7	2	0.567	0.000	R	35	6.7	1151.249	1152.921	1153.488	1153.490	0
2	22110301	357	High	1.5	Precise	1	25	34	27	2.5	5.3	0.2	25	27	34	2.5	0.2	5.3	2	0.558	0.001	R	34	5.3	1153.993	1156.570	1157.128	1157.130	0
2	22110301	358	High	1.5	Precise	1	26	30	23	0.7	0.8	0.0	26	23	30	0.7	0.0	0.8	2	1.003	0.000	R	30	0.8	1157.633	1159.373	1160.376	1160.378	0
2	22110301	359	High	1.5	Vague	2	34	35	3	5.3	6.7	0.0	34	3	35	5.3	0.0	6.7	2	0.602	0.000	R	35	6.7	1160.880	1162.733	1163.335	1163.338	0
2	22110301	360	High	1.5	Vague	2	26	34	3	0.7	5.3	0.0	34	3	26	5.3	0.0	0.7	1	0.802	0.000	R	26	0.7	1163.840	1165.253	1166.055	1166.058	0
