Group	subID	trial	TimePressure	TimeConstraint	Vagueness	Vaguenesscode	ID1	ID2	ID3	V1	V2	V3	ID_left	ID_middle	ID_right	Bid_left	Bid_middle	Bid_right	chosenItem	RT	RTvariance	chosenPosition	chosenID	chosenValue	fixation_time	option_time	choice_time	feedback_time	timeout
2	22102702	1	High	1.5	Precise	1	32	36	20	12.5	28.1	1.1	36	20	32	28.1	1.1	12.5	2	0.461	0.001	L	36	28.1	4.962	7.328	7.789	7.793	0
2	22102702	2	High	1.5	Precise	1	30	33	24	12.3	30.2	5.1	24	30	33	5.1	12.3	30.2	3	0.499	0.000	L	24	5.1	8.298	10.370	10.869	10.872	0
2	22102702	3	High	1.5	Precise	1	30	34	29	12.3	13.4	8.2	29	30	34	8.2	12.3	13.4	2	0.693	0.000	R	34	13.4	11.377	14.193	14.885	14.888	0
2	22102702	4	High	1.5	Precise	1	32	34	29	12.5	13.4	8.2	32	34	29	12.5	13.4	8.2	1	0.728	0.000	L	32	12.5	15.394	16.701	17.429	17.432	0
2	22102702	5	High	1.5	Vague	2	30	33	11	12.3	30.2	0.9	30	11	33	12.3	0.9	30.2	1	0.597	0.000	L	30	12.3	17.936	20.248	20.845	20.850	0
2	22102702	6	High	1.5	Vague	2	32	34	3	12.5	13.4	3.0	34	32	3	13.4	12.5	3.0	2	0.588	0.000	L	34	13.4	21.355	22.121	22.709	22.712	0
2	22102702	7	High	1.5	Precise	1	30	36	27	12.3	28.1	11.1	27	30	36	11.1	12.3	28.1	2	0.488	0.000	R	36	28.1	23.215	25.781	26.269	26.272	0
2	22102702	8	High	1.5	Precise	1	32	31	20	12.5	21.1	1.1	32	31	20	12.5	21.1	1.1	1	0.593	0.001	L	32	12.5	26.774	29.109	29.701	29.704	0
2	22102702	9	High	1.5	Precise	1	34	33	24	13.4	30.2	5.1	24	33	34	5.1	30.2	13.4	1	0.584	0.000	R	34	13.4	30.207	32.126	32.709	32.711	0
2	22102702	10	High	1.5	Vague	2	34	36	5	13.4	28.1	4.4	5	36	34	4.4	28.1	13.4	1	0.782	0.000	R	34	13.4	33.215	34.640	35.421	35.424	0
2	22102702	11	High	1.5	Precise	1	34	36	24	13.4	28.1	5.1	24	34	36	5.1	13.4	28.1	2	0.558	0.000	R	36	28.1	35.926	37.847	38.405	38.408	0
2	22102702	12	High	1.5	Vague	2	31	36	15	21.1	28.1	6.2	31	36	15	21.1	28.1	6.2	2	0.669	0.000	D	36	28.1	38.910	41.081	41.749	41.752	0
2	22102702	13	High	1.5	Vague	2	34	33	4	13.4	30.2	5.8	33	34	4	30.2	13.4	5.8	1	0.704	0.000	D	34	13.4	42.255	42.829	43.533	43.536	0
2	22102702	14	High	1.5	Precise	1	36	33	20	28.1	30.2	1.1	33	20	36	30.2	1.1	28.1	1	0.469	0.001	R	36	28.1	44.039	46.640	47.109	47.112	0
2	22102702	15	High	1.5	Vague	2	30	31	4	12.3	21.1	5.8	31	30	4	21.1	12.3	5.8	2	0.428	0.001	L	31	21.1	47.614	50.553	50.981	50.984	0
2	22102702	16	High	1.5	Precise	1	36	33	21	28.1	30.2	3.4	21	33	36	3.4	30.2	28.1	1	0.513	0.001	R	36	28.1	51.486	53.348	53.861	53.864	0
2	22102702	17	High	1.5	Vague	2	30	32	4	12.3	12.5	5.8	30	4	32	12.3	5.8	12.5	2	0.436	0.001	R	32	12.5	54.366	57.153	57.589	57.592	0
2	22102702	18	High	1.5	Vague	2	32	31	15	12.5	21.1	6.2	15	32	31	6.2	12.5	21.1	3	0.530	0.001	L	15	6.2	58.094	59.243	59.773	59.776	0
2	22102702	19	High	1.5	Precise	1	30	33	20	12.3	30.2	1.1	33	30	20	30.2	12.3	1.1	1	0.683	0.001	D	30	12.3	60.278	61.418	62.101	62.104	0
2	22102702	20	High	1.5	Vague	2	32	36	4	12.5	28.1	5.8	32	4	36	12.5	5.8	28.1	2	0.499	0.000	R	36	28.1	62.606	64.634	65.133	65.135	0
2	22102702	21	High	1.5	Vague	2	32	36	15	12.5	28.1	6.2	15	32	36	6.2	12.5	28.1	2	0.454	0.000	R	36	28.1	65.639	68.239	68.693	68.696	0
2	22102702	22	High	1.5	Precise	1	32	34	20	12.5	13.4	1.1	32	34	20	12.5	13.4	1.1	2	0.724	0.000	D	34	13.4	69.199	70.786	71.509	71.512	0
2	22102702	23	High	1.5	Vague	2	34	31	5	13.4	21.1	4.4	31	34	5	21.1	13.4	4.4	2	0.503	0.000	L	31	21.1	72.014	73.958	74.461	74.463	0
2	22102702	24	High	1.5	Vague	2	31	33	5	21.1	30.2	4.4	33	5	31	30.2	4.4	21.1	1	0.597	0.001	R	31	21.1	74.966	76.840	77.437	77.440	0
2	22102702	25	High	1.5	Vague	2	30	36	5	12.3	28.1	4.4	5	36	30	4.4	28.1	12.3	2	0.595	0.001	D	36	28.1	77.942	80.059	80.653	80.656	0
2	22102702	26	High	1.5	Precise	1	30	33	21	12.3	30.2	3.4	21	30	33	3.4	12.3	30.2	1	0.689	0.001	D	30	12.3	81.159	82.637	83.325	83.328	0
2	22102702	27	High	1.5	Precise	1	31	36	28	21.1	28.1	6.8	31	28	36	21.1	6.8	28.1	2	0.439	0.000	R	36	28.1	83.830	86.414	86.853	86.856	0
2	22102702	28	High	1.5	Precise	1	34	33	28	13.4	30.2	6.8	28	33	34	6.8	30.2	13.4	1	0.577	0.000	R	34	13.4	87.359	89.244	89.821	89.824	0
2	22102702	29	High	1.5	Precise	1	36	33	28	28.1	30.2	6.8	28	36	33	6.8	28.1	30.2	1	0.529	0.001	D	36	28.1	90.327	92.324	92.853	92.856	0
2	22102702	30	High	1.5	Vague	2	32	33	15	12.5	30.2	6.2	15	32	33	6.2	12.5	30.2	3	0.539	0.000	L	15	6.2	93.359	95.090	95.629	95.632	0
2	22102702	31	High	1.5	Vague	2	36	33	4	28.1	30.2	5.8	33	4	36	30.2	5.8	28.1	1	0.759	0.001	R	36	28.1	96.135	96.815	97.573	97.576	0
2	22102702	32	High	1.5	Precise	1	36	33	29	28.1	30.2	8.2	29	36	33	8.2	28.1	30.2	1	0.463	0.000	D	36	28.1	98.078	100.918	101.381	101.384	0
2	22102702	33	High	1.5	Precise	1	31	36	20	21.1	28.1	1.1	36	20	31	28.1	1.1	21.1	2	0.569	0.001	L	36	28.1	101.887	103.069	103.637	103.640	0
2	22102702	34	High	1.5	Precise	1	31	36	21	21.1	28.1	3.4	21	31	36	3.4	21.1	28.1	2	0.453	0.000	R	36	28.1	104.143	105.352	105.805	105.808	0
2	22102702	35	High	1.5	Vague	2	32	34	4	12.5	13.4	5.8	4	34	32	5.8	13.4	12.5	2	0.500	0.000	D	34	13.4	106.310	107.033	107.533	107.535	0
2	22102702	36	High	1.5	Precise	1	30	32	27	12.3	12.5	11.1	32	27	30	12.5	11.1	12.3	2	0.456	0.001	L	32	12.5	108.038	110.949	111.405	111.408	0
2	22102702	37	High	1.5	Precise	1	32	31	27	12.5	21.1	11.1	31	27	32	21.1	11.1	12.5	2	0.591	0.001	L	31	21.1	111.910	112.942	113.533	113.536	0
2	22102702	38	High	1.5	Vague	2	31	33	3	21.1	30.2	3.0	3	31	33	3.0	21.1	30.2	1	0.537	0.001	D	31	21.1	114.038	115.796	116.333	116.336	0
2	22102702	39	High	1.5	Precise	1	32	36	29	12.5	28.1	8.2	36	29	32	28.1	8.2	12.5	2	0.485	0.000	L	36	28.1	116.838	117.527	118.013	118.015	0
2	22102702	40	High	1.5	Vague	2	34	33	15	13.4	30.2	6.2	15	33	34	6.2	30.2	13.4	1	0.640	0.000	R	34	13.4	118.518	120.309	120.949	120.952	0
2	22102702	41	High	1.5	Precise	1	30	32	24	12.3	12.5	5.1	32	24	30	12.5	5.1	12.3	2	0.577	0.000	L	32	12.5	121.454	122.108	122.685	122.687	0
2	22102702	42	High	1.5	Precise	1	31	36	27	21.1	28.1	11.1	31	36	27	21.1	28.1	11.1	2	0.544	0.000	D	36	28.1	123.190	125.189	125.733	125.736	0
2	22102702	43	High	1.5	Vague	2	32	33	5	12.5	30.2	4.4	5	33	32	4.4	30.2	12.5	1	0.777	0.000	R	32	12.5	126.238	127.653	128.429	128.432	0
2	22102702	44	High	1.5	Precise	1	30	32	28	12.3	12.5	6.8	30	28	32	12.3	6.8	12.5	1	0.570	0.001	L	30	12.3	128.934	129.580	130.149	130.152	0
2	22102702	45	High	1.5	Precise	1	32	34	21	12.5	13.4	3.4	21	32	34	3.4	12.5	13.4	2	0.680	0.000	R	34	13.4	130.655	131.765	132.445	132.448	0
2	22102702	46	High	1.5	Precise	1	34	36	20	13.4	28.1	1.1	20	36	34	1.1	28.1	13.4	2	0.600	0.000	D	36	28.1	132.951	133.525	134.125	134.128	0
2	22102702	47	High	1.5	Vague	2	30	32	5	12.3	12.5	4.4	5	32	30	4.4	12.5	12.3	2	0.626	0.001	D	32	12.5	134.630	135.979	136.605	136.608	0
2	22102702	48	High	1.5	Precise	1	32	33	21	12.5	30.2	3.4	32	33	21	12.5	30.2	3.4	1	0.745	0.001	L	32	12.5	137.110	138.580	139.325	139.328	0
2	22102702	49	High	1.5	Vague	2	32	36	5	12.5	28.1	4.4	36	32	5	28.1	12.5	4.4	2	0.529	0.000	L	36	28.1	139.831	142.636	143.165	143.167	0
2	22102702	50	High	1.5	Precise	1	31	36	29	21.1	28.1	8.2	36	31	29	28.1	21.1	8.2	2	0.529	0.000	L	36	28.1	143.670	145.460	145.989	145.991	0
2	22102702	51	High	1.5	Vague	2	34	33	3	13.4	30.2	3.0	3	34	33	3.0	13.4	30.2	1	0.633	0.000	D	34	13.4	146.494	148.436	149.069	149.072	0
2	22102702	52	High	1.5	Vague	2	30	33	4	12.3	30.2	5.8	30	4	33	12.3	5.8	30.2	1	0.797	0.001	L	30	12.3	149.574	150.248	151.045	151.048	0
2	22102702	53	High	1.5	Vague	2	34	33	11	13.4	30.2	0.9	11	34	33	0.9	13.4	30.2	1	0.520	0.001	D	34	13.4	151.550	154.069	154.589	154.592	0
2	22102702	54	High	1.5	Precise	1	30	33	28	12.3	30.2	6.8	33	28	30	30.2	6.8	12.3	1	0.744	0.000	R	30	12.3	155.094	156.989	157.733	157.736	0
2	22102702	55	High	1.5	Vague	2	34	36	2	13.4	28.1	1.2	2	34	36	1.2	13.4	28.1	2	0.519	0.001	R	36	28.1	158.238	161.110	161.629	161.632	0
2	22102702	56	High	1.5	Precise	1	32	33	29	12.5	30.2	8.2	32	33	29	12.5	30.2	8.2	1	0.487	0.000	L	32	12.5	162.134	162.830	163.317	163.320	0
2	22102702	57	High	1.5	Vague	2	34	31	15	13.4	21.1	6.2	15	34	31	6.2	13.4	21.1	3	0.656	0.000	L	15	6.2	163.822	166.421	167.077	167.079	0
2	22102702	58	High	1.5	Vague	2	30	34	3	12.3	13.4	3.0	3	34	30	3.0	13.4	12.3	2	0.554	0.001	D	34	13.4	167.582	170.187	170.741	170.744	0
2	22102702	59	High	1.5	Vague	2	30	36	2	12.3	28.1	1.2	2	30	36	1.2	12.3	28.1	2	0.527	0.001	R	36	28.1	171.246	172.886	173.413	173.416	0
2	22102702	60	High	1.5	Vague	2	34	36	3	13.4	28.1	3.0	3	34	36	3.0	13.4	28.1	2	0.460	0.001	R	36	28.1	173.918	176.577	177.037	177.040	0
2	22102702	61	High	1.5	Vague	2	34	33	5	13.4	30.2	4.4	34	5	33	13.4	4.4	30.2	1	0.477	0.000	L	34	13.4	189.763	191.112	191.589	191.591	0
2	22102702	62	High	1.5	Vague	2	32	33	2	12.5	30.2	1.2	2	33	32	1.2	30.2	12.5	1	0.704	0.000	R	32	12.5	192.095	194.893	195.597	195.599	0
2	22102702	63	High	1.5	Precise	1	30	31	24	12.3	21.1	5.1	30	24	31	12.3	5.1	21.1	2	0.487	0.000	R	31	21.1	196.102	198.774	199.261	199.263	0
2	22102702	64	High	1.5	Precise	1	30	34	28	12.3	13.4	6.8	28	34	30	6.8	13.4	12.3	2	0.789	0.000	D	34	13.4	199.766	201.760	202.549	202.552	0
2	22102702	65	High	1.5	Precise	1	32	34	24	12.5	13.4	5.1	34	24	32	13.4	5.1	12.5	2	0.525	0.000	L	34	13.4	203.055	204.088	204.613	204.616	0
2	22102702	66	High	1.5	Vague	2	34	36	11	13.4	28.1	0.9	34	36	11	13.4	28.1	0.9	2	0.489	0.001	D	36	28.1	205.118	207.020	207.509	207.511	0
2	22102702	67	High	1.5	Vague	2	32	36	3	12.5	28.1	3.0	36	32	3	28.1	12.5	3.0	2	0.446	0.000	L	36	28.1	208.014	210.591	211.037	211.039	0
2	22102702	68	High	1.5	Precise	1	30	36	29	12.3	28.1	8.2	30	36	29	12.3	28.1	8.2	1	0.830	0.001	L	30	12.3	211.543	212.191	213.021	213.024	0
2	22102702	69	High	1.5	Vague	2	34	36	4	13.4	28.1	5.8	34	36	4	13.4	28.1	5.8	2	0.536	0.001	D	36	28.1	213.527	214.109	214.645	214.648	0
2	22102702	70	High	1.5	Vague	2	34	31	3	13.4	21.1	3.0	31	3	34	21.1	3.0	13.4	3	0.568	0.000	D	3	3.0	215.150	216.445	217.013	217.016	0
2	22102702	71	High	1.5	Precise	1	34	31	20	13.4	21.1	1.1	31	20	34	21.1	1.1	13.4	2	0.749	0.000	L	31	21.1	217.519	218.696	219.445	219.448	0
2	22102702	72	High	1.5	Precise	1	34	31	27	13.4	21.1	11.1	34	27	31	13.4	11.1	21.1	1	0.546	0.001	L	34	13.4	219.950	222.179	222.725	222.728	0
2	22102702	73	High	1.5	Precise	1	32	31	29	12.5	21.1	8.2	32	31	29	12.5	21.1	8.2	2	0.739	0.000	D	31	21.1	223.230	224.434	225.173	225.175	0
2	22102702	74	High	1.5	Vague	2	32	33	11	12.5	30.2	0.9	11	32	33	0.9	12.5	30.2	1	0.640	0.000	D	32	12.5	225.679	227.197	227.837	227.840	0
2	22102702	75	High	1.5	Precise	1	34	36	29	13.4	28.1	8.2	36	34	29	28.1	13.4	8.2	2	0.534	0.000	L	36	28.1	228.342	229.575	230.109	230.111	0
2	22102702	76	High	1.5	Precise	1	30	34	21	12.3	13.4	3.4	34	21	30	13.4	3.4	12.3	2	0.490	0.000	L	34	13.4	230.613	233.043	233.533	233.536	0
2	22102702	77	High	1.5	Precise	1	32	34	28	12.5	13.4	6.8	28	34	32	6.8	13.4	12.5	2	0.724	0.001	D	34	13.4	234.038	235.433	236.157	236.160	0
2	22102702	78	High	1.5	Vague	2	30	31	5	12.3	21.1	4.4	5	30	31	4.4	12.3	21.1	2	0.579	0.001	R	31	21.1	236.662	237.746	238.325	238.327	0
2	22102702	79	High	1.5	Precise	1	36	33	24	28.1	30.2	5.1	24	33	36	5.1	30.2	28.1	1	0.530	0.001	R	36	28.1	238.830	241.779	242.309	242.312	0
2	22102702	80	High	1.5	Vague	2	31	36	4	21.1	28.1	5.8	4	31	36	5.8	21.1	28.1	2	0.538	0.000	R	36	28.1	242.814	244.210	244.749	244.751	0
2	22102702	81	High	1.5	Precise	1	34	31	29	13.4	21.1	8.2	34	29	31	13.4	8.2	21.1	1	0.452	0.000	L	34	13.4	245.254	246.241	246.693	246.695	0
2	22102702	82	High	1.5	Vague	2	31	33	2	21.1	30.2	1.2	31	2	33	21.1	1.2	30.2	1	0.547	0.000	L	31	21.1	247.198	249.026	249.573	249.575	0
2	22102702	83	High	1.5	Precise	1	32	33	20	12.5	30.2	1.1	32	33	20	12.5	30.2	1.1	3	0.695	0.001	R	20	1.1	250.078	251.174	251.869	251.872	0
2	22102702	84	High	1.5	Precise	1	30	31	27	12.3	21.1	11.1	27	30	31	11.1	12.3	21.1	2	0.530	0.000	R	31	21.1	252.374	254.523	255.053	255.055	0
2	22102702	85	High	1.5	Precise	1	30	36	20	12.3	28.1	1.1	30	36	20	12.3	28.1	1.1	2	0.503	0.001	D	36	28.1	255.558	257.654	258.157	258.160	0
2	22102702	86	High	1.5	Precise	1	32	34	27	12.5	13.4	11.1	27	34	32	11.1	13.4	12.5	2	0.520	0.001	D	34	13.4	258.662	260.773	261.293	261.296	0
2	22102702	87	High	1.5	Vague	2	30	32	3	12.3	12.5	3.0	30	3	32	12.3	3.0	12.5	2	0.631	0.000	R	32	12.5	261.798	264.550	265.181	265.184	0
2	22102702	88	High	1.5	Vague	2	30	34	5	12.3	13.4	4.4	30	5	34	12.3	4.4	13.4	2	0.470	0.000	R	34	13.4	265.686	267.151	267.621	267.623	0
2	22102702	89	High	1.5	Vague	2	36	33	11	28.1	30.2	0.9	36	11	33	28.1	0.9	30.2	1	0.422	0.000	L	36	28.1	268.126	270.064	270.485	270.487	0
2	22102702	90	High	1.5	Precise	1	34	36	21	13.4	28.1	3.4	36	34	21	28.1	13.4	3.4	1	0.463	0.000	D	34	13.4	270.991	272.222	272.685	272.687	0
2	22102702	91	High	1.5	Vague	2	31	36	11	21.1	28.1	0.9	31	36	11	21.1	28.1	0.9	2	0.713	0.000	D	36	28.1	273.190	273.812	274.525	274.527	0
2	22102702	92	High	1.5	Precise	1	34	31	28	13.4	21.1	6.8	28	34	31	6.8	13.4	21.1	1	0.541	0.001	D	34	13.4	275.030	276.712	277.253	277.256	0
2	22102702	93	High	1.5	Precise	1	36	33	27	28.1	30.2	11.1	27	33	36	11.1	30.2	28.1	1	0.475	0.001	R	36	28.1	277.759	279.338	279.813	279.816	0
2	22102702	94	High	1.5	Vague	2	36	33	5	28.1	30.2	4.4	5	36	33	4.4	28.1	30.2	1	0.489	0.000	D	36	28.1	280.318	282.804	283.293	283.295	0
2	22102702	95	High	1.5	Precise	1	32	36	27	12.5	28.1	11.1	32	36	27	12.5	28.1	11.1	2	0.662	0.000	D	36	28.1	283.799	284.670	285.333	285.335	0
2	22102702	96	High	1.5	Vague	2	30	36	4	12.3	28.1	5.8	30	36	4	12.3	28.1	5.8	2	0.517	0.001	D	36	28.1	285.838	288.297	288.813	288.815	0
2	22102702	97	High	1.5	Vague	2	32	34	2	12.5	13.4	1.2	2	34	32	1.2	13.4	12.5	2	0.520	0.001	D	34	13.4	289.318	289.821	290.341	290.343	0
2	22102702	98	High	1.5	Precise	1	34	33	20	13.4	30.2	1.1	33	34	20	30.2	13.4	1.1	1	0.398	0.001	D	34	13.4	290.846	293.784	294.181	294.184	0
2	22102702	99	High	1.5	Vague	2	30	34	11	12.3	13.4	0.9	34	11	30	13.4	0.9	12.3	2	0.634	0.000	L	34	13.4	294.686	295.211	295.845	295.848	0
2	22102702	100	High	1.5	Vague	2	32	34	5	12.5	13.4	4.4	5	34	32	4.4	13.4	12.5	2	0.526	0.001	D	34	13.4	296.350	296.999	297.525	297.527	0
2	22102702	101	High	1.5	Vague	2	30	32	2	12.3	12.5	1.2	32	30	2	12.5	12.3	1.2	2	0.520	0.001	L	32	12.5	298.030	301.005	301.525	301.527	0
2	22102702	102	High	1.5	Vague	2	30	33	15	12.3	30.2	6.2	15	33	30	6.2	30.2	12.3	1	0.885	0.000	R	30	12.3	302.030	304.592	305.477	305.479	0
2	22102702	103	High	1.5	Vague	2	30	36	15	12.3	28.1	6.2	36	15	30	28.1	6.2	12.3	2	0.511	0.000	L	36	28.1	305.982	306.686	307.197	307.199	0
2	22102702	104	High	1.5	Vague	2	34	36	15	13.4	28.1	6.2	15	34	36	6.2	13.4	28.1	2	0.463	0.000	R	36	28.1	307.703	309.734	310.197	310.199	0
2	22102702	105	High	1.5	Precise	1	30	32	20	12.3	12.5	1.1	30	20	32	12.3	1.1	12.5	2	0.486	0.000	R	32	12.5	310.702	312.095	312.581	312.583	0
2	22102702	106	High	1.5	Precise	1	30	32	29	12.3	12.5	8.2	30	29	32	12.3	8.2	12.5	2	0.448	0.000	R	32	12.5	313.086	315.085	315.533	315.535	0
2	22102702	107	High	1.5	Precise	1	30	31	28	12.3	21.1	6.8	28	30	31	6.8	12.3	21.1	2	0.605	0.000	R	31	21.1	316.038	318.048	318.653	318.655	0
2	22102702	108	High	1.5	Precise	1	30	34	27	12.3	13.4	11.1	27	34	30	11.1	13.4	12.3	2	0.576	0.000	D	34	13.4	319.158	322.084	322.661	322.663	0
2	22102702	109	High	1.5	Precise	1	30	32	21	12.3	12.5	3.4	32	30	21	12.5	12.3	3.4	3	0.636	0.000	R	21	3.4	323.166	324.177	324.813	324.815	0
2	22102702	110	High	1.5	Vague	2	30	32	11	12.3	12.5	0.9	32	30	11	12.5	12.3	0.9	2	0.532	0.000	L	32	12.5	325.318	326.945	327.477	327.479	0
2	22102702	111	High	1.5	Precise	1	31	33	21	21.1	30.2	3.4	33	21	31	30.2	3.4	21.1	1	0.605	0.000	R	31	21.1	327.982	328.799	329.405	329.407	0
2	22102702	112	High	1.5	Vague	2	34	31	2	13.4	21.1	1.2	2	34	31	1.2	13.4	21.1	1	0.597	0.000	D	34	13.4	329.910	332.097	332.693	332.696	0
2	22102702	113	High	1.5	Precise	1	32	36	24	12.5	28.1	5.1	36	24	32	28.1	5.1	12.5	2	0.488	0.001	L	36	28.1	333.198	335.573	336.061	336.063	0
2	22102702	114	High	1.5	Precise	1	31	33	29	21.1	30.2	8.2	31	33	29	21.1	30.2	8.2	1	0.582	0.000	L	31	21.1	336.566	338.007	338.589	338.592	0
2	22102702	115	High	1.5	Precise	1	30	33	29	12.3	30.2	8.2	33	30	29	30.2	12.3	8.2	3	0.801	0.000	R	29	8.2	339.095	341.155	341.957	341.959	0
2	22102702	116	High	1.5	Precise	1	34	31	21	13.4	21.1	3.4	34	31	21	13.4	21.1	3.4	1	0.500	0.000	L	34	13.4	342.462	344.449	344.949	344.951	0
2	22102702	117	High	1.5	Precise	1	32	33	28	12.5	30.2	6.8	33	28	32	30.2	6.8	12.5	3	0.703	0.001	D	28	6.8	345.454	347.342	348.045	348.047	0
2	22102702	118	High	1.5	Precise	1	30	31	20	12.3	21.1	1.1	31	20	30	21.1	1.1	12.3	2	0.477	0.000	L	31	21.1	348.549	350.568	351.045	351.047	0
2	22102702	119	High	1.5	Vague	2	30	36	11	12.3	28.1	0.9	30	11	36	12.3	0.9	28.1	2	0.482	0.001	R	36	28.1	351.549	353.667	354.149	354.151	0
2	22102702	120	High	1.5	Vague	2	30	34	4	12.3	13.4	5.8	34	4	30	13.4	5.8	12.3	2	0.523	0.000	L	34	13.4	354.654	355.378	355.901	355.904	0
2	22102702	121	High	1.5	Vague	2	30	34	15	12.3	13.4	6.2	34	30	15	13.4	12.3	6.2	1	0.000	3.417	D	30	12.3	368.584	369.993	369.993	370.005	0
2	22102702	122	High	1.5	Vague	2	32	36	2	12.5	28.1	1.2	32	36	2	12.5	28.1	1.2	2	0.703	0.001	D	36	28.1	370.508	371.734	372.437	372.439	0
2	22102702	123	High	1.5	Vague	2	31	36	2	21.1	28.1	1.2	36	31	2	28.1	21.1	1.2	2	0.513	0.000	L	36	28.1	372.942	374.132	374.645	374.647	0
2	22102702	124	High	1.5	Vague	2	32	36	11	12.5	28.1	0.9	36	32	11	28.1	12.5	0.9	2	0.500	0.000	L	36	28.1	375.150	377.864	378.365	378.368	0
2	22102702	125	High	1.5	Vague	2	32	34	15	12.5	13.4	6.2	15	32	34	6.2	12.5	13.4	2	0.592	0.001	R	34	13.4	378.871	380.925	381.517	381.519	0
2	22102702	126	High	1.5	Precise	1	32	36	28	12.5	28.1	6.8	32	36	28	12.5	28.1	6.8	2	0.514	0.000	D	36	28.1	382.022	383.763	384.277	384.279	0
2	22102702	127	High	1.5	Precise	1	34	33	29	13.4	30.2	8.2	34	29	33	13.4	8.2	30.2	1	0.479	0.000	L	34	13.4	384.783	387.006	387.485	387.487	0
2	22102702	128	High	1.5	Precise	1	31	36	24	21.1	28.1	5.1	24	36	31	5.1	28.1	21.1	2	0.439	0.000	D	36	28.1	387.990	389.582	390.021	390.023	0
2	22102702	129	High	1.5	Precise	1	34	31	24	13.4	21.1	5.1	34	24	31	13.4	5.1	21.1	1	0.473	0.001	L	34	13.4	390.526	393.004	393.477	393.479	0
2	22102702	130	High	1.5	Precise	1	32	31	21	12.5	21.1	3.4	21	32	31	3.4	12.5	21.1	2	0.576	0.000	R	31	21.1	393.982	395.885	396.461	396.463	0
2	22102702	131	High	1.5	Vague	2	30	31	15	12.3	21.1	6.2	15	30	31	6.2	12.3	21.1	2	0.779	0.001	R	31	21.1	396.966	399.106	399.885	399.887	0
2	22102702	132	High	1.5	Precise	1	32	33	27	12.5	30.2	11.1	27	33	32	11.1	30.2	12.5	3	0.744	0.001	L	27	11.1	400.390	403.237	403.981	403.983	0
2	22102702	133	High	1.5	Vague	2	34	31	4	13.4	21.1	5.8	31	34	4	21.1	13.4	5.8	2	0.662	0.001	L	31	21.1	404.486	406.199	406.861	406.863	0
2	22102702	134	High	1.5	Vague	2	32	31	4	12.5	21.1	5.8	31	32	4	21.1	12.5	5.8	2	0.875	0.000	L	31	21.1	407.366	409.634	410.509	410.511	0
2	22102702	135	High	1.5	Precise	1	30	36	24	12.3	28.1	5.1	30	36	24	12.3	28.1	5.1	2	0.589	0.000	D	36	28.1	411.014	413.152	413.741	413.743	0
2	22102702	136	High	1.5	Precise	1	34	33	21	13.4	30.2	3.4	34	33	21	13.4	30.2	3.4	1	0.609	0.000	L	34	13.4	414.246	415.964	416.573	416.575	0
2	22102702	137	High	1.5	Precise	1	32	36	21	12.5	28.1	3.4	21	36	32	3.4	28.1	12.5	2	0.586	0.001	D	36	28.1	417.078	419.659	420.245	420.248	0
2	22102702	138	High	1.5	Vague	2	32	33	4	12.5	30.2	5.8	4	32	33	5.8	12.5	30.2	3	0.700	0.000	L	4	5.8	420.750	421.729	422.429	422.431	0
2	22102702	139	High	1.5	Precise	1	30	34	24	12.3	13.4	5.1	24	30	34	5.1	12.3	13.4	2	0.553	0.000	R	34	13.4	422.934	423.524	424.077	424.079	0
2	22102702	140	High	1.5	Vague	2	32	34	11	12.5	13.4	0.9	11	34	32	0.9	13.4	12.5	2	0.433	0.000	D	34	13.4	424.582	426.811	427.245	427.247	0
2	22102702	141	High	1.5	Vague	2	34	33	2	13.4	30.2	1.2	33	34	2	30.2	13.4	1.2	1	0.486	0.001	D	34	13.4	427.750	430.623	431.109	431.111	0
2	22102702	142	High	1.5	Precise	1	30	31	21	12.3	21.1	3.4	21	31	30	3.4	21.1	12.3	3	0.645	0.001	L	21	3.4	431.614	432.720	433.365	433.367	0
2	22102702	143	High	1.5	Vague	2	30	31	2	12.3	21.1	1.2	2	31	30	1.2	21.1	12.3	2	0.559	0.000	D	31	21.1	433.870	436.829	437.389	437.392	0
2	22102702	144	High	1.5	Vague	2	30	31	11	12.3	21.1	0.9	30	11	31	12.3	0.9	21.1	2	0.581	0.000	R	31	21.1	437.894	440.808	441.389	441.391	0
2	22102702	145	High	1.5	Vague	2	32	31	11	12.5	21.1	0.9	32	11	31	12.5	0.9	21.1	2	0.608	0.000	R	31	21.1	441.893	443.149	443.757	443.759	0
2	22102702	146	High	1.5	Vague	2	30	33	5	12.3	30.2	4.4	30	5	33	12.3	4.4	30.2	1	0.842	0.000	L	30	12.3	444.262	444.771	445.613	445.615	0
2	22102702	147	High	1.5	Vague	2	30	31	3	12.3	21.1	3.0	30	31	3	12.3	21.1	3.0	2	0.619	0.000	D	31	21.1	446.118	447.889	448.509	448.511	0
2	22102702	148	High	1.5	Vague	2	34	31	11	13.4	21.1	0.9	31	34	11	21.1	13.4	0.9	1	0.591	0.001	D	34	13.4	449.013	449.654	450.245	450.247	0
2	22102702	149	High	1.5	Vague	2	36	33	15	28.1	30.2	6.2	36	15	33	28.1	6.2	30.2	1	0.506	0.000	L	36	28.1	450.750	452.235	452.741	452.744	0
2	22102702	150	High	1.5	Precise	1	31	33	20	21.1	30.2	1.1	33	31	20	30.2	21.1	1.1	1	0.537	0.001	D	31	21.1	453.247	456.228	456.765	456.767	0
2	22102702	151	High	1.5	Vague	2	32	31	2	12.5	21.1	1.2	31	32	2	21.1	12.5	1.2	2	0.517	0.000	L	31	21.1	457.270	459.504	460.021	460.023	0
2	22102702	152	High	1.5	Precise	1	31	33	28	21.1	30.2	6.8	31	33	28	21.1	30.2	6.8	1	0.554	0.000	L	31	21.1	460.526	463.115	463.669	463.671	0
2	22102702	153	High	1.5	Precise	1	34	36	27	13.4	28.1	11.1	27	36	34	11.1	28.1	13.4	2	0.608	0.000	D	36	28.1	464.174	465.629	466.237	466.239	0
2	22102702	154	High	1.5	Precise	1	30	33	27	12.3	30.2	11.1	27	33	30	11.1	30.2	12.3	1	0.604	0.000	R	30	12.3	466.742	469.401	470.004	470.007	0
2	22102702	155	High	1.5	Precise	1	31	33	24	21.1	30.2	5.1	24	31	33	5.1	21.1	30.2	1	0.553	0.000	D	31	21.1	470.510	471.436	471.989	471.991	0
2	22102702	156	High	1.5	Precise	1	34	33	27	13.4	30.2	11.1	33	34	27	30.2	13.4	11.1	1	0.483	0.000	D	34	13.4	472.494	474.682	475.165	475.167	0
2	22102702	157	High	1.5	Vague	2	31	33	4	21.1	30.2	5.8	4	33	31	5.8	30.2	21.1	1	0.699	0.000	R	31	21.1	475.669	478.138	478.837	478.839	0
2	22102702	158	High	1.5	Vague	2	30	33	3	12.3	30.2	3.0	33	30	3	30.2	12.3	3.0	1	0.719	0.001	D	30	12.3	479.342	480.510	481.229	481.231	0
2	22102702	159	High	1.5	Precise	1	30	36	21	12.3	28.1	3.4	36	21	30	28.1	3.4	12.3	2	0.509	0.000	L	36	28.1	481.734	484.015	484.525	484.527	0
2	22102702	160	High	1.5	Precise	1	30	34	20	12.3	13.4	1.1	34	30	20	13.4	12.3	1.1	2	0.488	0.000	L	34	13.4	485.030	487.452	487.941	487.943	0
2	22102702	161	High	1.5	Vague	2	36	33	2	28.1	30.2	1.2	36	33	2	28.1	30.2	1.2	1	0.501	0.000	L	36	28.1	488.446	491.375	491.876	491.879	0
2	22102702	162	High	1.5	Vague	2	31	36	3	21.1	28.1	3.0	36	3	31	28.1	3.0	21.1	2	1.182	0.001	L	36	28.1	492.382	493.110	494.293	494.295	0
2	22102702	163	High	1.5	Vague	2	30	33	2	12.3	30.2	1.2	33	30	2	30.2	12.3	1.2	1	0.585	0.001	D	30	12.3	494.798	495.860	496.445	496.447	0
2	22102702	164	High	1.5	Precise	1	30	31	29	12.3	21.1	8.2	29	31	30	8.2	21.1	12.3	2	0.589	0.000	D	31	21.1	496.951	498.488	499.077	499.079	0
2	22102702	165	High	1.5	Vague	2	30	34	2	12.3	13.4	1.2	30	2	34	12.3	1.2	13.4	2	0.646	0.000	R	34	13.4	499.582	500.615	501.261	501.263	0
2	22102702	166	High	1.5	Vague	2	36	33	3	28.1	30.2	3.0	36	3	33	28.1	3.0	30.2	1	0.434	0.000	L	36	28.1	501.766	504.091	504.525	504.527	0
2	22102702	167	High	1.5	Precise	1	30	36	28	12.3	28.1	6.8	36	30	28	28.1	12.3	6.8	2	0.477	0.000	L	36	28.1	505.030	506.624	507.101	507.103	0
2	22102702	168	High	1.5	Precise	1	32	33	24	12.5	30.2	5.1	32	33	24	12.5	30.2	5.1	2	0.809	0.001	D	33	30.2	507.605	508.835	509.645	509.647	0
2	22102702	169	High	1.5	Vague	2	30	32	15	12.3	12.5	6.2	32	15	30	12.5	6.2	12.3	1	0.902	0.001	R	30	12.3	510.150	511.775	512.677	512.679	0
2	22102702	170	High	1.5	Vague	2	32	33	3	12.5	30.2	3.0	3	33	32	3.0	30.2	12.5	2	0.925	0.001	D	33	30.2	513.181	515.128	516.053	516.055	0
2	22102702	171	High	1.5	Vague	2	32	31	3	12.5	21.1	3.0	31	32	3	21.1	12.5	3.0	2	0.620	0.000	L	31	21.1	516.558	518.625	519.245	519.247	0
2	22102702	172	High	1.5	Vague	2	31	36	5	21.1	28.1	4.4	31	5	36	21.1	4.4	28.1	2	0.547	0.000	R	36	28.1	519.749	520.898	521.445	521.447	0
2	22102702	173	High	1.5	Precise	1	34	36	28	13.4	28.1	6.8	36	28	34	28.1	6.8	13.4	2	0.543	0.000	L	36	28.1	521.950	524.037	524.581	524.583	0
2	22102702	174	High	1.5	Vague	2	31	33	15	21.1	30.2	6.2	31	15	33	21.1	6.2	30.2	1	0.671	0.001	L	31	21.1	525.086	526.485	527.157	527.159	0
2	22102702	175	High	1.5	Precise	1	31	33	27	21.1	30.2	11.1	27	33	31	11.1	30.2	21.1	1	0.542	0.000	R	31	21.1	527.661	528.343	528.885	528.887	0
2	22102702	176	High	1.5	Precise	1	32	31	28	12.5	21.1	6.8	31	32	28	21.1	12.5	6.8	2	0.465	0.001	L	31	21.1	529.389	531.492	531.957	531.959	0
2	22102702	177	High	1.5	Precise	1	32	31	24	12.5	21.1	5.1	32	31	24	12.5	21.1	5.1	2	0.787	0.001	D	31	21.1	532.462	533.978	534.765	534.767	0
2	22102702	178	High	1.5	Vague	2	30	36	3	12.3	28.1	3.0	36	3	30	28.1	3.0	12.3	2	0.548	0.000	L	36	28.1	535.270	535.904	536.453	536.456	0
2	22102702	179	High	1.5	Vague	2	31	33	11	21.1	30.2	0.9	33	11	31	30.2	0.9	21.1	1	0.504	0.000	R	31	21.1	536.958	539.333	539.837	539.839	0
2	22102702	180	High	1.5	Vague	2	32	31	5	12.5	21.1	4.4	31	5	32	21.1	4.4	12.5	2	0.570	0.000	L	31	21.1	540.342	541.019	541.589	541.591	0
2	22102702	181	Low	10.0	Precise	1	34	31	35	13.4	21.1	5.6	35	31	34	5.6	21.1	13.4	1	1.647	0.000	R	34	13.4	556.756	559.646	561.293	561.295	0
2	22102702	182	Low	10.0	Precise	1	30	33	19	12.3	30.2	2.2	19	33	30	2.2	30.2	12.3	1	1.284	0.001	R	30	12.3	561.797	563.473	564.757	564.759	0
2	22102702	183	Low	10.0	Precise	1	31	33	19	21.1	30.2	2.2	19	31	33	2.2	21.1	30.2	1	1.101	0.000	D	31	21.1	565.262	567.687	568.789	568.791	0
2	22102702	184	Low	10.0	Precise	1	32	33	25	12.5	30.2	8.2	32	33	25	12.5	30.2	8.2	3	1.608	0.001	R	25	8.2	569.293	571.436	573.045	573.047	0
2	22102702	185	Low	10.0	Vague	2	36	33	7	28.1	30.2	4.2	36	7	33	28.1	4.2	30.2	1	1.151	0.000	L	36	28.1	573.549	575.181	576.332	576.335	0
2	22102702	186	Low	10.0	Vague	2	30	31	6	12.3	21.1	1.1	31	6	30	21.1	1.1	12.3	2	1.340	0.000	L	31	21.1	576.838	578.889	580.229	580.231	0
2	22102702	187	Low	10.0	Vague	2	31	33	13	21.1	30.2	4.9	33	13	31	30.2	4.9	21.1	1	1.166	0.000	R	31	21.1	580.734	582.031	583.197	583.199	0
2	22102702	188	Low	10.0	Vague	2	30	33	1	12.3	30.2	1.3	30	33	1	12.3	30.2	1.3	1	1.246	0.000	L	30	12.3	583.702	584.719	585.965	585.967	0
2	22102702	189	Low	10.0	Precise	1	32	33	22	12.5	30.2	4.9	22	32	33	4.9	12.5	30.2	2	1.452	0.000	R	33	30.2	586.470	587.433	588.885	588.887	0
2	22102702	190	Low	10.0	Precise	1	30	34	25	12.3	13.4	8.2	30	25	34	12.3	8.2	13.4	2	0.749	0.000	R	34	13.4	589.390	591.520	592.269	592.271	0
2	22102702	191	Low	10.0	Precise	1	34	31	23	13.4	21.1	0.5	23	31	34	0.5	21.1	13.4	1	0.818	0.000	R	34	13.4	592.773	593.810	594.628	594.631	0
2	22102702	192	Low	10.0	Precise	1	30	32	35	12.3	12.5	5.6	32	35	30	12.5	5.6	12.3	1	1.079	0.000	R	30	12.3	595.133	596.877	597.957	597.959	0
2	22102702	193	Low	10.0	Precise	1	32	31	25	12.5	21.1	8.2	31	32	25	21.1	12.5	8.2	2	0.864	0.000	L	31	21.1	598.462	599.285	600.149	600.151	0
2	22102702	194	Low	10.0	Precise	1	31	36	35	21.1	28.1	5.6	31	36	35	21.1	28.1	5.6	2	0.728	0.000	D	36	28.1	600.654	603.589	604.317	604.319	0
2	22102702	195	Low	10.0	Precise	1	32	34	35	12.5	13.4	5.6	34	32	35	13.4	12.5	5.6	2	0.735	0.001	L	34	13.4	604.822	607.366	608.101	608.103	0
2	22102702	196	Low	10.0	Precise	1	32	36	25	12.5	28.1	8.2	32	25	36	12.5	8.2	28.1	2	0.703	0.000	R	36	28.1	608.606	609.878	610.581	610.583	0
2	22102702	197	Low	10.0	Precise	1	34	31	26	13.4	21.1	10.9	34	31	26	13.4	21.1	10.9	1	0.928	0.000	L	34	13.4	611.086	613.565	614.493	614.495	0
2	22102702	198	Low	10.0	Vague	2	34	36	6	13.4	28.1	1.1	34	36	6	13.4	28.1	1.1	2	0.723	0.001	D	36	28.1	614.998	617.449	618.173	618.176	0
2	22102702	199	Low	10.0	Precise	1	30	31	26	12.3	21.1	10.9	26	31	30	10.9	21.1	12.3	2	1.032	0.001	D	31	21.1	618.678	619.285	620.317	620.319	0
2	22102702	200	Low	10.0	Precise	1	34	33	26	13.4	30.2	10.9	26	34	33	10.9	13.4	30.2	1	1.040	0.000	D	34	13.4	620.821	622.373	623.412	623.415	0
2	22102702	201	Low	10.0	Precise	1	30	32	25	12.3	12.5	8.2	32	25	30	12.5	8.2	12.3	1	1.044	0.001	R	30	12.3	623.917	626.216	627.261	627.263	0
2	22102702	202	Low	10.0	Vague	2	30	32	10	12.3	12.5	6.1	30	10	32	12.3	6.1	12.5	1	0.934	0.000	L	30	12.3	627.765	629.990	630.924	630.927	0
2	22102702	203	Low	10.0	Vague	2	30	31	7	12.3	21.1	4.2	7	30	31	4.2	12.3	21.1	2	0.912	0.001	R	31	21.1	631.429	632.333	633.245	633.247	0
2	22102702	204	Low	10.0	Precise	1	36	33	25	28.1	30.2	8.2	25	33	36	8.2	30.2	28.1	1	0.845	0.001	R	36	28.1	633.750	636.624	637.469	637.471	0
2	22102702	205	Low	10.0	Vague	2	31	33	1	21.1	30.2	1.3	33	31	1	30.2	21.1	1.3	1	1.017	0.000	D	31	21.1	637.974	639.083	640.101	640.103	0
2	22102702	206	Low	10.0	Vague	2	32	34	1	12.5	13.4	1.3	1	34	32	1.3	13.4	12.5	2	1.165	0.001	D	34	13.4	640.606	641.999	643.165	643.167	0
2	22102702	207	Low	10.0	Vague	2	30	33	7	12.3	30.2	4.2	7	30	33	4.2	12.3	30.2	1	1.036	0.001	D	30	12.3	643.670	645.169	646.205	646.208	0
2	22102702	208	Low	10.0	Vague	2	30	31	1	12.3	21.1	1.3	30	31	1	12.3	21.1	1.3	1	1.090	0.001	L	30	12.3	646.710	648.659	649.749	649.751	0
2	22102702	209	Low	10.0	Vague	2	36	33	6	28.1	30.2	1.1	36	6	33	28.1	1.1	30.2	1	1.004	0.000	L	36	28.1	650.254	651.456	652.460	652.463	0
2	22102702	210	Low	10.0	Vague	2	34	36	7	13.4	28.1	4.2	36	34	7	28.1	13.4	4.2	2	0.959	0.000	L	36	28.1	652.965	655.174	656.132	656.135	0
2	22102702	211	Low	10.0	Vague	2	34	33	6	13.4	30.2	1.1	33	34	6	30.2	13.4	1.1	1	0.994	0.001	D	34	13.4	656.638	658.235	659.229	659.231	0
2	22102702	212	Low	10.0	Precise	1	30	33	22	12.3	30.2	4.9	30	33	22	12.3	30.2	4.9	1	0.872	0.000	L	30	12.3	659.734	662.517	663.389	663.391	0
2	22102702	213	Low	10.0	Vague	2	30	34	7	12.3	13.4	4.2	30	34	7	12.3	13.4	4.2	2	1.143	0.001	D	34	13.4	663.894	664.637	665.781	665.783	0
2	22102702	214	Low	10.0	Vague	2	30	32	7	12.3	12.5	4.2	30	32	7	12.3	12.5	4.2	1	1.405	0.000	L	30	12.3	666.286	667.687	669.093	669.095	0
2	22102702	215	Low	10.0	Precise	1	30	34	19	12.3	13.4	2.2	30	19	34	12.3	2.2	13.4	2	1.091	0.000	R	34	13.4	669.598	670.178	671.269	671.271	0
2	22102702	216	Low	10.0	Precise	1	31	36	22	21.1	28.1	4.9	36	22	31	28.1	4.9	21.1	2	1.455	0.000	L	36	28.1	671.773	673.485	674.940	674.943	0
2	22102702	217	Low	10.0	Vague	2	30	32	1	12.3	12.5	1.3	32	1	30	12.5	1.3	12.3	1	0.935	0.000	R	30	12.3	675.445	676.261	677.196	677.200	0
2	22102702	218	Low	10.0	Precise	1	30	33	26	12.3	30.2	10.9	30	26	33	12.3	10.9	30.2	1	1.469	0.001	L	30	12.3	677.702	679.392	680.861	680.863	0
2	22102702	219	Low	10.0	Precise	1	31	36	23	21.1	28.1	0.5	31	36	23	21.1	28.1	0.5	2	0.837	0.000	D	36	28.1	681.365	683.119	683.957	683.959	0
2	22102702	220	Low	10.0	Precise	1	34	36	25	13.4	28.1	8.2	34	25	36	13.4	8.2	28.1	2	0.609	0.000	R	36	28.1	684.462	685.964	686.573	686.575	0
2	22102702	221	Low	10.0	Vague	2	34	33	1	13.4	30.2	1.3	33	34	1	30.2	13.4	1.3	1	0.722	0.001	D	34	13.4	687.078	688.275	688.997	688.999	0
2	22102702	222	Low	10.0	Precise	1	32	33	26	12.5	30.2	10.9	32	33	26	12.5	30.2	10.9	3	0.886	0.000	R	26	10.9	689.502	690.598	691.485	691.487	0
2	22102702	223	Low	10.0	Vague	2	31	36	1	21.1	28.1	1.3	31	36	1	21.1	28.1	1.3	2	0.641	0.000	D	36	28.1	691.990	694.539	695.180	695.183	0
2	22102702	224	Low	10.0	Precise	1	31	33	35	21.1	30.2	5.6	33	35	31	30.2	5.6	21.1	1	0.928	0.001	R	31	21.1	695.686	696.236	697.165	697.167	0
2	22102702	225	Low	10.0	Vague	2	36	33	10	28.1	30.2	6.1	33	36	10	30.2	28.1	6.1	1	0.694	0.000	D	36	28.1	697.670	699.326	700.020	700.023	0
2	22102702	226	Low	10.0	Vague	2	32	31	13	12.5	21.1	4.9	13	32	31	4.9	12.5	21.1	2	1.053	0.001	R	31	21.1	700.525	702.088	703.141	703.143	0
2	22102702	227	Low	10.0	Precise	1	34	31	25	13.4	21.1	8.2	31	34	25	21.1	13.4	8.2	1	0.760	0.001	D	34	13.4	703.646	706.173	706.933	706.935	0
2	22102702	228	Low	10.0	Vague	2	31	36	6	21.1	28.1	1.1	31	36	6	21.1	28.1	1.1	2	0.661	0.001	D	36	28.1	707.438	710.328	710.989	710.991	0
2	22102702	229	Low	10.0	Precise	1	30	33	35	12.3	30.2	5.6	33	30	35	30.2	12.3	5.6	1	0.901	0.000	D	30	12.3	711.494	712.720	713.621	713.623	0
2	22102702	230	Low	10.0	Precise	1	30	31	35	12.3	21.1	5.6	31	35	30	21.1	5.6	12.3	2	1.082	0.000	L	31	21.1	714.125	714.842	715.924	715.927	0
2	22102702	231	Low	10.0	Precise	1	36	33	26	28.1	30.2	10.9	26	36	33	10.9	28.1	30.2	1	0.744	0.001	D	36	28.1	716.430	716.964	717.709	717.711	0
2	22102702	232	Low	10.0	Precise	1	31	33	25	21.1	30.2	8.2	33	31	25	30.2	21.1	8.2	1	0.837	0.000	D	31	21.1	718.214	719.943	720.781	720.783	0
2	22102702	233	Low	10.0	Precise	1	30	32	26	12.3	12.5	10.9	26	30	32	10.9	12.3	12.5	1	1.131	0.000	D	30	12.3	721.286	721.809	722.940	722.944	0
2	22102702	234	Low	10.0	Precise	1	30	36	25	12.3	28.1	8.2	30	36	25	12.3	28.1	8.2	2	0.574	0.000	D	36	28.1	723.447	725.919	726.493	726.495	0
2	22102702	235	Low	10.0	Vague	2	30	34	10	12.3	13.4	6.1	10	34	30	6.1	13.4	12.3	2	0.721	0.000	D	34	13.4	726.997	728.204	728.925	728.927	0
2	22102702	236	Low	10.0	Vague	2	31	33	9	21.1	30.2	6.8	31	9	33	21.1	6.8	30.2	1	0.751	0.000	L	31	21.1	729.430	732.413	733.165	733.167	0
2	22102702	237	Low	10.0	Vague	2	32	34	13	12.5	13.4	4.9	34	32	13	13.4	12.5	4.9	2	0.720	0.000	L	34	13.4	733.670	736.636	737.356	737.359	0
2	22102702	238	Low	10.0	Precise	1	32	36	35	12.5	28.1	5.6	32	35	36	12.5	5.6	28.1	2	0.981	0.000	R	36	28.1	737.863	738.584	739.565	739.567	0
2	22102702	239	Low	10.0	Vague	2	31	33	10	21.1	30.2	6.1	31	10	33	21.1	6.1	30.2	1	0.766	0.000	L	31	21.1	740.070	742.006	742.772	742.775	0
2	22102702	240	Low	10.0	Precise	1	34	33	19	13.4	30.2	2.2	19	34	33	2.2	13.4	30.2	1	0.933	0.000	D	34	13.4	743.278	745.263	746.196	746.199	0
2	22102702	241	Low	10.0	Vague	2	32	36	1	12.5	28.1	1.3	36	1	32	28.1	1.3	12.5	2	0.537	0.000	L	36	28.1	756.089	758.947	759.485	759.487	0
2	22102702	242	Low	10.0	Precise	1	30	33	25	12.3	30.2	8.2	33	30	25	30.2	12.3	8.2	1	1.046	0.000	D	30	12.3	759.990	760.599	761.645	761.647	0
2	22102702	243	Low	10.0	Precise	1	36	33	23	28.1	30.2	0.5	23	33	36	0.5	30.2	28.1	1	0.492	0.000	R	36	28.1	762.149	765.097	765.588	765.591	0
2	22102702	244	Low	10.0	Precise	1	34	36	23	13.4	28.1	0.5	36	23	34	28.1	0.5	13.4	2	0.791	0.000	L	36	28.1	766.093	766.734	767.524	767.527	0
2	22102702	245	Low	10.0	Precise	1	30	34	22	12.3	13.4	4.9	30	34	22	12.3	13.4	4.9	2	0.733	0.000	D	34	13.4	768.030	770.215	770.948	770.951	0
2	22102702	246	Low	10.0	Vague	2	32	36	10	12.5	28.1	6.1	36	32	10	28.1	12.5	6.1	2	0.706	0.000	L	36	28.1	771.453	772.355	773.061	773.063	0
2	22102702	247	Low	10.0	Precise	1	30	34	35	12.3	13.4	5.6	34	35	30	13.4	5.6	12.3	2	0.562	0.001	L	34	13.4	773.565	776.290	776.853	776.855	0
2	22102702	248	Low	10.0	Vague	2	34	36	13	13.4	28.1	4.9	36	34	13	28.1	13.4	4.9	2	0.670	0.001	L	36	28.1	777.358	777.942	778.613	778.615	0
2	22102702	249	Low	10.0	Precise	1	34	33	22	13.4	30.2	4.9	34	33	22	13.4	30.2	4.9	1	0.820	0.000	L	34	13.4	779.117	780.664	781.484	781.487	0
2	22102702	250	Low	10.0	Vague	2	36	33	13	28.1	30.2	4.9	33	13	36	30.2	4.9	28.1	1	0.733	0.000	R	36	28.1	781.989	782.887	783.621	783.623	0
2	22102702	251	Low	10.0	Precise	1	32	33	19	12.5	30.2	2.2	19	33	32	2.2	30.2	12.5	2	1.168	0.000	D	33	30.2	784.126	786.540	787.709	787.711	0
2	22102702	252	Low	10.0	Precise	1	30	36	26	12.3	28.1	10.9	26	30	36	10.9	12.3	28.1	2	0.725	0.000	R	36	28.1	788.214	789.112	789.837	789.839	0
2	22102702	253	Low	10.0	Vague	2	32	31	1	12.5	21.1	1.3	1	31	32	1.3	21.1	12.5	2	1.582	0.000	D	31	21.1	790.342	792.862	794.445	794.447	0
2	22102702	254	Low	10.0	Precise	1	30	31	22	12.3	21.1	4.9	31	30	22	21.1	12.3	4.9	2	0.706	0.000	L	31	21.1	794.950	796.610	797.317	797.319	0
2	22102702	255	Low	10.0	Precise	1	30	36	23	12.3	28.1	0.5	30	23	36	12.3	0.5	28.1	2	0.994	0.000	R	36	28.1	797.821	798.610	799.604	799.607	0
2	22102702	256	Low	10.0	Precise	1	34	33	23	13.4	30.2	0.5	23	34	33	0.5	13.4	30.2	1	0.890	0.000	D	34	13.4	800.109	802.003	802.893	802.895	0
2	22102702	257	Low	10.0	Precise	1	32	36	26	12.5	28.1	10.9	32	26	36	12.5	10.9	28.1	2	0.768	0.001	R	36	28.1	803.398	806.324	807.093	807.095	0
2	22102702	258	Low	10.0	Precise	1	30	33	23	12.3	30.2	0.5	23	33	30	0.5	30.2	12.3	1	1.314	0.000	R	30	12.3	807.597	808.363	809.676	809.679	0
2	22102702	259	Low	10.0	Precise	1	31	33	23	21.1	30.2	0.5	23	31	33	0.5	21.1	30.2	1	0.894	0.000	D	31	21.1	810.181	812.142	813.036	813.039	0
2	22102702	260	Low	10.0	Vague	2	30	36	1	12.3	28.1	1.3	1	30	36	1.3	12.3	28.1	2	1.064	0.001	R	36	28.1	813.542	814.077	815.141	815.143	0
2	22102702	261	Low	10.0	Vague	2	34	31	1	13.4	21.1	1.3	34	31	1	13.4	21.1	1.3	1	0.943	0.001	L	34	13.4	815.645	817.566	818.509	818.511	0
2	22102702	262	Low	10.0	Vague	2	32	36	13	12.5	28.1	4.9	13	32	36	4.9	12.5	28.1	2	0.888	0.000	R	36	28.1	819.014	821.509	822.396	822.399	0
2	22102702	263	Low	10.0	Vague	2	31	36	13	21.1	28.1	4.9	36	13	31	28.1	4.9	21.1	2	0.764	0.001	L	36	28.1	822.901	823.713	824.477	824.479	0
2	22102702	264	Low	10.0	Vague	2	31	33	7	21.1	30.2	4.2	7	33	31	4.2	30.2	21.1	1	0.980	0.000	R	31	21.1	824.981	827.184	828.164	828.167	0
2	22102702	265	Low	10.0	Vague	2	30	32	13	12.3	12.5	4.9	32	13	30	12.5	4.9	12.3	1	0.926	0.000	R	30	12.3	828.669	830.191	831.116	831.119	0
2	22102702	266	Low	10.0	Precise	1	32	36	23	12.5	28.1	0.5	23	36	32	0.5	28.1	12.5	2	1.061	0.001	D	36	28.1	831.621	834.015	835.077	835.079	0
2	22102702	267	Low	10.0	Vague	2	31	36	10	21.1	28.1	6.1	36	31	10	28.1	21.1	6.1	2	0.674	0.001	L	36	28.1	835.582	837.458	838.133	838.135	0
2	22102702	268	Low	10.0	Vague	2	34	31	10	13.4	21.1	6.1	31	34	10	21.1	13.4	6.1	1	0.855	0.001	D	34	13.4	838.638	841.398	842.253	842.255	0
2	22102702	269	Low	10.0	Vague	2	32	33	1	12.5	30.2	1.3	32	33	1	12.5	30.2	1.3	2	1.361	0.001	D	33	30.2	842.758	844.580	845.940	845.943	0
2	22102702	270	Low	10.0	Precise	1	31	33	22	21.1	30.2	4.9	31	33	22	21.1	30.2	4.9	1	0.876	0.001	L	31	21.1	846.445	847.640	848.517	848.519	0
2	22102702	271	Low	10.0	Precise	1	30	36	19	12.3	28.1	2.2	30	36	19	12.3	28.1	2.2	2	0.628	0.001	D	36	28.1	849.022	851.113	851.741	851.743	0
2	22102702	272	Low	10.0	Vague	2	30	31	13	12.3	21.1	4.9	31	30	13	21.1	12.3	4.9	2	0.982	0.000	L	31	21.1	852.245	853.655	854.637	854.639	0
2	22102702	273	Low	10.0	Vague	2	30	34	13	12.3	13.4	4.9	30	34	13	12.3	13.4	4.9	2	0.786	0.001	D	34	13.4	855.142	856.723	857.509	857.511	0
2	22102702	274	Low	10.0	Vague	2	32	36	6	12.5	28.1	1.1	36	6	32	28.1	1.1	12.5	2	0.754	0.000	L	36	28.1	858.014	858.546	859.300	859.303	0
2	22102702	275	Low	10.0	Vague	2	36	33	9	28.1	30.2	6.8	9	33	36	6.8	30.2	28.1	1	0.781	0.001	R	36	28.1	859.805	860.719	861.500	861.503	0
2	22102702	276	Low	10.0	Precise	1	32	34	26	12.5	13.4	10.9	34	26	32	13.4	10.9	12.5	2	0.683	0.001	L	34	13.4	862.006	863.370	864.052	864.056	0
2	22102702	277	Low	10.0	Precise	1	32	36	19	12.5	28.1	2.2	32	19	36	12.5	2.2	28.1	2	0.516	0.000	R	36	28.1	864.558	865.640	866.156	866.159	0
2	22102702	278	Low	10.0	Vague	2	34	31	7	13.4	21.1	4.2	7	34	31	4.2	13.4	21.1	2	1.027	0.000	R	31	21.1	866.661	868.434	869.461	869.463	0
2	22102702	279	Low	10.0	Vague	2	32	33	7	12.5	30.2	4.2	33	7	32	30.2	4.2	12.5	2	1.137	0.001	L	33	30.2	869.966	871.420	872.557	872.559	0
2	22102702	280	Low	10.0	Vague	2	30	34	1	12.3	13.4	1.3	1	34	30	1.3	13.4	12.3	2	0.848	0.000	D	34	13.4	873.061	874.173	875.021	875.023	0
2	22102702	281	Low	10.0	Precise	1	34	31	19	13.4	21.1	2.2	19	34	31	2.2	13.4	21.1	1	1.006	0.001	D	34	13.4	875.526	876.575	877.581	877.583	0
2	22102702	282	Low	10.0	Vague	2	32	31	10	12.5	21.1	6.1	10	31	32	6.1	21.1	12.5	2	1.127	0.000	D	31	21.1	878.085	879.470	880.597	880.599	0
2	22102702	283	Low	10.0	Vague	2	30	36	10	12.3	28.1	6.1	36	10	30	28.1	6.1	12.3	2	0.802	0.001	L	36	28.1	881.101	883.771	884.573	884.575	0
2	22102702	284	Low	10.0	Vague	2	34	36	1	13.4	28.1	1.3	36	34	1	28.1	13.4	1.3	2	0.802	0.000	L	36	28.1	885.077	888.034	888.836	888.839	0
2	22102702	285	Low	10.0	Vague	2	30	36	13	12.3	28.1	4.9	30	36	13	12.3	28.1	4.9	2	0.867	0.001	D	36	28.1	889.342	890.946	891.813	891.815	0
2	22102702	286	Low	10.0	Precise	1	34	36	26	13.4	28.1	10.9	36	34	26	28.1	13.4	10.9	2	0.744	0.000	L	36	28.1	892.318	893.517	894.261	894.263	0
2	22102702	287	Low	10.0	Vague	2	32	33	13	12.5	30.2	4.9	33	32	13	30.2	12.5	4.9	1	2.052	0.001	D	32	12.5	894.766	895.577	897.628	897.631	0
2	22102702	288	Low	10.0	Vague	2	36	33	1	28.1	30.2	1.3	33	36	1	30.2	28.1	1.3	1	0.820	0.001	D	36	28.1	898.134	900.297	901.116	901.119	0
2	22102702	289	Low	10.0	Precise	1	32	31	19	12.5	21.1	2.2	32	19	31	12.5	2.2	21.1	2	0.862	0.001	R	31	21.1	901.622	902.959	903.820	903.823	0
2	22102702	290	Low	10.0	Precise	1	32	33	35	12.5	30.2	5.6	33	32	35	30.2	12.5	5.6	2	1.163	0.000	L	33	30.2	904.325	906.369	907.532	907.535	0
2	22102702	291	Low	10.0	Vague	2	32	33	6	12.5	30.2	1.1	32	33	6	12.5	30.2	1.1	2	3.155	0.001	D	33	30.2	908.037	911.018	914.173	914.175	0
2	22102702	292	Low	10.0	Vague	2	30	34	6	12.3	13.4	1.1	30	34	6	12.3	13.4	1.1	2	0.637	0.000	D	34	13.4	914.678	917.623	918.261	918.263	0
2	22102702	293	Low	10.0	Vague	2	30	36	9	12.3	28.1	6.8	36	30	9	28.1	12.3	6.8	2	1.018	0.000	L	36	28.1	918.766	921.491	922.508	922.511	0
2	22102702	294	Low	10.0	Vague	2	30	32	9	12.3	12.5	6.8	30	9	32	12.3	6.8	12.5	1	0.812	0.000	L	30	12.3	923.014	925.568	926.380	926.383	0
2	22102702	295	Low	10.0	Precise	1	31	36	19	21.1	28.1	2.2	36	19	31	28.1	2.2	21.1	2	0.665	0.000	L	36	28.1	926.885	927.907	928.572	928.575	0
2	22102702	296	Low	10.0	Vague	2	34	36	10	13.4	28.1	6.1	36	10	34	28.1	6.1	13.4	2	0.539	0.000	L	36	28.1	929.077	929.625	930.164	930.167	0
2	22102702	297	Low	10.0	Precise	1	34	33	35	13.4	30.2	5.6	35	33	34	5.6	30.2	13.4	1	0.626	0.000	R	34	13.4	930.670	933.162	933.788	933.791	0
2	22102702	298	Low	10.0	Precise	1	32	31	23	12.5	21.1	0.5	32	31	23	12.5	21.1	0.5	2	0.880	0.001	D	31	21.1	934.293	936.813	937.693	937.695	0
2	22102702	299	Low	10.0	Vague	2	32	34	7	12.5	13.4	4.2	7	34	32	4.2	13.4	12.5	2	0.722	0.001	D	34	13.4	938.197	940.714	941.436	941.439	0
2	22102702	300	Low	10.0	Vague	2	30	34	9	12.3	13.4	6.8	30	34	9	12.3	13.4	6.8	2	1.063	0.000	D	34	13.4	941.942	943.429	944.492	944.495	0
2	22102702	301	Low	10.0	Vague	2	32	36	9	12.5	28.1	6.8	32	36	9	12.5	28.1	6.8	2	0.659	0.001	D	36	28.1	949.818	951.153	951.812	951.815	0
2	22102702	302	Low	10.0	Precise	1	32	34	22	12.5	13.4	4.9	22	32	34	4.9	12.5	13.4	2	0.683	0.001	R	34	13.4	952.318	953.993	954.677	954.679	0
2	22102702	303	Low	10.0	Precise	1	34	36	22	13.4	28.1	4.9	22	36	34	4.9	28.1	13.4	2	0.669	0.000	D	36	28.1	955.181	956.368	957.036	957.039	0
2	22102702	304	Low	10.0	Precise	1	30	36	22	12.3	28.1	4.9	22	36	30	4.9	28.1	12.3	2	0.549	0.000	D	36	28.1	957.541	959.736	960.284	960.287	0
2	22102702	305	Low	10.0	Vague	2	31	33	6	21.1	30.2	1.1	6	31	33	1.1	21.1	30.2	1	0.725	0.001	D	31	21.1	960.790	963.328	964.052	964.055	0
2	22102702	306	Low	10.0	Precise	1	30	34	26	12.3	13.4	10.9	34	26	30	13.4	10.9	12.3	2	0.884	0.001	L	34	13.4	964.557	966.017	966.900	966.903	0
2	22102702	307	Low	10.0	Vague	2	32	31	7	12.5	21.1	4.2	31	7	32	21.1	4.2	12.5	2	0.672	0.000	L	31	21.1	967.405	970.373	971.044	971.047	0
2	22102702	308	Low	10.0	Precise	1	30	32	19	12.3	12.5	2.2	30	19	32	12.3	2.2	12.5	1	0.597	0.000	L	30	12.3	971.549	973.423	974.020	974.023	0
2	22102702	309	Low	10.0	Vague	2	34	31	9	13.4	21.1	6.8	31	34	9	21.1	13.4	6.8	2	0.932	0.000	L	31	21.1	974.525	976.521	977.452	977.455	0
2	22102702	310	Low	10.0	Vague	2	32	33	10	12.5	30.2	6.1	10	32	33	6.1	12.5	30.2	2	1.293	0.001	R	33	30.2	977.958	978.471	979.764	979.767	0
2	22102702	311	Low	10.0	Precise	1	30	36	35	12.3	28.1	5.6	30	35	36	12.3	5.6	28.1	2	0.891	0.000	R	36	28.1	980.269	981.362	982.252	982.255	0
2	22102702	312	Low	10.0	Vague	2	32	36	7	12.5	28.1	4.2	7	32	36	4.2	12.5	28.1	2	0.642	0.000	R	36	28.1	982.758	983.515	984.156	984.159	0
2	22102702	313	Low	10.0	Vague	2	30	33	6	12.3	30.2	1.1	30	33	6	12.3	30.2	1.1	1	0.801	0.000	L	30	12.3	984.662	987.427	988.228	988.231	0
2	22102702	314	Low	10.0	Vague	2	34	31	6	13.4	21.1	1.1	6	31	34	1.1	21.1	13.4	1	1.974	0.001	R	34	13.4	988.733	990.286	992.260	992.263	0
2	22102702	315	Low	10.0	Precise	1	30	31	25	12.3	21.1	8.2	30	25	31	12.3	8.2	21.1	2	0.788	0.000	R	31	21.1	992.766	994.216	995.004	995.007	0
2	22102702	316	Low	10.0	Precise	1	32	31	22	12.5	21.1	4.9	32	22	31	12.5	4.9	21.1	2	1.032	0.000	R	31	21.1	995.509	996.356	997.388	997.391	0
2	22102702	317	Low	10.0	Vague	2	32	31	9	12.5	21.1	6.8	9	31	32	6.8	21.1	12.5	2	1.872	0.000	D	31	21.1	997.893	998.628	1000.500	1000.503	0
2	22102702	318	Low	10.0	Precise	1	36	33	19	28.1	30.2	2.2	33	19	36	30.2	2.2	28.1	1	0.755	0.000	R	36	28.1	1001.005	1003.809	1004.564	1004.567	0
2	22102702	319	Low	10.0	Vague	2	30	32	6	12.3	12.5	1.1	30	32	6	12.3	12.5	1.1	1	0.907	0.001	L	30	12.3	1005.069	1006.097	1007.004	1007.007	0
2	22102702	320	Low	10.0	Precise	1	30	31	19	12.3	21.1	2.2	19	30	31	2.2	12.3	21.1	2	0.834	0.000	R	31	21.1	1007.510	1008.379	1009.212	1009.215	0
2	22102702	321	Low	10.0	Vague	2	30	33	10	12.3	30.2	6.1	33	30	10	30.2	12.3	6.1	1	1.085	0.000	D	30	12.3	1009.717	1012.176	1013.260	1013.263	0
2	22102702	322	Low	10.0	Vague	2	34	31	13	13.4	21.1	4.9	34	31	13	13.4	21.1	4.9	1	0.848	0.000	L	34	13.4	1013.766	1016.620	1017.468	1017.471	0
2	22102702	323	Low	10.0	Precise	1	31	36	26	21.1	28.1	10.9	26	31	36	10.9	21.1	28.1	2	1.517	0.000	R	36	28.1	1017.974	1018.887	1020.404	1020.407	0
2	22102702	324	Low	10.0	Vague	2	32	31	6	12.5	21.1	1.1	32	6	31	12.5	1.1	21.1	2	1.891	0.000	R	31	21.1	1020.909	1021.913	1023.804	1023.807	0
2	22102702	325	Low	10.0	Vague	2	32	33	9	12.5	30.2	6.8	33	9	32	30.2	6.8	12.5	2	1.642	0.000	L	33	30.2	1024.309	1024.938	1026.580	1026.583	0
2	22102702	326	Low	10.0	Precise	1	32	31	35	12.5	21.1	5.6	31	32	35	21.1	12.5	5.6	2	0.667	0.001	L	31	21.1	1027.085	1029.522	1030.188	1030.191	0
2	22102702	327	Low	10.0	Vague	2	30	36	6	12.3	28.1	1.1	36	30	6	28.1	12.3	1.1	2	0.802	0.000	L	36	28.1	1030.693	1031.466	1032.268	1032.271	0
2	22102702	328	Low	10.0	Precise	1	32	36	22	12.5	28.1	4.9	32	22	36	12.5	4.9	28.1	2	0.732	0.001	R	36	28.1	1032.773	1035.337	1036.068	1036.071	0
2	22102702	329	Low	10.0	Precise	1	30	32	23	12.3	12.5	0.5	30	32	23	12.3	12.5	0.5	1	0.986	0.001	L	30	12.3	1036.573	1038.578	1039.564	1039.567	0
2	22102702	330	Low	10.0	Vague	2	30	31	10	12.3	21.1	6.1	31	10	30	21.1	6.1	12.3	2	0.728	0.000	L	31	21.1	1040.070	1042.733	1043.460	1043.463	0
2	22102702	331	Low	10.0	Precise	1	34	33	25	13.4	30.2	8.2	25	34	33	8.2	13.4	30.2	1	1.043	0.000	D	34	13.4	1043.965	1046.609	1047.652	1047.655	0
2	22102702	332	Low	10.0	Precise	1	36	33	22	28.1	30.2	4.9	33	36	22	30.2	28.1	4.9	1	0.805	0.001	D	36	28.1	1048.157	1049.287	1050.092	1050.095	0
2	22102702	333	Low	10.0	Precise	1	32	34	23	12.5	13.4	0.5	32	34	23	12.5	13.4	0.5	2	1.237	0.001	D	34	13.4	1050.597	1051.416	1052.652	1052.655	0
2	22102702	334	Low	10.0	Vague	2	34	36	9	13.4	28.1	6.8	9	34	36	6.8	13.4	28.1	2	0.747	0.000	R	36	28.1	1053.157	1056.073	1056.820	1056.823	0
2	22102702	335	Low	10.0	Vague	2	30	33	9	12.3	30.2	6.8	9	30	33	6.8	12.3	30.2	1	0.978	0.001	D	30	12.3	1057.325	1058.843	1059.820	1059.823	0
2	22102702	336	Low	10.0	Vague	2	30	33	13	12.3	30.2	4.9	33	13	30	30.2	4.9	12.3	1	0.644	0.000	R	30	12.3	1060.325	1062.512	1063.156	1063.158	0
2	22102702	337	Low	10.0	Precise	1	32	34	25	12.5	13.4	8.2	25	34	32	8.2	13.4	12.5	2	1.169	0.000	D	34	13.4	1063.661	1064.283	1065.452	1065.455	0
2	22102702	338	Low	10.0	Vague	2	30	36	7	12.3	28.1	4.2	30	36	7	12.3	28.1	4.2	2	0.733	0.000	D	36	28.1	1065.957	1067.320	1068.052	1068.055	0
2	22102702	339	Low	10.0	Precise	1	34	36	35	13.4	28.1	5.6	36	34	35	28.1	13.4	5.6	2	0.609	0.001	L	36	28.1	1068.558	1071.452	1072.060	1072.063	0
2	22102702	340	Low	10.0	Precise	1	32	31	26	12.5	21.1	10.9	26	32	31	10.9	12.5	21.1	2	0.771	0.001	R	31	21.1	1072.565	1074.649	1075.420	1075.423	0
2	22102702	341	Low	10.0	Vague	2	34	33	10	13.4	30.2	6.1	34	33	10	13.4	30.2	6.1	1	1.096	0.000	L	34	13.4	1075.926	1077.388	1078.484	1078.486	0
2	22102702	342	Low	10.0	Vague	2	32	34	9	12.5	13.4	6.8	9	34	32	6.8	13.4	12.5	2	0.903	0.001	D	34	13.4	1078.989	1079.646	1080.548	1080.551	0
2	22102702	343	Low	10.0	Precise	1	36	33	35	28.1	30.2	5.6	35	36	33	5.6	28.1	30.2	1	0.958	0.000	D	36	28.1	1081.053	1082.558	1083.516	1083.519	0
2	22102702	344	Low	10.0	Precise	1	32	33	23	12.5	30.2	0.5	33	32	23	30.2	12.5	0.5	2	1.566	0.001	L	33	30.2	1084.022	1085.511	1087.076	1087.079	0
2	22102702	345	Low	10.0	Precise	1	30	34	23	12.3	13.4	0.5	23	30	34	0.5	12.3	13.4	2	0.615	0.000	R	34	13.4	1087.581	1088.909	1089.524	1089.526	0
2	22102702	346	Low	10.0	Vague	2	32	34	6	12.5	13.4	1.1	32	6	34	12.5	1.1	13.4	2	0.833	0.000	R	34	13.4	1090.029	1092.219	1093.052	1093.055	0
2	22102702	347	Low	10.0	Precise	1	30	31	23	12.3	21.1	0.5	31	30	23	21.1	12.3	0.5	2	0.877	0.000	L	31	21.1	1093.557	1094.391	1095.268	1095.271	0
2	22102702	348	Low	10.0	Vague	2	31	36	7	21.1	28.1	4.2	31	36	7	21.1	28.1	4.2	2	0.836	0.000	D	36	28.1	1095.773	1096.344	1097.180	1097.183	0
2	22102702	349	Low	10.0	Precise	1	34	36	19	13.4	28.1	2.2	34	36	19	13.4	28.1	2.2	2	0.905	0.000	D	36	28.1	1097.685	1098.755	1099.660	1099.663	0
2	22102702	350	Low	10.0	Vague	2	34	33	13	13.4	30.2	4.9	34	33	13	13.4	30.2	4.9	1	0.733	0.000	L	34	13.4	1100.166	1101.087	1101.820	1101.824	0
2	22102702	351	Low	10.0	Precise	1	31	33	26	21.1	30.2	10.9	31	33	26	21.1	30.2	10.9	1	1.011	0.000	L	31	21.1	1102.326	1104.633	1105.644	1105.647	0
2	22102702	352	Low	10.0	Vague	2	32	34	10	12.5	13.4	6.1	34	10	32	13.4	6.1	12.5	2	0.612	0.000	L	34	13.4	1106.149	1108.249	1108.860	1108.863	0
2	22102702	353	Low	10.0	Precise	1	32	34	19	12.5	13.4	2.2	32	19	34	12.5	2.2	13.4	2	0.957	0.001	R	34	13.4	1109.367	1111.183	1112.140	1112.143	0
2	22102702	354	Low	10.0	Vague	2	30	31	9	12.3	21.1	6.8	30	31	9	12.3	21.1	6.8	1	0.980	0.001	L	30	12.3	1112.646	1113.144	1114.124	1114.127	0
2	22102702	355	Low	10.0	Vague	2	34	33	7	13.4	30.2	4.2	33	7	34	30.2	4.2	13.4	1	0.717	0.001	R	34	13.4	1114.629	1117.087	1117.804	1117.807	0
2	22102702	356	Low	10.0	Precise	1	34	31	22	13.4	21.1	4.9	34	31	22	13.4	21.1	4.9	1	4.937	0.000	L	34	13.4	1118.309	1120.515	1125.452	1125.455	0
2	22102702	357	Low	10.0	Vague	2	34	33	9	13.4	30.2	6.8	9	34	33	6.8	13.4	30.2	1	0.834	0.000	D	34	13.4	1125.957	1128.306	1129.140	1129.143	0
2	22102702	358	Low	10.0	Precise	1	31	36	25	21.1	28.1	8.2	31	25	36	21.1	8.2	28.1	2	0.834	0.000	R	36	28.1	1129.645	1130.722	1131.556	1131.559	0
2	22102702	359	Low	10.0	Precise	1	30	32	22	12.3	12.5	4.9	22	30	32	4.9	12.3	12.5	1	1.073	0.001	D	30	12.3	1132.062	1134.987	1136.060	1136.063	0
2	22102702	360	Low	10.0	Vague	2	31	36	9	21.1	28.1	6.8	31	36	9	21.1	28.1	6.8	2	0.684	0.000	D	36	28.1	1136.565	1139.112	1139.796	1139.799	0
