Group	subID	trial	TimePressure	TimeConstraint	Vagueness	Vaguenesscode	ID1	ID2	ID3	V1	V2	V3	ID_left	ID_middle	ID_right	Bid_left	Bid_middle	Bid_right	chosenItem	RT	RTvariance	chosenPosition	chosenID	chosenValue	fixation_time	option_time	choice_time	feedback_time	timeout
1	22102505	1	Low	10.0	Vague	2	16	17	27	11.1	13.1	5.0	17	16	27	13.1	11.1	5.0	2	0.957	0.000	L	17	13.1	7.662	10.606	11.563	11.566	0
1	22102505	2	Low	10.0	Precise	1	10	16	3	9.8	11.1	4.3	3	10	16	4.3	9.8	11.1	2	1.277	0.000	R	16	11.1	12.072	13.070	14.347	14.350	0
1	22102505	3	Low	10.0	Precise	1	15	17	5	12.5	13.1	5.3	5	15	17	5.3	12.5	13.1	1	1.079	0.001	D	15	12.5	14.891	17.252	18.331	18.334	0
1	22102505	4	Low	10.0	Vague	2	18	15	29	10.1	12.5	3.9	29	15	18	3.9	12.5	10.1	2	0.648	0.000	D	15	12.5	18.838	20.891	21.539	21.542	0
1	22102505	5	Low	10.0	Vague	2	15	17	25	12.5	13.1	1.8	25	17	15	1.8	13.1	12.5	1	0.620	0.000	R	15	12.5	22.045	23.999	24.619	24.623	0
1	22102505	6	Low	10.0	Vague	2	18	15	23	10.1	12.5	0.3	23	18	15	0.3	10.1	12.5	2	0.630	0.000	R	15	12.5	25.129	27.229	27.859	27.861	0
1	22102505	7	Low	10.0	Precise	1	15	17	14	12.5	13.1	7.6	14	17	15	7.6	13.1	12.5	1	0.605	0.000	R	15	12.5	28.364	29.014	29.619	29.621	0
1	22102505	8	Low	10.0	Precise	1	10	16	11	9.8	11.1	1.5	16	11	10	11.1	1.5	9.8	1	1.082	0.001	R	10	9.8	30.124	31.617	32.699	32.702	0
1	22102505	9	Low	10.0	Precise	1	10	15	3	9.8	12.5	4.3	3	15	10	4.3	12.5	9.8	1	1.190	0.000	R	10	9.8	33.204	35.045	36.235	36.238	0
1	22102505	10	Low	10.0	Vague	2	13	18	23	7.8	10.1	0.3	18	13	23	10.1	7.8	0.3	2	0.790	0.000	L	18	10.1	36.741	37.988	38.779	38.782	0
1	22102505	11	Low	10.0	Precise	1	18	15	14	10.1	12.5	7.6	15	18	14	12.5	10.1	7.6	2	0.672	0.001	L	15	12.5	39.284	40.995	41.667	41.670	0
1	22102505	12	Low	10.0	Precise	1	18	15	12	10.1	12.5	0.0	15	18	12	12.5	10.1	0.0	2	0.604	0.000	L	15	12.5	42.172	43.287	43.891	43.893	0
1	22102505	13	Low	10.0	Precise	1	10	18	12	9.8	10.1	0.0	12	10	18	0.0	9.8	10.1	1	0.929	0.000	D	10	9.8	44.396	45.114	46.043	46.045	0
1	22102505	14	Low	10.0	Vague	2	10	17	25	9.8	13.1	1.8	25	10	17	1.8	9.8	13.1	1	0.752	0.000	D	10	9.8	46.548	49.091	49.843	49.845	0
1	22102505	15	Low	10.0	Vague	2	10	17	23	9.8	13.1	0.3	23	10	17	0.3	9.8	13.1	1	0.633	0.001	D	10	9.8	50.348	51.850	52.483	52.485	0
1	22102505	16	Low	10.0	Vague	2	13	16	29	7.8	11.1	3.9	29	16	13	3.9	11.1	7.8	2	0.738	0.000	D	16	11.1	52.988	55.249	55.987	55.989	0
1	22102505	17	Low	10.0	Precise	1	15	17	3	12.5	13.1	4.3	15	17	3	12.5	13.1	4.3	1	0.678	0.000	L	15	12.5	56.492	58.502	59.179	59.182	0
1	22102505	18	Low	10.0	Vague	2	18	17	29	10.1	13.1	3.9	18	29	17	10.1	3.9	13.1	2	1.019	0.001	R	17	13.1	59.684	61.385	62.403	62.406	0
1	22102505	19	Low	10.0	Vague	2	16	15	29	11.1	12.5	3.9	29	15	16	3.9	12.5	11.1	2	1.167	0.001	D	15	12.5	62.908	63.436	64.603	64.605	0
1	22102505	20	Low	10.0	Precise	1	13	17	12	7.8	13.1	0.0	12	17	13	0.0	13.1	7.8	3	0.632	0.000	L	12	0.0	65.108	66.659	67.291	67.294	0
1	22102505	21	Low	10.0	Vague	2	13	15	27	7.8	12.5	5.0	27	15	13	5.0	12.5	7.8	2	0.644	0.000	D	15	12.5	67.796	70.655	71.299	71.301	0
1	22102505	22	Low	10.0	Vague	2	15	17	29	12.5	13.1	3.9	15	17	29	12.5	13.1	3.9	1	0.643	0.000	L	15	12.5	71.804	73.264	73.907	73.909	0
1	22102505	23	Low	10.0	Vague	2	15	17	30	12.5	13.1	0.7	17	15	30	13.1	12.5	0.7	1	0.795	0.000	D	15	12.5	74.411	75.096	75.891	75.893	0
1	22102505	24	Low	10.0	Vague	2	18	15	24	10.1	12.5	1.2	24	15	18	1.2	12.5	10.1	2	0.618	0.000	D	15	12.5	76.396	79.305	79.923	79.925	0
1	22102505	25	Low	10.0	Vague	2	18	16	24	10.1	11.1	1.2	24	16	18	1.2	11.1	10.1	2	0.590	0.001	D	16	11.1	80.428	81.877	82.467	82.469	0
1	22102505	26	Low	10.0	Precise	1	13	17	14	7.8	13.1	7.6	17	13	14	13.1	7.8	7.6	2	1.158	0.000	L	17	13.1	82.972	83.981	85.139	85.141	0
1	22102505	27	Low	10.0	Precise	1	13	10	11	7.8	9.8	1.5	11	13	10	1.5	7.8	9.8	2	0.944	0.000	R	10	9.8	85.643	87.979	88.923	88.925	0
1	22102505	28	Low	10.0	Precise	1	13	15	11	7.8	12.5	1.5	13	15	11	7.8	12.5	1.5	2	0.753	0.000	D	15	12.5	89.428	90.138	90.891	90.893	0
1	22102505	29	Low	10.0	Precise	1	16	15	6	11.1	12.5	2.3	6	16	15	2.3	11.1	12.5	2	0.597	0.000	R	15	12.5	91.396	93.014	93.611	93.613	0
1	22102505	30	Low	10.0	Vague	2	18	16	25	10.1	11.1	1.8	16	18	25	11.1	10.1	1.8	1	0.882	0.000	D	18	10.1	94.116	96.225	97.107	97.109	0
1	22102505	31	Low	10.0	Precise	1	13	10	3	7.8	9.8	4.3	3	10	13	4.3	9.8	7.8	2	1.039	0.001	D	10	9.8	97.612	98.884	99.923	99.925	0
1	22102505	32	Low	10.0	Precise	1	13	16	6	7.8	11.1	2.3	13	16	6	7.8	11.1	2.3	3	0.798	0.000	R	6	2.3	100.428	102.372	103.171	103.173	0
1	22102505	33	Low	10.0	Precise	1	13	15	3	7.8	12.5	4.3	13	3	15	7.8	4.3	12.5	2	0.624	0.000	R	15	12.5	103.676	105.019	105.643	105.645	0
1	22102505	34	Low	10.0	Precise	1	13	15	12	7.8	12.5	0.0	12	13	15	0.0	7.8	12.5	2	0.579	0.000	R	15	12.5	106.148	107.200	107.779	107.781	0
1	22102505	35	Low	10.0	Vague	2	18	17	23	10.1	13.1	0.3	17	18	23	13.1	10.1	0.3	2	0.988	0.000	L	17	13.1	108.283	110.751	111.739	111.741	0
1	22102505	36	Low	10.0	Vague	2	10	15	23	9.8	12.5	0.3	10	15	23	9.8	12.5	0.3	2	0.780	0.000	D	15	12.5	112.244	114.215	114.995	114.997	0
1	22102505	37	Low	10.0	Precise	1	10	15	12	9.8	12.5	0.0	15	10	12	12.5	9.8	0.0	2	0.706	0.000	L	15	12.5	115.499	117.369	118.075	118.077	0
1	22102505	38	Low	10.0	Precise	1	18	16	5	10.1	11.1	5.3	5	18	16	5.3	10.1	11.1	3	1.214	0.001	L	5	5.3	118.579	121.469	122.683	122.686	0
1	22102505	39	Low	10.0	Vague	2	13	16	30	7.8	11.1	0.7	30	13	16	0.7	7.8	11.1	2	0.841	0.000	R	16	11.1	123.188	124.362	125.203	125.205	0
1	22102505	40	Low	10.0	Precise	1	13	17	6	7.8	13.1	2.3	6	13	17	2.3	7.8	13.1	2	1.263	0.001	R	17	13.1	125.708	127.773	129.035	129.038	0
1	22102505	41	Low	10.0	Precise	1	16	17	12	11.1	13.1	0.0	16	12	17	11.1	0.0	13.1	2	1.470	0.000	R	17	13.1	129.540	132.253	133.723	133.725	0
1	22102505	42	Low	10.0	Precise	1	10	18	11	9.8	10.1	1.5	10	11	18	9.8	1.5	10.1	2	2.032	0.000	R	18	10.1	134.227	135.739	137.771	137.773	0
1	22102505	43	Low	10.0	Precise	1	10	17	14	9.8	13.1	7.6	14	10	17	7.6	9.8	13.1	2	1.066	0.000	R	17	13.1	138.276	139.697	140.763	140.765	0
1	22102505	44	Low	10.0	Precise	1	16	15	14	11.1	12.5	7.6	14	16	15	7.6	11.1	12.5	2	0.986	0.000	R	15	12.5	141.267	144.129	145.115	145.117	0
1	22102505	45	Low	10.0	Vague	2	13	10	27	7.8	9.8	5.0	10	13	27	9.8	7.8	5.0	2	1.609	0.000	L	10	9.8	145.620	147.587	149.195	149.197	0
1	22102505	46	Low	10.0	Vague	2	13	18	29	7.8	10.1	3.9	18	29	13	10.1	3.9	7.8	3	1.700	0.000	D	29	3.9	149.700	150.567	152.267	152.269	0
1	22102505	47	Low	10.0	Vague	2	16	17	24	11.1	13.1	1.2	16	24	17	11.1	1.2	13.1	2	0.832	0.000	R	17	13.1	152.772	154.306	155.139	155.141	0
1	22102505	48	Low	10.0	Precise	1	16	15	5	11.1	12.5	5.3	15	5	16	12.5	5.3	11.1	2	1.318	0.001	L	15	12.5	155.644	156.389	157.707	157.709	0
1	22102505	49	Low	10.0	Precise	1	10	18	6	9.8	10.1	2.3	18	6	10	10.1	2.3	9.8	2	2.012	0.000	L	18	10.1	158.212	160.174	162.187	162.189	0
1	22102505	50	Low	10.0	Vague	2	13	17	23	7.8	13.1	0.3	17	13	23	13.1	7.8	0.3	2	1.032	0.001	L	17	13.1	162.692	164.739	165.771	165.773	0
1	22102505	51	Low	10.0	Precise	1	10	17	11	9.8	13.1	1.5	11	10	17	1.5	9.8	13.1	2	0.663	0.000	R	17	13.1	166.276	168.436	169.099	169.101	0
1	22102505	52	Low	10.0	Precise	1	15	17	6	12.5	13.1	2.3	6	15	17	2.3	12.5	13.1	2	0.739	0.001	R	17	13.1	169.604	172.033	172.771	172.774	0
1	22102505	53	Low	10.0	Vague	2	16	17	25	11.1	13.1	1.8	25	17	16	1.8	13.1	11.1	2	0.876	0.000	D	17	13.1	173.276	174.967	175.843	175.845	0
1	22102505	54	Low	10.0	Vague	2	10	16	24	9.8	11.1	1.2	24	16	10	1.2	11.1	9.8	1	1.085	0.000	R	10	9.8	176.348	178.869	179.955	179.957	0
1	22102505	55	Low	10.0	Precise	1	10	18	3	9.8	10.1	4.3	10	3	18	9.8	4.3	10.1	2	1.042	0.000	R	18	10.1	180.460	181.905	182.947	182.949	0
1	22102505	56	Low	10.0	Precise	1	13	16	5	7.8	11.1	5.3	16	5	13	11.1	5.3	7.8	3	1.010	0.000	D	5	5.3	183.452	185.129	186.139	186.141	0
1	22102505	57	Low	10.0	Precise	1	13	16	12	7.8	11.1	0.0	13	16	12	7.8	11.1	0.0	1	1.462	0.001	L	13	7.8	186.643	188.013	189.475	189.477	0
1	22102505	58	Low	10.0	Vague	2	13	15	30	7.8	12.5	0.7	30	13	15	0.7	7.8	12.5	2	0.674	0.001	R	15	12.5	189.980	192.778	193.451	193.454	0
1	22102505	59	Low	10.0	Vague	2	18	15	27	10.1	12.5	5.0	27	18	15	5.0	10.1	12.5	2	0.767	0.000	R	15	12.5	193.956	195.939	196.707	196.709	0
1	22102505	60	Low	10.0	Precise	1	10	17	12	9.8	13.1	0.0	10	12	17	9.8	0.0	13.1	2	0.830	0.001	R	17	13.1	197.211	199.958	200.787	200.790	0
1	22102505	61	Low	10.0	Precise	1	15	17	12	12.5	13.1	0.0	17	15	12	13.1	12.5	0.0	2	0.789	0.000	L	17	13.1	209.949	211.325	212.115	212.117	0
1	22102505	62	Low	10.0	Precise	1	13	17	5	7.8	13.1	5.3	13	5	17	7.8	5.3	13.1	2	0.711	0.000	R	17	13.1	212.619	215.068	215.779	215.781	0
1	22102505	63	Low	10.0	Vague	2	10	17	27	9.8	13.1	5.0	17	27	10	13.1	5.0	9.8	2	0.799	0.000	L	17	13.1	216.284	218.828	219.627	219.629	0
1	22102505	64	Low	10.0	Precise	1	16	17	3	11.1	13.1	4.3	16	3	17	11.1	4.3	13.1	2	0.828	0.000	R	17	13.1	220.131	223.063	223.891	223.893	0
1	22102505	65	Low	10.0	Precise	1	10	17	5	9.8	13.1	5.3	17	5	10	13.1	5.3	9.8	2	0.701	0.001	L	17	13.1	224.396	226.414	227.115	227.117	0
1	22102505	66	Low	10.0	Vague	2	16	15	27	11.1	12.5	5.0	27	15	16	5.0	12.5	11.1	1	0.675	0.001	R	16	11.1	227.620	228.912	229.587	229.589	0
1	22102505	67	Low	10.0	Vague	2	10	18	29	9.8	10.1	3.9	18	29	10	10.1	3.9	9.8	3	1.184	0.000	D	29	3.9	230.092	231.747	232.931	232.933	0
1	22102505	68	Low	10.0	Vague	2	18	16	29	10.1	11.1	3.9	18	16	29	10.1	11.1	3.9	3	1.377	0.001	R	29	3.9	233.436	236.154	237.531	237.533	0
1	22102505	69	Low	10.0	Precise	1	16	17	5	11.1	13.1	5.3	5	17	16	5.3	13.1	11.1	2	1.321	0.000	D	17	13.1	238.036	240.930	242.251	242.253	0
1	22102505	70	Low	10.0	Vague	2	10	15	29	9.8	12.5	3.9	10	15	29	9.8	12.5	3.9	3	0.916	0.000	R	29	3.9	242.756	244.118	245.035	245.038	0
1	22102505	71	Low	10.0	Vague	2	13	10	23	7.8	9.8	0.3	13	10	23	7.8	9.8	0.3	2	1.206	0.001	D	10	9.8	245.541	248.341	249.547	249.550	0
1	22102505	72	Low	10.0	Precise	1	13	18	3	7.8	10.1	4.3	18	3	13	10.1	4.3	7.8	2	1.531	0.000	L	18	10.1	250.052	251.864	253.395	253.397	0
1	22102505	73	Low	10.0	Precise	1	18	17	14	10.1	13.1	7.6	14	17	18	7.6	13.1	10.1	3	0.683	0.000	L	14	7.6	253.900	254.832	255.515	255.517	0
1	22102505	74	Low	10.0	Precise	1	10	15	11	9.8	12.5	1.5	11	15	10	1.5	12.5	9.8	3	0.810	0.000	L	11	1.5	256.020	258.201	259.011	259.013	0
1	22102505	75	Low	10.0	Vague	2	10	18	24	9.8	10.1	1.2	24	10	18	1.2	9.8	10.1	2	0.805	0.001	R	18	10.1	259.516	261.910	262.715	262.718	0
1	22102505	76	Low	10.0	Vague	2	16	15	24	11.1	12.5	1.2	16	15	24	11.1	12.5	1.2	2	0.719	0.001	D	15	12.5	263.220	265.532	266.251	266.255	0
1	22102505	77	Low	10.0	Precise	1	13	18	14	7.8	10.1	7.6	18	14	13	10.1	7.6	7.8	2	0.834	0.000	L	18	10.1	266.758	269.113	269.947	269.949	0
1	22102505	78	Low	10.0	Vague	2	13	16	25	7.8	11.1	1.8	16	13	25	11.1	7.8	1.8	3	1.591	0.001	R	25	1.8	270.451	272.692	274.283	274.286	0
1	22102505	79	Low	10.0	Precise	1	18	17	5	10.1	13.1	5.3	18	17	5	10.1	13.1	5.3	3	1.068	0.000	R	5	5.3	274.788	277.607	278.675	278.677	0
1	22102505	80	Low	10.0	Vague	2	13	15	25	7.8	12.5	1.8	13	25	15	7.8	1.8	12.5	2	0.821	0.000	R	15	12.5	279.180	280.366	281.187	281.189	0
1	22102505	81	Low	10.0	Precise	1	18	17	3	10.1	13.1	4.3	17	18	3	13.1	10.1	4.3	2	1.114	0.000	L	17	13.1	281.692	282.778	283.891	283.893	0
1	22102505	82	Low	10.0	Precise	1	18	16	3	10.1	11.1	4.3	16	3	18	11.1	4.3	10.1	1	0.864	0.001	R	18	10.1	284.396	285.483	286.347	286.349	0
1	22102505	83	Low	10.0	Vague	2	16	15	25	11.1	12.5	1.8	25	16	15	1.8	11.1	12.5	2	0.603	0.001	R	15	12.5	286.851	288.256	288.859	288.861	0
1	22102505	84	Low	10.0	Vague	2	13	17	24	7.8	13.1	1.2	24	13	17	1.2	7.8	13.1	2	0.741	0.000	R	17	13.1	289.364	290.542	291.283	291.285	0
1	22102505	85	Low	10.0	Vague	2	15	17	24	12.5	13.1	1.2	15	17	24	12.5	13.1	1.2	1	0.745	0.000	L	15	12.5	291.788	293.026	293.771	293.773	0
1	22102505	86	Low	10.0	Precise	1	16	15	3	11.1	12.5	4.3	16	3	15	11.1	4.3	12.5	2	0.563	0.000	R	15	12.5	294.276	296.392	296.955	296.957	0
1	22102505	87	Low	10.0	Precise	1	16	17	14	11.1	13.1	7.6	16	17	14	11.1	13.1	7.6	3	0.653	0.000	R	14	7.6	297.460	300.166	300.819	300.822	0
1	22102505	88	Low	10.0	Precise	1	13	10	6	7.8	9.8	2.3	10	6	13	9.8	2.3	7.8	3	1.156	0.001	D	6	2.3	301.324	303.807	304.963	304.966	0
1	22102505	89	Low	10.0	Precise	1	10	15	14	9.8	12.5	7.6	15	14	10	12.5	7.6	9.8	2	0.741	0.000	L	15	12.5	305.468	308.286	309.027	309.029	0
1	22102505	90	Low	10.0	Precise	1	16	17	6	11.1	13.1	2.3	17	6	16	13.1	2.3	11.1	2	1.236	0.000	L	17	13.1	309.532	312.303	313.539	313.541	0
1	22102505	91	Low	10.0	Vague	2	13	17	30	7.8	13.1	0.7	30	17	13	0.7	13.1	7.8	2	1.115	0.000	D	17	13.1	314.044	315.048	316.163	316.166	0
1	22102505	92	Low	10.0	Precise	1	10	16	6	9.8	11.1	2.3	10	6	16	9.8	2.3	11.1	1	1.360	0.000	L	10	9.8	316.668	318.851	320.211	320.213	0
1	22102505	93	Low	10.0	Vague	2	13	17	29	7.8	13.1	3.9	13	17	29	7.8	13.1	3.9	2	1.178	0.000	D	17	13.1	320.716	323.705	324.883	324.885	0
1	22102505	94	Low	10.0	Vague	2	10	16	27	9.8	11.1	5.0	16	27	10	11.1	5.0	9.8	1	1.389	0.000	R	10	9.8	325.388	327.630	329.019	329.022	0
1	22102505	95	Low	10.0	Vague	2	10	16	23	9.8	11.1	0.3	16	23	10	11.1	0.3	9.8	1	1.044	0.001	R	10	9.8	329.524	331.375	332.419	332.422	0
1	22102505	96	Low	10.0	Vague	2	10	16	29	9.8	11.1	3.9	16	10	29	11.1	9.8	3.9	3	0.725	0.001	R	29	3.9	332.924	335.766	336.491	336.494	0
1	22102505	97	Low	10.0	Vague	2	18	16	23	10.1	11.1	0.3	16	18	23	11.1	10.1	0.3	1	0.969	0.001	D	18	10.1	336.996	339.450	340.419	340.422	0
1	22102505	98	Low	10.0	Vague	2	18	17	24	10.1	13.1	1.2	18	17	24	10.1	13.1	1.2	1	0.725	0.001	L	18	10.1	340.924	343.502	344.227	344.230	0
1	22102505	99	Low	10.0	Precise	1	16	15	12	11.1	12.5	0.0	16	15	12	11.1	12.5	0.0	2	1.130	0.001	D	15	12.5	344.732	345.585	346.715	346.717	0
1	22102505	100	Low	10.0	Vague	2	13	16	24	7.8	11.1	1.2	24	13	16	1.2	7.8	11.1	2	1.299	0.000	R	16	11.1	347.220	348.760	350.059	350.061	0
1	22102505	101	Low	10.0	Precise	1	10	16	14	9.8	11.1	7.6	10	14	16	9.8	7.6	11.1	3	0.886	0.001	D	14	7.6	350.564	351.710	352.595	352.598	0
1	22102505	102	Low	10.0	Vague	2	10	17	24	9.8	13.1	1.2	10	24	17	9.8	1.2	13.1	2	1.092	0.000	R	17	13.1	353.100	353.863	354.955	354.957	0
1	22102505	103	Low	10.0	Vague	2	10	15	27	9.8	12.5	5.0	15	10	27	12.5	9.8	5.0	2	0.695	0.000	L	15	12.5	355.460	356.316	357.011	357.013	0
1	22102505	104	Low	10.0	Vague	2	18	15	30	10.1	12.5	0.7	15	30	18	12.5	0.7	10.1	2	0.600	0.000	L	15	12.5	357.516	359.956	360.555	360.557	0
1	22102505	105	Low	10.0	Precise	1	18	16	12	10.1	11.1	0.0	18	16	12	10.1	11.1	0.0	1	1.434	0.000	L	18	10.1	361.060	362.233	363.667	363.669	0
1	22102505	106	Low	10.0	Vague	2	10	15	30	9.8	12.5	0.7	15	10	30	12.5	9.8	0.7	2	0.665	0.000	L	15	12.5	364.172	366.218	366.883	366.885	0
1	22102505	107	Low	10.0	Vague	2	18	16	30	10.1	11.1	0.7	18	16	30	10.1	11.1	0.7	1	1.034	0.000	L	18	10.1	367.388	368.929	369.963	369.965	0
1	22102505	108	Low	10.0	Precise	1	13	10	12	7.8	9.8	0.0	13	10	12	7.8	9.8	0.0	2	1.654	0.001	D	10	9.8	370.468	371.774	373.427	373.429	0
1	22102505	109	Low	10.0	Precise	1	13	16	11	7.8	11.1	1.5	11	16	13	1.5	11.1	7.8	3	0.751	0.001	L	11	1.5	373.932	376.821	377.571	377.574	0
1	22102505	110	Low	10.0	Vague	2	18	17	30	10.1	13.1	0.7	30	18	17	0.7	10.1	13.1	1	0.833	0.001	D	18	10.1	378.076	380.738	381.571	381.574	0
1	22102505	111	Low	10.0	Vague	2	13	18	24	7.8	10.1	1.2	13	18	24	7.8	10.1	1.2	2	0.929	0.000	D	18	10.1	382.076	384.050	384.979	384.982	0
1	22102505	112	Low	10.0	Precise	1	18	15	6	10.1	12.5	2.3	6	18	15	2.3	10.1	12.5	2	0.707	0.000	R	15	12.5	385.484	387.680	388.387	388.389	0
1	22102505	113	Low	10.0	Precise	1	10	17	6	9.8	13.1	2.3	10	17	6	9.8	13.1	2.3	2	0.880	0.000	D	17	13.1	388.892	391.643	392.523	392.525	0
1	22102505	114	Low	10.0	Precise	1	13	18	12	7.8	10.1	0.0	18	13	12	10.1	7.8	0.0	2	0.787	0.000	L	18	10.1	393.028	394.024	394.811	394.813	0
1	22102505	115	Low	10.0	Vague	2	18	15	25	10.1	12.5	1.8	25	15	18	1.8	12.5	10.1	2	1.151	0.001	D	15	12.5	395.316	398.028	399.179	399.182	0
1	22102505	116	Low	10.0	Vague	2	10	17	29	9.8	13.1	3.9	29	17	10	3.9	13.1	9.8	3	0.777	0.000	L	29	3.9	399.684	402.498	403.275	403.277	0
1	22102505	117	Low	10.0	Precise	1	13	17	3	7.8	13.1	4.3	3	17	13	4.3	13.1	7.8	2	0.719	0.000	D	17	13.1	403.780	405.444	406.163	406.165	0
1	22102505	118	Low	10.0	Precise	1	18	16	11	10.1	11.1	1.5	16	18	11	11.1	10.1	1.5	1	0.961	0.001	D	18	10.1	406.668	409.130	410.091	410.094	0
1	22102505	119	Low	10.0	Precise	1	10	17	3	9.8	13.1	4.3	3	10	17	4.3	9.8	13.1	2	0.647	0.001	R	17	13.1	410.596	412.996	413.643	413.646	0
1	22102505	120	Low	10.0	Vague	2	13	18	25	7.8	10.1	1.8	13	25	18	7.8	1.8	10.1	2	1.235	0.000	R	18	10.1	414.148	415.657	416.891	416.894	0
1	22102505	121	Low	10.0	Vague	2	13	17	25	7.8	13.1	1.8	25	17	13	1.8	13.1	7.8	2	0.703	0.001	D	17	13.1	425.463	428.069	428.771	428.773	0
1	22102505	122	Low	10.0	Vague	2	10	15	25	9.8	12.5	1.8	25	15	10	1.8	12.5	9.8	2	0.628	0.000	D	15	12.5	429.276	431.439	432.067	432.069	0
1	22102505	123	Low	10.0	Vague	2	16	15	23	11.1	12.5	0.3	16	15	23	11.1	12.5	0.3	2	0.637	0.001	D	15	12.5	432.572	433.534	434.171	434.173	0
1	22102505	124	Low	10.0	Vague	2	13	15	29	7.8	12.5	3.9	15	13	29	12.5	7.8	3.9	2	0.877	0.000	L	15	12.5	434.676	435.422	436.299	436.301	0
1	22102505	125	Low	10.0	Vague	2	13	18	30	7.8	10.1	0.7	13	30	18	7.8	0.7	10.1	1	1.282	0.000	L	13	7.8	436.804	439.769	441.051	441.053	0
1	22102505	126	Low	10.0	Precise	1	13	15	14	7.8	12.5	7.6	13	15	14	7.8	12.5	7.6	3	0.865	0.000	R	14	7.6	441.556	443.506	444.371	444.373	0
1	22102505	127	Low	10.0	Precise	1	18	16	6	10.1	11.1	2.3	18	16	6	10.1	11.1	2.3	1	0.889	0.001	L	18	10.1	444.876	446.275	447.163	447.166	0
1	22102505	128	Low	10.0	Precise	1	16	17	11	11.1	13.1	1.5	17	11	16	13.1	1.5	11.1	3	1.168	0.000	D	11	1.5	447.668	449.155	450.323	450.326	0
1	22102505	129	Low	10.0	Precise	1	13	18	5	7.8	10.1	5.3	18	5	13	10.1	5.3	7.8	3	0.941	0.000	D	5	5.3	450.828	452.039	452.979	452.982	0
1	22102505	130	Low	10.0	Vague	2	10	18	25	9.8	10.1	1.8	10	18	25	9.8	10.1	1.8	2	0.953	0.001	D	18	10.1	453.484	455.642	456.595	456.598	0
1	22102505	131	Low	10.0	Vague	2	10	16	30	9.8	11.1	0.7	16	30	10	11.1	0.7	9.8	1	1.084	0.000	R	10	9.8	457.100	459.496	460.579	460.582	0
1	22102505	132	Low	10.0	Vague	2	15	17	27	12.5	13.1	5.0	27	17	15	5.0	13.1	12.5	1	0.610	0.001	R	15	12.5	461.084	462.065	462.675	462.678	0
1	22102505	133	Low	10.0	Vague	2	13	15	24	7.8	12.5	1.2	15	24	13	12.5	1.2	7.8	2	0.843	0.000	L	15	12.5	463.180	463.720	464.563	464.565	0
1	22102505	134	Low	10.0	Precise	1	13	17	11	7.8	13.1	1.5	13	17	11	7.8	13.1	1.5	1	0.577	0.000	L	13	7.8	465.068	466.882	467.459	467.461	0
1	22102505	135	Low	10.0	Precise	1	10	15	6	9.8	12.5	2.3	10	15	6	9.8	12.5	2.3	2	0.589	0.000	D	15	12.5	467.964	469.846	470.435	470.439	0
1	22102505	136	Low	10.0	Precise	1	15	17	11	12.5	13.1	1.5	11	17	15	1.5	13.1	12.5	1	0.682	0.001	R	15	12.5	470.941	472.281	472.963	472.965	0
1	22102505	137	Low	10.0	Vague	2	10	18	23	9.8	10.1	0.3	18	10	23	10.1	9.8	0.3	2	1.265	0.000	L	18	10.1	473.468	474.298	475.563	475.565	0
1	22102505	138	Low	10.0	Vague	2	10	18	27	9.8	10.1	5.0	27	18	10	5.0	10.1	9.8	1	1.105	0.000	R	10	9.8	476.067	476.962	478.067	478.070	0
1	22102505	139	Low	10.0	Precise	1	13	15	6	7.8	12.5	2.3	13	15	6	7.8	12.5	2.3	2	0.696	0.001	D	15	12.5	478.572	480.308	481.003	481.006	0
1	22102505	140	Low	10.0	Vague	2	13	16	27	7.8	11.1	5.0	27	16	13	5.0	11.1	7.8	2	1.206	0.001	D	16	11.1	481.508	483.725	484.931	484.934	0
1	22102505	141	Low	10.0	Precise	1	13	18	11	7.8	10.1	1.5	18	13	11	10.1	7.8	1.5	1	0.803	0.000	D	13	7.8	485.436	486.456	487.259	487.262	0
1	22102505	142	Low	10.0	Precise	1	10	15	5	9.8	12.5	5.3	15	10	5	12.5	9.8	5.3	2	0.769	0.000	L	15	12.5	487.764	490.218	490.987	490.989	0
1	22102505	143	Low	10.0	Vague	2	10	17	30	9.8	13.1	0.7	17	10	30	13.1	9.8	0.7	2	1.028	0.001	L	17	13.1	491.492	492.367	493.395	493.397	0
1	22102505	144	Low	10.0	Precise	1	18	17	11	10.1	13.1	1.5	17	11	18	13.1	1.5	10.1	3	0.827	0.000	D	11	1.5	493.900	496.809	497.635	497.637	0
1	22102505	145	Low	10.0	Vague	2	13	18	27	7.8	10.1	5.0	18	13	27	10.1	7.8	5.0	2	1.113	0.001	L	18	10.1	498.140	499.274	500.387	500.389	0
1	22102505	146	Low	10.0	Vague	2	13	17	27	7.8	13.1	5.0	17	27	13	13.1	5.0	7.8	2	0.724	0.000	L	17	13.1	500.892	503.383	504.107	504.109	0
1	22102505	147	Low	10.0	Precise	1	13	10	14	7.8	9.8	7.6	10	13	14	9.8	7.8	7.6	3	0.873	0.000	R	14	7.6	504.612	506.106	506.979	506.981	0
1	22102505	148	Low	10.0	Vague	2	16	15	30	11.1	12.5	0.7	15	30	16	12.5	0.7	11.1	2	0.569	0.000	L	15	12.5	507.484	508.794	509.363	509.365	0
1	22102505	149	Low	10.0	Precise	1	18	17	6	10.1	13.1	2.3	17	18	6	13.1	10.1	2.3	2	0.810	0.000	L	17	13.1	509.868	511.282	512.091	512.094	0
1	22102505	150	Low	10.0	Vague	2	10	15	24	9.8	12.5	1.2	10	15	24	9.8	12.5	1.2	2	0.705	0.000	D	15	12.5	512.596	514.674	515.379	515.381	0
1	22102505	151	Low	10.0	Precise	1	13	10	5	7.8	9.8	5.3	5	10	13	5.3	9.8	7.8	3	0.925	0.001	L	5	5.3	515.884	517.063	517.987	517.990	0
1	22102505	152	Low	10.0	Precise	1	18	15	5	10.1	12.5	5.3	18	5	15	10.1	5.3	12.5	2	0.889	0.000	R	15	12.5	518.492	520.891	521.779	521.781	0
1	22102505	153	Low	10.0	Vague	2	10	16	25	9.8	11.1	1.8	25	16	10	1.8	11.1	9.8	1	0.964	0.000	R	10	9.8	522.284	523.735	524.699	524.701	0
1	22102505	154	Low	10.0	Vague	2	10	18	30	9.8	10.1	0.7	30	10	18	0.7	9.8	10.1	1	0.982	0.000	D	10	9.8	525.204	526.901	527.883	527.886	0
1	22102505	155	Low	10.0	Precise	1	10	18	14	9.8	10.1	7.6	10	14	18	9.8	7.6	10.1	2	0.787	0.000	R	18	10.1	528.389	530.625	531.411	531.414	0
1	22102505	156	Low	10.0	Vague	2	16	17	29	11.1	13.1	3.9	29	16	17	3.9	11.1	13.1	3	1.437	0.000	L	29	3.9	531.916	533.142	534.579	534.582	0
1	22102505	157	Low	10.0	Vague	2	13	16	23	7.8	11.1	0.3	13	16	23	7.8	11.1	0.3	1	1.189	0.000	L	13	7.8	535.084	537.294	538.483	538.485	0
1	22102505	158	Low	10.0	Precise	1	10	16	5	9.8	11.1	5.3	16	5	10	11.1	5.3	9.8	3	0.979	0.000	D	5	5.3	538.989	539.544	540.523	540.526	0
1	22102505	159	Low	10.0	Vague	2	18	17	25	10.1	13.1	1.8	25	17	18	1.8	13.1	10.1	2	0.776	0.000	D	17	13.1	541.028	542.043	542.819	542.822	0
1	22102505	160	Low	10.0	Vague	2	13	10	30	7.8	9.8	0.7	10	30	13	9.8	0.7	7.8	1	1.125	0.000	R	13	7.8	543.325	544.510	545.635	545.637	0
1	22102505	161	Low	10.0	Precise	1	13	16	3	7.8	11.1	4.3	13	16	3	7.8	11.1	4.3	1	1.167	0.001	L	13	7.8	546.140	548.996	550.163	550.166	0
1	22102505	162	Low	10.0	Vague	2	18	16	27	10.1	11.1	5.0	16	18	27	11.1	10.1	5.0	1	1.162	0.000	D	18	10.1	550.668	551.249	552.411	552.413	0
1	22102505	163	Low	10.0	Vague	2	13	15	23	7.8	12.5	0.3	15	13	23	12.5	7.8	0.3	2	0.692	0.000	L	15	12.5	552.916	555.735	556.427	556.429	0
1	22102505	164	Low	10.0	Precise	1	13	15	5	7.8	12.5	5.3	15	13	5	12.5	7.8	5.3	2	0.745	0.001	L	15	12.5	556.932	558.715	559.459	559.462	0
1	22102505	165	Low	10.0	Precise	1	10	16	12	9.8	11.1	0.0	10	12	16	9.8	0.0	11.1	1	0.925	0.001	L	10	9.8	559.964	560.895	561.819	561.822	0
1	22102505	166	Low	10.0	Precise	1	18	16	14	10.1	11.1	7.6	16	14	18	11.1	7.6	10.1	3	0.796	0.000	D	14	7.6	562.324	562.832	563.627	563.630	0
1	22102505	167	Low	10.0	Precise	1	18	15	3	10.1	12.5	4.3	15	18	3	12.5	10.1	4.3	2	0.554	0.000	L	15	12.5	564.132	565.049	565.603	565.605	0
1	22102505	168	Low	10.0	Precise	1	18	15	11	10.1	12.5	1.5	18	15	11	10.1	12.5	1.5	2	0.669	0.001	D	15	12.5	566.108	567.110	567.779	567.782	0
1	22102505	169	Low	10.0	Vague	2	13	10	24	7.8	9.8	1.2	13	24	10	7.8	1.2	9.8	1	1.679	0.000	L	13	7.8	568.284	570.900	572.579	572.582	0
1	22102505	170	Low	10.0	Vague	2	16	17	30	11.1	13.1	0.7	16	30	17	11.1	0.7	13.1	1	0.851	0.000	L	16	11.1	573.084	575.216	576.067	576.070	0
1	22102505	171	Low	10.0	Precise	1	16	15	11	11.1	12.5	1.5	16	15	11	11.1	12.5	1.5	2	0.658	0.001	D	15	12.5	576.572	579.177	579.835	579.838	0
1	22102505	172	Low	10.0	Precise	1	13	16	14	7.8	11.1	7.6	16	14	13	11.1	7.6	7.8	3	0.831	0.000	D	14	7.6	580.340	581.372	582.203	582.206	0
1	22102505	173	Low	10.0	Vague	2	15	17	23	12.5	13.1	0.3	17	23	15	13.1	0.3	12.5	1	0.665	0.000	R	15	12.5	582.708	584.722	585.387	585.389	0
1	22102505	174	Low	10.0	Precise	1	18	17	12	10.1	13.1	0.0	18	17	12	10.1	13.1	0.0	1	0.879	0.000	L	18	10.1	585.892	587.932	588.811	588.814	0
1	22102505	175	Low	10.0	Vague	2	16	17	23	11.1	13.1	0.3	23	17	16	0.3	13.1	11.1	2	0.758	0.001	D	17	13.1	589.316	590.878	591.635	591.638	0
1	22102505	176	Low	10.0	Vague	2	13	10	29	7.8	9.8	3.9	13	10	29	7.8	9.8	3.9	3	1.588	0.001	R	29	3.9	592.140	595.111	596.699	596.702	0
1	22102505	177	Low	10.0	Vague	2	18	17	27	10.1	13.1	5.0	17	27	18	13.1	5.0	10.1	2	0.872	0.001	L	17	13.1	597.204	598.748	599.620	599.622	0
1	22102505	178	Low	10.0	Vague	2	13	10	25	7.8	9.8	1.8	13	25	10	7.8	1.8	9.8	2	0.858	0.001	R	10	9.8	600.124	601.985	602.843	602.846	0
1	22102505	179	Low	10.0	Precise	1	10	18	5	9.8	10.1	5.3	18	10	5	10.1	9.8	5.3	2	0.880	0.000	L	18	10.1	603.348	604.387	605.267	605.270	0
1	22102505	180	Low	10.0	Precise	1	13	18	6	7.8	10.1	2.3	18	13	6	10.1	7.8	2.3	2	1.269	0.000	L	18	10.1	605.772	607.542	608.811	608.813	0
1	22102505	181	High	1.5	Precise	1	10	16	4	9.8	11.1	7.8	4	10	16	7.8	9.8	11.1	1	0.591	0.000	D	10	9.8	634.940	636.668	637.259	637.261	0
1	22102505	182	High	1.5	Precise	1	13	16	2	7.8	11.1	0.7	2	13	16	0.7	7.8	11.1	3	0.667	0.001	L	2	0.7	637.764	640.009	640.675	640.678	0
1	22102505	183	High	1.5	Vague	2	10	17	21	9.8	13.1	0.7	10	21	17	9.8	0.7	13.1	1	0.921	0.001	L	10	9.8	641.180	642.154	643.075	643.078	0
1	22102505	184	High	1.5	Precise	1	15	17	4	12.5	13.1	7.8	4	17	15	7.8	13.1	12.5	1	0.610	0.001	R	15	12.5	643.580	644.937	645.548	645.550	0
1	22102505	185	High	1.5	Precise	1	13	15	8	7.8	12.5	5.7	15	13	8	12.5	7.8	5.7	2	0.520	0.000	L	15	12.5	646.052	648.507	649.027	649.029	0
1	22102505	186	High	1.5	Precise	1	10	17	1	9.8	13.1	1.7	17	10	1	13.1	9.8	1.7	1	0.855	0.001	D	10	9.8	649.532	650.684	651.539	651.542	0
1	22102505	187	High	1.5	Precise	1	10	16	2	9.8	11.1	0.7	2	10	16	0.7	9.8	11.1	1	0.944	0.000	D	10	9.8	652.044	652.563	653.507	653.509	0
1	22102505	188	High	1.5	Vague	2	10	17	19	9.8	13.1	1.1	17	19	10	13.1	1.1	9.8	2	0.586	0.000	L	17	13.1	654.012	656.809	657.395	657.397	0
1	22102505	189	High	1.5	Precise	1	15	17	7	12.5	13.1	4.4	17	7	15	13.1	4.4	12.5	1	0.679	0.000	R	15	12.5	657.900	658.739	659.419	659.422	0
1	22102505	190	High	1.5	Vague	2	10	16	36	9.8	11.1	4.3	16	36	10	11.1	4.3	9.8	1	0.892	0.000	R	10	9.8	659.924	662.271	663.163	663.165	0
1	22102505	191	High	1.5	Precise	1	18	15	7	10.1	12.5	4.4	15	18	7	12.5	10.1	4.4	2	0.617	0.000	L	15	12.5	663.668	665.322	665.939	665.942	0
1	22102505	192	High	1.5	Precise	1	10	16	8	9.8	11.1	5.7	10	16	8	9.8	11.1	5.7	1	0.822	0.000	L	10	9.8	666.444	669.245	670.067	670.070	0
1	22102505	193	High	1.5	Vague	2	18	15	19	10.1	12.5	1.1	18	15	19	10.1	12.5	1.1	2	0.632	0.000	D	15	12.5	670.573	672.004	672.635	672.638	0
1	22102505	194	High	1.5	Precise	1	18	17	2	10.1	13.1	0.7	2	17	18	0.7	13.1	10.1	3	0.614	0.000	L	2	0.7	673.140	675.589	676.203	676.206	0
1	22102505	195	High	1.5	Vague	2	10	16	20	9.8	11.1	1.4	16	10	20	11.1	9.8	1.4	1	0.875	0.000	D	10	9.8	676.708	677.224	678.099	678.101	0
1	22102505	196	High	1.5	Precise	1	10	17	7	9.8	13.1	4.4	17	10	7	13.1	9.8	4.4	2	0.794	0.001	L	17	13.1	678.604	679.738	680.531	680.534	0
1	22102505	197	High	1.5	Precise	1	16	15	4	11.1	12.5	7.8	16	4	15	11.1	7.8	12.5	2	0.538	0.000	R	15	12.5	681.036	683.529	684.067	684.070	0
1	22102505	198	High	1.5	Vague	2	13	16	19	7.8	11.1	1.1	19	13	16	1.1	7.8	11.1	1	0.914	0.000	D	13	7.8	684.572	686.537	687.451	687.454	0
1	22102505	199	High	1.5	Vague	2	16	15	22	11.1	12.5	3.1	16	22	15	11.1	3.1	12.5	2	0.665	0.001	R	15	12.5	687.956	690.523	691.188	691.190	0
1	22102505	200	High	1.5	Precise	1	10	18	4	9.8	10.1	7.8	10	4	18	9.8	7.8	10.1	1	0.695	0.000	L	10	9.8	691.692	692.412	693.107	693.109	0
1	22102505	201	High	1.5	Precise	1	16	17	9	11.1	13.1	3.5	17	16	9	13.1	11.1	3.5	2	0.682	0.000	L	17	13.1	693.612	695.753	696.435	696.438	0
1	22102505	202	High	1.5	Vague	2	10	17	20	9.8	13.1	1.4	20	17	10	1.4	13.1	9.8	2	0.765	0.000	D	17	13.1	696.940	698.375	699.140	699.142	0
1	22102505	203	High	1.5	Precise	1	16	17	8	11.1	13.1	5.7	17	16	8	13.1	11.1	5.7	2	0.605	0.000	L	17	13.1	699.644	702.390	702.995	702.998	0
1	22102505	204	High	1.5	Vague	2	10	15	36	9.8	12.5	4.3	36	15	10	4.3	12.5	9.8	2	0.752	0.000	D	15	12.5	703.500	704.628	705.379	705.382	0
1	22102505	205	High	1.5	Vague	2	18	16	33	10.1	11.1	0.2	18	33	16	10.1	0.2	11.1	1	0.892	0.000	L	18	10.1	705.884	708.567	709.459	709.461	0
1	22102505	206	High	1.5	Precise	1	16	15	2	11.1	12.5	0.7	2	16	15	0.7	11.1	12.5	2	0.605	0.000	R	15	12.5	709.964	711.311	711.915	711.917	0
1	22102505	207	High	1.5	Precise	1	15	17	1	12.5	13.1	1.7	15	17	1	12.5	13.1	1.7	1	0.660	0.001	L	15	12.5	712.420	713.399	714.059	714.062	0
1	22102505	208	High	1.5	Vague	2	18	17	19	10.1	13.1	1.1	17	18	19	13.1	10.1	1.1	2	0.790	0.000	L	17	13.1	714.564	717.421	718.211	718.214	0
1	22102505	209	High	1.5	Precise	1	13	10	7	7.8	9.8	4.4	13	10	7	7.8	9.8	4.4	3	0.645	0.000	R	7	4.4	718.716	719.270	719.915	719.917	0
1	22102505	210	High	1.5	Vague	2	10	16	19	9.8	11.1	1.1	16	19	10	11.1	1.1	9.8	1	1.132	0.000	R	10	9.8	720.420	722.623	723.755	723.757	0
1	22102505	211	High	1.5	Vague	2	16	15	33	11.1	12.5	0.2	33	15	16	0.2	12.5	11.1	2	0.645	0.001	D	15	12.5	724.260	725.711	726.355	726.358	0
1	22102505	212	High	1.5	Vague	2	15	17	36	12.5	13.1	4.3	17	15	36	13.1	12.5	4.3	1	0.641	0.001	D	15	12.5	726.860	728.307	728.948	728.950	0
1	22102505	213	High	1.5	Precise	1	10	17	2	9.8	13.1	0.7	2	17	10	0.7	13.1	9.8	2	0.866	0.000	D	17	13.1	729.452	730.481	731.347	731.350	0
1	22102505	214	High	1.5	Vague	2	13	10	21	7.8	9.8	0.7	13	21	10	7.8	0.7	9.8	2	1.036	0.001	R	10	9.8	731.852	733.344	734.379	734.382	0
1	22102505	215	High	1.5	Precise	1	18	16	1	10.1	11.1	1.7	1	16	18	1.7	11.1	10.1	2	0.787	0.000	D	16	11.1	734.884	735.520	736.308	736.310	0
1	22102505	216	High	1.5	Vague	2	10	17	22	9.8	13.1	3.1	17	22	10	13.1	3.1	9.8	2	0.577	0.000	L	17	13.1	736.812	737.514	738.091	738.093	0
1	22102505	217	High	1.5	Precise	1	13	10	8	7.8	9.8	5.7	10	13	8	9.8	7.8	5.7	2	0.770	0.000	L	10	9.8	738.596	739.162	739.931	739.934	0
1	22102505	218	High	1.5	Precise	1	10	16	7	9.8	11.1	4.4	10	16	7	9.8	11.1	4.4	1	0.656	0.000	L	10	9.8	740.436	742.387	743.043	743.046	0
1	22102505	219	High	1.5	Vague	2	13	15	19	7.8	12.5	1.1	19	15	13	1.1	12.5	7.8	2	0.718	0.000	D	15	12.5	743.548	745.901	746.619	746.622	0
1	22102505	220	High	1.5	Precise	1	13	18	4	7.8	10.1	7.8	4	18	13	7.8	10.1	7.8	3	0.720	0.000	L	4	7.8	747.125	749.052	749.771	749.774	0
1	22102505	221	High	1.5	Precise	1	15	17	2	12.5	13.1	0.7	17	2	15	13.1	0.7	12.5	1	0.593	0.000	R	15	12.5	750.276	751.763	752.355	752.358	0
1	22102505	222	High	1.5	Vague	2	16	17	22	11.1	13.1	3.1	17	16	22	13.1	11.1	3.1	2	0.684	0.000	L	17	13.1	752.860	755.687	756.371	756.373	0
1	22102505	223	High	1.5	Precise	1	10	17	4	9.8	13.1	7.8	17	10	4	13.1	9.8	7.8	2	0.967	0.000	L	17	13.1	756.876	759.716	760.683	760.686	0
1	22102505	224	High	1.5	Precise	1	10	15	8	9.8	12.5	5.7	15	10	8	12.5	9.8	5.7	2	0.559	0.000	L	15	12.5	761.189	762.468	763.027	763.030	0
1	22102505	225	High	1.5	Vague	2	13	10	20	7.8	9.8	1.4	10	20	13	9.8	1.4	7.8	2	0.687	0.000	L	10	9.8	763.532	765.252	765.939	765.941	0
1	22102505	226	High	1.5	Precise	1	18	16	9	10.1	11.1	3.5	16	18	9	11.1	10.1	3.5	2	0.737	0.000	L	16	11.1	766.444	768.155	768.892	768.894	0
1	22102505	227	High	1.5	Vague	2	13	16	20	7.8	11.1	1.4	13	20	16	7.8	1.4	11.1	1	0.950	0.000	L	13	7.8	769.396	772.342	773.291	773.294	0
1	22102505	228	High	1.5	Precise	1	10	18	1	9.8	10.1	1.7	18	1	10	10.1	1.7	9.8	2	0.702	0.000	L	18	10.1	773.796	775.309	776.011	776.013	0
1	22102505	229	High	1.5	Vague	2	16	17	20	11.1	13.1	1.4	16	20	17	11.1	1.4	13.1	1	0.765	0.001	L	16	11.1	776.516	779.326	780.091	780.094	0
1	22102505	230	High	1.5	Precise	1	10	15	2	9.8	12.5	0.7	15	10	2	12.5	9.8	0.7	2	0.766	0.001	L	15	12.5	780.596	781.293	782.059	782.062	0
1	22102505	231	High	1.5	Vague	2	10	15	22	9.8	12.5	3.1	10	15	22	9.8	12.5	3.1	2	0.685	0.000	D	15	12.5	782.564	784.270	784.955	784.957	0
1	22102505	232	High	1.5	Precise	1	13	16	9	7.8	11.1	3.5	9	13	16	3.5	7.8	11.1	1	1.137	0.000	D	13	7.8	785.460	787.586	788.723	788.726	0
1	22102505	233	High	1.5	Vague	2	13	17	19	7.8	13.1	1.1	19	13	17	1.1	7.8	13.1	2	1.121	0.000	R	17	13.1	789.228	791.618	792.739	792.742	0
1	22102505	234	High	1.5	Vague	2	18	15	36	10.1	12.5	4.3	15	36	18	12.5	4.3	10.1	2	0.561	0.001	L	15	12.5	793.244	795.546	796.108	796.110	0
1	22102505	235	High	1.5	Precise	1	13	15	4	7.8	12.5	7.8	13	4	15	7.8	7.8	12.5	2	0.541	0.000	R	15	12.5	796.612	798.767	799.307	799.310	0
1	22102505	236	High	1.5	Vague	2	16	17	36	11.1	13.1	4.3	17	36	16	13.1	4.3	11.1	2	0.784	0.000	L	17	13.1	799.812	801.548	802.331	802.333	0
1	22102505	237	High	1.5	Precise	1	10	16	9	9.8	11.1	3.5	9	16	10	3.5	11.1	9.8	1	1.219	0.000	R	10	9.8	802.836	804.104	805.323	805.326	0
1	22102505	238	High	1.5	Vague	2	15	17	22	12.5	13.1	3.1	17	15	22	13.1	12.5	3.1	2	0.770	0.001	L	17	13.1	805.828	806.369	807.139	807.142	0
1	22102505	239	High	1.5	Precise	1	13	17	1	7.8	13.1	1.7	17	1	13	13.1	1.7	7.8	2	0.662	0.000	L	17	13.1	807.644	809.397	810.059	810.062	0
1	22102505	240	High	1.5	Precise	1	13	16	7	7.8	11.1	4.4	7	16	13	4.4	11.1	7.8	3	0.973	0.000	L	7	4.4	810.564	812.006	812.979	812.981	0
1	22102505	241	High	1.5	Vague	2	10	16	33	9.8	11.1	0.2	33	16	10	0.2	11.1	9.8	1	1.135	0.000	R	10	9.8	821.156	822.636	823.772	823.774	0
1	22102505	242	High	1.5	Vague	2	18	17	20	10.1	13.1	1.4	17	20	18	13.1	1.4	10.1	2	0.973	0.001	L	17	13.1	824.276	824.982	825.955	825.958	0
1	22102505	243	High	1.5	Precise	1	18	17	7	10.1	13.1	4.4	18	7	17	10.1	4.4	13.1	2	1.064	0.001	R	17	13.1	826.461	827.436	828.500	828.502	0
1	22102505	244	High	1.5	Vague	2	10	15	20	9.8	12.5	1.4	15	10	20	12.5	9.8	1.4	2	0.870	0.000	L	15	12.5	829.004	830.830	831.699	831.702	0
1	22102505	245	High	1.5	Vague	2	13	17	33	7.8	13.1	0.2	13	17	33	7.8	13.1	0.2	1	0.706	0.000	L	13	7.8	832.204	834.177	834.883	834.886	0
1	22102505	246	High	1.5	Precise	1	13	17	4	7.8	13.1	7.8	17	4	13	13.1	7.8	7.8	2	0.909	0.000	L	17	13.1	835.388	838.374	839.284	839.286	0
1	22102505	247	High	1.5	Vague	2	13	17	20	7.8	13.1	1.4	17	13	20	13.1	7.8	1.4	2	0.552	0.001	L	17	13.1	839.789	841.396	841.948	841.950	0
1	22102505	248	High	1.5	Vague	2	10	18	19	9.8	10.1	1.1	10	19	18	9.8	1.1	10.1	1	0.916	0.000	L	10	9.8	842.452	843.024	843.939	843.942	0
1	22102505	249	High	1.5	Precise	1	16	17	7	11.1	13.1	4.4	17	7	16	13.1	4.4	11.1	2	0.710	0.000	L	17	13.1	844.444	846.917	847.627	847.630	0
1	22102505	250	High	1.5	Vague	2	18	17	33	10.1	13.1	0.2	18	33	17	10.1	0.2	13.1	2	0.704	0.001	R	17	13.1	848.132	848.828	849.532	849.534	0
1	22102505	251	High	1.5	Vague	2	13	10	36	7.8	9.8	4.3	10	13	36	9.8	7.8	4.3	3	0.655	0.001	R	36	4.3	850.036	851.013	851.668	851.670	0
1	22102505	252	High	1.5	Precise	1	13	16	8	7.8	11.1	5.7	13	8	16	7.8	5.7	11.1	NaN	NaN	NaN	NaN	NaN	NaN	852.172	852.767	NaN	854.257	1
1	22102505	253	High	1.5	Precise	1	18	16	2	10.1	11.1	0.7	16	18	2	11.1	10.1	0.7	1	1.198	0.000	D	18	10.1	856.263	859.037	860.235	860.239	0
1	22102505	254	High	1.5	Precise	1	18	16	7	10.1	11.1	4.4	18	7	16	10.1	4.4	11.1	NaN	NaN	NaN	NaN	NaN	NaN	860.742	861.812	NaN	863.298	1
1	22102505	255	High	1.5	Precise	1	18	15	4	10.1	12.5	7.8	4	18	15	7.8	10.1	12.5	2	0.608	0.000	R	15	12.5	865.301	868.067	868.675	868.678	0
1	22102505	256	High	1.5	Precise	1	10	18	9	9.8	10.1	3.5	18	10	9	10.1	9.8	3.5	NaN	NaN	NaN	NaN	NaN	NaN	869.181	871.443	NaN	872.929	1
1	22102505	257	High	1.5	Vague	2	13	10	19	7.8	9.8	1.1	19	13	10	1.1	7.8	9.8	2	1.240	0.000	R	10	9.8	874.932	877.827	879.067	879.070	0
1	22102505	258	High	1.5	Precise	1	13	15	1	7.8	12.5	1.7	1	13	15	1.7	7.8	12.5	2	0.876	0.000	R	15	12.5	879.573	882.336	883.211	883.214	0
1	22102505	259	High	1.5	Vague	2	15	17	21	12.5	13.1	0.7	17	15	21	13.1	12.5	0.7	1	0.792	0.000	D	15	12.5	883.716	885.675	886.467	886.470	0
1	22102505	260	High	1.5	Precise	1	18	17	4	10.1	13.1	7.8	4	18	17	7.8	10.1	13.1	NaN	NaN	NaN	NaN	NaN	NaN	886.973	887.748	NaN	889.235	1
1	22102505	261	High	1.5	Precise	1	13	15	2	7.8	12.5	0.7	15	2	13	12.5	0.7	7.8	2	0.889	0.000	L	15	12.5	891.237	892.050	892.939	892.942	0
1	22102505	262	High	1.5	Precise	1	10	16	1	9.8	11.1	1.7	10	16	1	9.8	11.1	1.7	NaN	NaN	NaN	NaN	NaN	NaN	893.444	894.112	NaN	895.599	1
1	22102505	263	High	1.5	Vague	2	16	15	19	11.1	12.5	1.1	16	19	15	11.1	1.1	12.5	2	0.614	0.000	R	15	12.5	897.603	899.813	900.428	900.430	0
1	22102505	264	High	1.5	Precise	1	15	17	9	12.5	13.1	3.5	15	17	9	12.5	13.1	3.5	1	0.726	0.000	L	15	12.5	900.932	903.253	903.980	903.982	0
1	22102505	265	High	1.5	Vague	2	13	18	22	7.8	10.1	3.1	13	22	18	7.8	3.1	10.1	NaN	NaN	NaN	NaN	NaN	NaN	904.484	906.379	NaN	907.865	1
1	22102505	266	High	1.5	Vague	2	13	15	36	7.8	12.5	4.3	36	15	13	4.3	12.5	7.8	2	0.750	0.001	D	15	12.5	909.868	912.030	912.780	912.782	0
1	22102505	267	High	1.5	Vague	2	10	15	19	9.8	12.5	1.1	19	10	15	1.1	9.8	12.5	2	0.624	0.000	R	15	12.5	913.284	914.507	915.131	915.134	0
1	22102505	268	High	1.5	Precise	1	13	10	4	7.8	9.8	7.8	4	13	10	7.8	7.8	9.8	NaN	NaN	NaN	NaN	NaN	NaN	915.636	918.070	NaN	919.556	1
1	22102505	269	High	1.5	Vague	2	13	10	22	7.8	9.8	3.1	10	22	13	9.8	3.1	7.8	NaN	NaN	NaN	NaN	NaN	NaN	921.559	923.818	NaN	925.305	1
1	22102505	270	High	1.5	Vague	2	18	17	22	10.1	13.1	3.1	17	18	22	13.1	10.1	3.1	2	0.873	0.001	L	17	13.1	927.307	930.106	930.979	930.982	0
1	22102505	271	High	1.5	Precise	1	18	16	4	10.1	11.1	7.8	18	16	4	10.1	11.1	7.8	NaN	NaN	NaN	NaN	NaN	NaN	931.484	932.096	NaN	933.583	1
1	22102505	272	High	1.5	Vague	2	13	18	20	7.8	10.1	1.4	20	13	18	1.4	7.8	10.1	NaN	NaN	NaN	NaN	NaN	NaN	935.586	936.687	NaN	938.174	1
1	22102505	273	High	1.5	Precise	1	16	15	7	11.1	12.5	4.4	7	15	16	4.4	12.5	11.1	2	0.865	0.001	D	15	12.5	940.176	940.995	941.860	941.862	0
1	22102505	274	High	1.5	Precise	1	13	17	9	7.8	13.1	3.5	9	17	13	3.5	13.1	7.8	2	1.020	0.000	D	17	13.1	942.365	945.168	946.187	946.190	0
1	22102505	275	High	1.5	Vague	2	13	17	36	7.8	13.1	4.3	17	13	36	13.1	7.8	4.3	2	0.647	0.000	L	17	13.1	946.692	948.444	949.091	949.094	0
1	22102505	276	High	1.5	Vague	2	10	18	20	9.8	10.1	1.4	20	18	10	1.4	10.1	9.8	NaN	NaN	NaN	NaN	NaN	NaN	949.596	952.556	NaN	954.042	1
1	22102505	277	High	1.5	Precise	1	13	10	1	7.8	9.8	1.7	1	13	10	1.7	7.8	9.8	NaN	NaN	NaN	NaN	NaN	NaN	956.045	958.746	NaN	960.232	1
1	22102505	278	High	1.5	Precise	1	10	15	9	9.8	12.5	3.5	15	9	10	12.5	3.5	9.8	2	0.587	0.000	L	15	12.5	962.235	963.664	964.252	964.254	0
1	22102505	279	High	1.5	Vague	2	16	15	21	11.1	12.5	0.7	21	16	15	0.7	11.1	12.5	2	0.525	0.000	R	15	12.5	964.756	965.934	966.459	966.462	0
1	22102505	280	High	1.5	Precise	1	13	17	7	7.8	13.1	4.4	7	13	17	4.4	7.8	13.1	2	0.731	0.000	R	17	13.1	966.964	969.824	970.555	970.558	0
1	22102505	281	High	1.5	Precise	1	10	15	4	9.8	12.5	7.8	4	15	10	7.8	12.5	9.8	2	0.655	0.000	D	15	12.5	971.060	974.005	974.660	974.662	0
1	22102505	282	High	1.5	Vague	2	16	17	19	11.1	13.1	1.1	16	17	19	11.1	13.1	1.1	2	0.662	0.001	D	17	13.1	975.165	977.534	978.196	978.198	0
1	22102505	283	High	1.5	Vague	2	10	15	21	9.8	12.5	0.7	21	15	10	0.7	12.5	9.8	2	0.670	0.001	D	15	12.5	978.700	979.373	980.044	980.048	0
1	22102505	284	High	1.5	Precise	1	16	15	1	11.1	12.5	1.7	16	15	1	11.1	12.5	1.7	2	0.596	0.000	D	15	12.5	980.550	982.247	982.843	982.846	0
1	22102505	285	High	1.5	Precise	1	13	15	9	7.8	12.5	3.5	15	9	13	12.5	3.5	7.8	2	0.525	0.000	L	15	12.5	983.348	984.623	985.147	985.150	0
1	22102505	286	High	1.5	Vague	2	16	15	20	11.1	12.5	1.4	20	15	16	1.4	12.5	11.1	2	0.516	0.000	D	15	12.5	985.652	988.160	988.676	988.678	0
1	22102505	287	High	1.5	Vague	2	13	15	33	7.8	12.5	0.2	33	15	13	0.2	12.5	7.8	2	0.705	0.000	D	15	12.5	989.180	991.523	992.228	992.230	0
1	22102505	288	High	1.5	Precise	1	18	15	2	10.1	12.5	0.7	18	2	15	10.1	0.7	12.5	2	0.561	0.000	R	15	12.5	992.732	994.923	995.483	995.486	0
1	22102505	289	High	1.5	Precise	1	15	17	8	12.5	13.1	5.7	8	15	17	5.7	12.5	13.1	2	0.851	0.000	R	17	13.1	995.988	998.912	999.763	999.766	0
1	22102505	290	High	1.5	Vague	2	18	16	22	10.1	11.1	3.1	22	16	18	3.1	11.1	10.1	NaN	NaN	NaN	NaN	NaN	NaN	1000.269	1002.460	NaN	1003.946	1
1	22102505	291	High	1.5	Vague	2	10	16	22	9.8	11.1	3.1	22	16	10	3.1	11.1	9.8	NaN	NaN	NaN	NaN	NaN	NaN	1005.949	1007.806	NaN	1009.292	1
1	22102505	292	High	1.5	Precise	1	18	17	9	10.1	13.1	3.5	18	17	9	10.1	13.1	3.5	2	1.110	0.000	D	17	13.1	1011.295	1013.229	1014.340	1014.342	0
1	22102505	293	High	1.5	Vague	2	13	17	21	7.8	13.1	0.7	17	21	13	13.1	0.7	7.8	2	0.662	0.000	L	17	13.1	1014.845	1015.437	1016.099	1016.102	0
1	22102505	294	High	1.5	Vague	2	18	15	20	10.1	12.5	1.4	20	18	15	1.4	10.1	12.5	2	0.544	0.001	R	15	12.5	1016.604	1017.892	1018.436	1018.438	0
1	22102505	295	High	1.5	Precise	1	13	18	1	7.8	10.1	1.7	13	1	18	7.8	1.7	10.1	NaN	NaN	NaN	NaN	NaN	NaN	1018.940	1021.476	NaN	1022.963	1
1	22102505	296	High	1.5	Vague	2	15	17	33	12.5	13.1	0.2	33	17	15	0.2	13.1	12.5	1	0.740	0.001	R	15	12.5	1024.965	1027.616	1028.356	1028.358	0
1	22102505	297	High	1.5	Vague	2	15	17	20	12.5	13.1	1.4	20	15	17	1.4	12.5	13.1	1	0.806	0.000	D	15	12.5	1028.860	1030.669	1031.475	1031.478	0
1	22102505	298	High	1.5	Vague	2	16	15	36	11.1	12.5	4.3	15	36	16	12.5	4.3	11.1	2	0.576	0.000	L	15	12.5	1031.980	1033.955	1034.531	1034.534	0
1	22102505	299	High	1.5	Precise	1	13	18	7	7.8	10.1	4.4	18	13	7	10.1	7.8	4.4	NaN	NaN	NaN	NaN	NaN	NaN	1035.036	1036.604	NaN	1038.090	1
1	22102505	300	High	1.5	Vague	2	18	15	33	10.1	12.5	0.2	18	33	15	10.1	0.2	12.5	2	0.594	0.000	R	15	12.5	1040.093	1043.025	1043.619	1043.622	0
1	22102505	301	High	1.5	Vague	2	18	17	36	10.1	13.1	4.3	18	36	17	10.1	4.3	13.1	2	0.733	0.000	R	17	13.1	1050.499	1051.247	1051.980	1051.982	0
1	22102505	302	High	1.5	Precise	1	13	18	2	7.8	10.1	0.7	18	2	13	10.1	0.7	7.8	NaN	NaN	NaN	NaN	NaN	NaN	1052.484	1054.645	NaN	1056.133	1
1	22102505	303	High	1.5	Precise	1	16	17	2	11.1	13.1	0.7	16	2	17	11.1	0.7	13.1	2	0.824	0.000	R	17	13.1	1058.136	1060.988	1061.812	1061.814	0
1	22102505	304	High	1.5	Vague	2	16	17	21	11.1	13.1	0.7	21	17	16	0.7	13.1	11.1	2	1.275	0.000	D	17	13.1	1062.317	1065.297	1066.571	1066.574	0
1	22102505	305	High	1.5	Precise	1	13	16	4	7.8	11.1	7.8	13	4	16	7.8	7.8	11.1	NaN	NaN	NaN	NaN	NaN	NaN	1067.077	1069.664	NaN	1071.151	1
1	22102505	306	High	1.5	Vague	2	10	18	36	9.8	10.1	4.3	10	36	18	9.8	4.3	10.1	NaN	NaN	NaN	NaN	NaN	NaN	1073.153	1075.467	NaN	1076.953	1
1	22102505	307	High	1.5	Precise	1	16	15	8	11.1	12.5	5.7	15	16	8	12.5	11.1	5.7	2	0.734	0.000	L	15	12.5	1078.956	1080.813	1081.547	1081.550	0
1	22102505	308	High	1.5	Precise	1	18	15	9	10.1	12.5	3.5	9	15	18	3.5	12.5	10.1	2	1.186	0.000	D	15	12.5	1082.052	1082.618	1083.804	1083.806	0
1	22102505	309	High	1.5	Precise	1	13	17	2	7.8	13.1	0.7	17	13	2	13.1	7.8	0.7	2	0.620	0.000	L	17	13.1	1084.309	1085.351	1085.972	1085.974	0
1	22102505	310	High	1.5	Vague	2	18	17	21	10.1	13.1	0.7	17	21	18	13.1	0.7	10.1	2	0.666	0.001	L	17	13.1	1086.476	1088.890	1089.556	1089.558	0
1	22102505	311	High	1.5	Precise	1	16	17	4	11.1	13.1	7.8	4	16	17	7.8	11.1	13.1	2	0.767	0.001	R	17	13.1	1090.060	1090.693	1091.460	1091.462	0
1	22102505	312	High	1.5	Vague	2	13	15	22	7.8	12.5	3.1	22	15	13	3.1	12.5	7.8	2	0.626	0.000	D	15	12.5	1091.965	1092.858	1093.484	1093.486	0
1	22102505	313	High	1.5	Vague	2	13	18	33	7.8	10.1	0.2	13	33	18	7.8	0.2	10.1	NaN	NaN	NaN	NaN	NaN	NaN	1093.988	1095.103	NaN	1096.590	1
1	22102505	314	High	1.5	Vague	2	10	18	22	9.8	10.1	3.1	22	18	10	3.1	10.1	9.8	2	1.076	0.000	D	18	10.1	1098.592	1099.728	1100.804	1100.806	0
1	22102505	315	High	1.5	Vague	2	10	17	36	9.8	13.1	4.3	36	17	10	4.3	13.1	9.8	2	0.664	0.001	D	17	13.1	1101.309	1102.204	1102.868	1102.870	0
1	22102505	316	High	1.5	Precise	1	10	15	1	9.8	12.5	1.7	10	15	1	9.8	12.5	1.7	2	0.655	0.000	D	15	12.5	1103.373	1103.988	1104.644	1104.646	0
1	22102505	317	High	1.5	Vague	2	16	17	33	11.1	13.1	0.2	33	17	16	0.2	13.1	11.1	2	0.596	0.000	D	17	13.1	1105.149	1105.864	1106.460	1106.462	0
1	22102505	318	High	1.5	Vague	2	13	18	36	7.8	10.1	4.3	18	36	13	10.1	4.3	7.8	NaN	NaN	NaN	NaN	NaN	NaN	1106.964	1107.818	NaN	1109.304	1
1	22102505	319	High	1.5	Precise	1	18	15	1	10.1	12.5	1.7	1	15	18	1.7	12.5	10.1	2	0.750	0.001	D	15	12.5	1111.307	1112.246	1112.996	1112.998	0
1	22102505	320	High	1.5	Vague	2	13	18	19	7.8	10.1	1.1	19	18	13	1.1	10.1	7.8	NaN	NaN	NaN	NaN	NaN	NaN	1113.500	1115.975	NaN	1117.462	1
1	22102505	321	High	1.5	Precise	1	18	16	8	10.1	11.1	5.7	16	8	18	11.1	5.7	10.1	NaN	NaN	NaN	NaN	NaN	NaN	1119.464	1121.333	NaN	1122.820	1
1	22102505	322	High	1.5	Vague	2	18	16	36	10.1	11.1	4.3	18	16	36	10.1	11.1	4.3	NaN	NaN	NaN	NaN	NaN	NaN	1124.823	1126.398	NaN	1127.884	1
1	22102505	323	High	1.5	Precise	1	18	15	8	10.1	12.5	5.7	8	18	15	5.7	10.1	12.5	2	0.692	0.000	R	15	12.5	1129.887	1131.104	1131.796	1131.798	0
1	22102505	324	High	1.5	Precise	1	13	10	2	7.8	9.8	0.7	10	13	2	9.8	7.8	0.7	NaN	NaN	NaN	NaN	NaN	NaN	1132.300	1133.404	NaN	1134.890	1
1	22102505	325	High	1.5	Vague	2	18	15	22	10.1	12.5	3.1	18	15	22	10.1	12.5	3.1	2	0.807	0.000	D	15	12.5	1136.893	1138.468	1139.275	1139.278	0
1	22102505	326	High	1.5	Vague	2	10	18	21	9.8	10.1	0.7	10	21	18	9.8	0.7	10.1	NaN	NaN	NaN	NaN	NaN	NaN	1139.780	1142.074	NaN	1143.560	1
1	22102505	327	High	1.5	Vague	2	13	10	33	7.8	9.8	0.2	33	10	13	0.2	9.8	7.8	NaN	NaN	NaN	NaN	NaN	NaN	1145.562	1148.470	NaN	1149.957	1
1	22102505	328	High	1.5	Vague	2	13	15	20	7.8	12.5	1.4	13	20	15	7.8	1.4	12.5	2	0.567	0.001	R	15	12.5	1151.959	1154.933	1155.500	1155.502	0
1	22102505	329	High	1.5	Precise	1	13	10	9	7.8	9.8	3.5	10	13	9	9.8	7.8	3.5	NaN	NaN	NaN	NaN	NaN	NaN	1156.004	1156.973	NaN	1158.459	1
1	22102505	330	High	1.5	Precise	1	18	17	1	10.1	13.1	1.7	17	18	1	13.1	10.1	1.7	2	0.806	0.001	L	17	13.1	1160.462	1161.390	1162.196	1162.198	0
1	22102505	331	High	1.5	Vague	2	18	16	20	10.1	11.1	1.4	16	18	20	11.1	10.1	1.4	NaN	NaN	NaN	NaN	NaN	NaN	1162.700	1164.066	NaN	1165.552	1
1	22102505	332	High	1.5	Vague	2	13	16	33	7.8	11.1	0.2	16	33	13	11.1	0.2	7.8	NaN	NaN	NaN	NaN	NaN	NaN	1167.554	1168.899	NaN	1170.386	1
1	22102505	333	High	1.5	Precise	1	13	18	8	7.8	10.1	5.7	13	8	18	7.8	5.7	10.1	NaN	NaN	NaN	NaN	NaN	NaN	1172.388	1175.223	NaN	1176.710	1
1	22102505	334	High	1.5	Precise	1	13	15	7	7.8	12.5	4.4	13	15	7	7.8	12.5	4.4	2	0.843	0.000	D	15	12.5	1178.712	1180.353	1181.196	1181.198	0
1	22102505	335	High	1.5	Precise	1	10	18	2	9.8	10.1	0.7	18	2	10	10.1	0.7	9.8	NaN	NaN	NaN	NaN	NaN	NaN	1181.700	1182.962	NaN	1184.448	1
1	22102505	336	High	1.5	Vague	2	13	16	22	7.8	11.1	3.1	13	16	22	7.8	11.1	3.1	NaN	NaN	NaN	NaN	NaN	NaN	1186.450	1186.960	NaN	1188.446	1
1	22102505	337	High	1.5	Precise	1	16	15	9	11.1	12.5	3.5	16	9	15	11.1	3.5	12.5	NaN	NaN	NaN	NaN	NaN	NaN	1190.449	1191.994	NaN	1193.480	1
1	22102505	338	High	1.5	Vague	2	13	18	21	7.8	10.1	0.7	18	13	21	10.1	7.8	0.7	3	0.740	0.000	R	21	0.7	1195.483	1197.896	1198.636	1198.638	0
1	22102505	339	High	1.5	Vague	2	18	15	21	10.1	12.5	0.7	18	21	15	10.1	0.7	12.5	2	0.848	0.001	R	15	12.5	1199.140	1200.811	1201.660	1201.662	0
1	22102505	340	High	1.5	Vague	2	13	17	22	7.8	13.1	3.1	22	13	17	3.1	7.8	13.1	2	0.723	0.001	R	17	13.1	1202.164	1204.129	1204.852	1204.854	0
1	22102505	341	High	1.5	Precise	1	10	17	8	9.8	13.1	5.7	17	10	8	13.1	9.8	5.7	2	0.824	0.000	L	17	13.1	1205.357	1207.348	1208.172	1208.174	0
1	22102505	342	High	1.5	Vague	2	18	16	21	10.1	11.1	0.7	18	21	16	10.1	0.7	11.1	NaN	NaN	NaN	NaN	NaN	NaN	1208.676	1209.285	NaN	1210.771	1
1	22102505	343	High	1.5	Precise	1	18	17	8	10.1	13.1	5.7	18	17	8	10.1	13.1	5.7	2	1.135	0.000	D	17	13.1	1212.774	1214.301	1215.436	1215.438	0
1	22102505	344	High	1.5	Vague	2	18	16	19	10.1	11.1	1.1	19	16	18	1.1	11.1	10.1	NaN	NaN	NaN	NaN	NaN	NaN	1215.941	1216.800	NaN	1218.286	1
1	22102505	345	High	1.5	Vague	2	10	18	33	9.8	10.1	0.2	18	33	10	10.1	0.2	9.8	NaN	NaN	NaN	NaN	NaN	NaN	1220.289	1222.650	NaN	1224.136	1
1	22102505	346	High	1.5	Precise	1	10	17	9	9.8	13.1	3.5	10	9	17	9.8	3.5	13.1	2	0.676	0.001	R	17	13.1	1226.140	1227.040	1227.716	1227.718	0
1	22102505	347	High	1.5	Vague	2	15	17	19	12.5	13.1	1.1	17	19	15	13.1	1.1	12.5	1	0.727	0.000	R	15	12.5	1228.221	1229.884	1230.612	1230.614	0
1	22102505	348	High	1.5	Precise	1	13	18	9	7.8	10.1	3.5	9	18	13	3.5	10.1	7.8	NaN	NaN	NaN	NaN	NaN	NaN	1231.116	1232.211	NaN	1233.698	1
1	22102505	349	High	1.5	Precise	1	10	18	7	9.8	10.1	4.4	7	18	10	4.4	10.1	9.8	NaN	NaN	NaN	NaN	NaN	NaN	1235.700	1236.421	NaN	1237.907	1
1	22102505	350	High	1.5	Precise	1	13	16	1	7.8	11.1	1.7	16	1	13	11.1	1.7	7.8	NaN	NaN	NaN	NaN	NaN	NaN	1239.910	1241.385	NaN	1242.872	1
1	22102505	351	High	1.5	Vague	2	10	15	33	9.8	12.5	0.2	15	10	33	12.5	9.8	0.2	2	0.642	0.001	L	15	12.5	1244.874	1246.210	1246.852	1246.854	0
1	22102505	352	High	1.5	Vague	2	13	16	36	7.8	11.1	4.3	13	16	36	7.8	11.1	4.3	NaN	NaN	NaN	NaN	NaN	NaN	1247.357	1249.578	NaN	1251.065	1
1	22102505	353	High	1.5	Vague	2	10	16	21	9.8	11.1	0.7	10	16	21	9.8	11.1	0.7	NaN	NaN	NaN	NaN	NaN	NaN	1253.067	1255.162	NaN	1256.648	1
1	22102505	354	High	1.5	Precise	1	10	18	8	9.8	10.1	5.7	10	8	18	9.8	5.7	10.1	NaN	NaN	NaN	NaN	NaN	NaN	1258.651	1260.140	NaN	1261.626	1
1	22102505	355	High	1.5	Precise	1	10	15	7	9.8	12.5	4.4	15	7	10	12.5	4.4	9.8	2	0.664	0.001	L	15	12.5	1263.629	1264.851	1265.516	1265.518	0
1	22102505	356	High	1.5	Vague	2	13	16	21	7.8	11.1	0.7	13	21	16	7.8	0.7	11.1	NaN	NaN	NaN	NaN	NaN	NaN	1266.021	1266.592	NaN	1268.078	1
1	22102505	357	High	1.5	Vague	2	13	15	21	7.8	12.5	0.7	13	15	21	7.8	12.5	0.7	2	0.651	0.000	D	15	12.5	1270.080	1271.713	1272.364	1272.366	0
1	22102505	358	High	1.5	Vague	2	10	17	33	9.8	13.1	0.2	33	17	10	0.2	13.1	9.8	2	0.678	0.000	D	17	13.1	1272.868	1275.205	1275.884	1275.886	0
1	22102505	359	High	1.5	Precise	1	16	17	1	11.1	13.1	1.7	1	17	16	1.7	13.1	11.1	2	0.804	0.000	D	17	13.1	1276.389	1277.111	1277.915	1277.918	0
1	22102505	360	High	1.5	Precise	1	13	17	8	7.8	13.1	5.7	13	17	8	7.8	13.1	5.7	1	0.644	0.000	L	13	7.8	1278.420	1279.632	1280.275	1280.278	0
