Group	subID	trial	TimePressure	TimeConstraint	Vagueness	Vaguenesscode	ID1	ID2	ID3	V1	V2	V3	ID_left	ID_middle	ID_right	Bid_left	Bid_middle	Bid_right	chosenItem	RT	RTvariance	chosenPosition	chosenID	chosenValue	fixation_time	option_time	choice_time	feedback_time	timeout
1	22072004	1	High	1.5	Precise	1	10	17	2	39.1	70.8	1.3	10	17	2	39.1	70.8	1.3	2	1.261	0.001	D	17	70.8	11.112	13.763	15.024	15.028	0
1	22072004	2	High	1.5	Vague	2	8	18	22	30.6	50.3	13.3	8	22	18	30.6	13.3	50.3	NaN	NaN	NaN	NaN	NaN	NaN	15.532	17.264	NaN	18.754	1
1	22072004	3	High	1.5	Vague	2	13	17	21	25.7	70.8	1.9	21	17	13	1.9	70.8	25.7	3	0.717	0.000	L	21	1.9	20.758	22.643	23.360	23.363	0
1	22072004	4	High	1.5	Vague	2	13	17	36	25.7	70.8	16.6	17	36	13	70.8	16.6	25.7	2	0.725	0.001	L	17	70.8	23.866	26.667	27.392	27.395	0
1	22072004	5	High	1.5	Precise	1	13	10	6	25.7	39.1	3.3	10	13	6	39.1	25.7	3.3	1	0.774	0.001	D	13	25.7	27.901	30.474	31.248	31.253	0
1	22072004	6	High	1.5	Vague	2	12	17	22	27.0	70.8	13.3	12	22	17	27.0	13.3	70.8	2	0.799	0.000	R	17	70.8	31.758	33.361	34.160	34.162	0
1	22072004	7	High	1.5	Vague	2	13	10	24	25.7	39.1	3.6	13	10	24	25.7	39.1	3.6	NaN	NaN	NaN	NaN	NaN	NaN	34.665	36.173	NaN	37.660	1
1	22072004	8	High	1.5	Precise	1	12	10	6	27.0	39.1	3.3	6	12	10	3.3	27.0	39.1	2	0.747	0.001	R	10	39.1	39.666	41.685	42.432	42.435	0
1	22072004	9	High	1.5	Precise	1	12	18	9	27.0	50.3	20.9	9	12	18	20.9	27.0	50.3	1	0.651	0.001	D	12	27.0	42.938	45.445	46.096	46.099	0
1	22072004	10	High	1.5	Precise	1	12	10	4	27.0	39.1	15.6	4	10	12	15.6	39.1	27.0	2	0.885	0.001	D	10	39.1	46.602	48.139	49.024	49.026	0
1	22072004	11	High	1.5	Vague	2	8	10	22	30.6	39.1	13.3	22	10	8	13.3	39.1	30.6	1	0.578	0.001	R	8	30.6	49.529	50.126	50.704	50.706	0
1	22072004	12	High	1.5	Vague	2	12	17	21	27.0	70.8	1.9	21	12	17	1.9	27.0	70.8	2	0.598	0.000	R	17	70.8	51.209	53.418	54.016	54.018	0
1	22072004	13	High	1.5	Vague	2	12	8	25	27.0	30.6	9.1	12	25	8	27.0	9.1	30.6	2	0.495	0.001	R	8	30.6	54.521	55.921	56.416	56.418	0
1	22072004	14	High	1.5	Precise	1	13	8	2	25.7	30.6	1.3	13	8	2	25.7	30.6	1.3	1	0.574	0.000	L	13	25.7	56.921	58.801	59.376	59.379	0
1	22072004	15	High	1.5	Precise	1	12	8	4	27.0	30.6	15.6	4	12	8	15.6	27.0	30.6	3	0.673	0.001	L	4	15.6	59.881	62.270	62.944	62.946	0
1	22072004	16	High	1.5	Precise	1	18	17	3	50.3	70.8	3.4	3	18	17	3.4	50.3	70.8	2	0.606	0.001	R	17	70.8	63.449	66.306	66.912	66.914	0
1	22072004	17	High	1.5	Precise	1	8	18	3	30.6	50.3	3.4	18	8	3	50.3	30.6	3.4	1	0.927	0.001	D	8	30.6	67.417	68.433	69.360	69.362	0
1	22072004	18	High	1.5	Precise	1	12	8	11	27.0	30.6	19.3	12	11	8	27.0	19.3	30.6	2	0.768	0.001	R	8	30.6	69.865	70.864	71.632	71.634	0
1	22072004	19	High	1.5	Precise	1	8	17	2	30.6	70.8	1.3	8	17	2	30.6	70.8	1.3	2	0.637	0.000	D	17	70.8	72.138	74.306	74.944	74.946	0
1	22072004	20	High	1.5	Precise	1	13	12	2	25.7	27.0	1.3	2	13	12	1.3	25.7	27.0	1	0.660	0.000	D	13	25.7	75.449	76.876	77.536	77.538	0
1	22072004	21	High	1.5	Precise	1	8	18	4	30.6	50.3	15.6	8	18	4	30.6	50.3	15.6	1	0.934	0.000	L	8	30.6	78.041	80.986	81.920	81.923	0
1	22072004	22	High	1.5	Precise	1	8	17	11	30.6	70.8	19.3	17	11	8	70.8	19.3	30.6	2	0.763	0.000	L	17	70.8	82.425	83.701	84.464	84.466	0
1	22072004	23	High	1.5	Precise	1	12	18	3	27.0	50.3	3.4	3	12	18	3.4	27.0	50.3	1	0.859	0.000	D	12	27.0	84.969	87.748	88.608	88.610	0
1	22072004	24	High	1.5	Precise	1	8	17	4	30.6	70.8	15.6	17	8	4	70.8	30.6	15.6	1	0.671	0.001	D	8	30.6	89.113	91.985	92.656	92.658	0
1	22072004	25	High	1.5	Precise	1	13	10	4	25.7	39.1	15.6	10	13	4	39.1	25.7	15.6	2	0.767	0.001	L	10	39.1	93.161	94.961	95.728	95.730	0
1	22072004	26	High	1.5	Vague	2	12	17	20	27.0	70.8	3.2	20	17	12	3.2	70.8	27.0	2	0.927	0.001	D	17	70.8	96.234	98.177	99.104	99.106	0
1	22072004	27	High	1.5	Vague	2	13	12	24	25.7	27.0	3.6	12	24	13	27.0	3.6	25.7	2	0.804	0.000	L	12	27.0	99.609	101.468	102.272	102.274	0
1	22072004	28	High	1.5	Precise	1	13	18	4	25.7	50.3	15.6	13	4	18	25.7	15.6	50.3	3	0.791	0.001	D	4	15.6	102.778	103.497	104.288	104.291	0
1	22072004	29	High	1.5	Precise	1	8	17	3	30.6	70.8	3.4	3	17	8	3.4	70.8	30.6	1	0.684	0.001	R	8	30.6	104.794	107.700	108.384	108.386	0
1	22072004	30	High	1.5	Vague	2	12	18	25	27.0	50.3	9.1	18	12	25	50.3	27.0	9.1	1	1.046	0.001	D	12	27.0	108.889	109.946	110.992	110.994	0
1	22072004	31	High	1.5	Vague	2	10	17	24	39.1	70.8	3.6	17	24	10	70.8	3.6	39.1	2	0.616	0.000	L	17	70.8	111.497	112.008	112.624	112.626	0
1	22072004	32	High	1.5	Precise	1	12	17	9	27.0	70.8	20.9	17	12	9	70.8	27.0	20.9	2	0.597	0.000	L	17	70.8	113.129	115.930	116.528	116.530	0
1	22072004	33	High	1.5	Vague	2	12	18	24	27.0	50.3	3.6	12	18	24	27.0	50.3	3.6	1	0.962	0.000	L	12	27.0	117.033	119.373	120.336	120.338	0
1	22072004	34	High	1.5	Precise	1	13	12	3	25.7	27.0	3.4	13	3	12	25.7	3.4	27.0	3	1.206	0.000	D	3	3.4	120.841	123.466	124.672	124.674	0
1	22072004	35	High	1.5	Precise	1	8	10	4	30.6	39.1	15.6	10	8	4	39.1	30.6	15.6	1	0.900	0.001	D	8	30.6	125.178	126.924	127.824	127.826	0
1	22072004	36	High	1.5	Precise	1	8	10	6	30.6	39.1	3.3	6	10	8	3.3	39.1	30.6	1	0.771	0.001	R	8	30.6	128.329	129.885	130.656	130.658	0
1	22072004	37	High	1.5	Vague	2	13	8	36	25.7	30.6	16.6	8	36	13	30.6	16.6	25.7	2	0.763	0.001	L	8	30.6	131.161	132.357	133.120	133.122	0
1	22072004	38	High	1.5	Vague	2	12	10	24	27.0	39.1	3.6	12	24	10	27.0	3.6	39.1	2	1.054	0.001	R	10	39.1	133.625	135.522	136.576	136.578	0
1	22072004	39	High	1.5	Vague	2	13	18	21	25.7	50.3	1.9	18	21	13	50.3	1.9	25.7	2	1.168	0.001	L	18	50.3	137.081	137.968	139.136	139.138	0
1	22072004	40	High	1.5	Vague	2	12	18	20	27.0	50.3	3.2	12	18	20	27.0	50.3	3.2	2	1.111	0.000	D	18	50.3	139.642	142.248	143.360	143.362	0
1	22072004	41	High	1.5	Precise	1	12	17	3	27.0	70.8	3.4	3	17	12	3.4	70.8	27.0	2	0.976	0.001	D	17	70.8	143.865	144.752	145.728	145.730	0
1	22072004	42	High	1.5	Vague	2	13	18	22	25.7	50.3	13.3	22	13	18	13.3	25.7	50.3	3	0.925	0.000	L	22	13.3	146.233	148.579	149.504	149.506	0
1	22072004	43	High	1.5	Precise	1	13	18	9	25.7	50.3	20.9	9	13	18	20.9	25.7	50.3	3	0.991	0.000	L	9	20.9	150.009	151.233	152.224	152.226	0
1	22072004	44	High	1.5	Precise	1	13	10	3	25.7	39.1	3.4	13	3	10	25.7	3.4	39.1	2	0.698	0.000	R	10	39.1	152.729	154.182	154.880	154.882	0
1	22072004	45	High	1.5	Vague	2	13	8	24	25.7	30.6	3.6	13	8	24	25.7	30.6	3.6	1	0.818	0.000	L	13	25.7	155.385	156.781	157.600	157.602	0
1	22072004	46	High	1.5	Precise	1	13	10	2	25.7	39.1	1.3	10	2	13	39.1	1.3	25.7	3	0.847	0.000	D	2	1.3	158.105	160.225	161.072	161.074	0
1	22072004	47	High	1.5	Precise	1	13	17	9	25.7	70.8	20.9	13	17	9	25.7	70.8	20.9	2	0.737	0.000	D	17	70.8	161.577	163.311	164.048	164.050	0
1	22072004	48	High	1.5	Precise	1	12	18	2	27.0	50.3	1.3	18	12	2	50.3	27.0	1.3	2	0.803	0.001	L	18	50.3	164.553	165.725	166.528	166.530	0
1	22072004	49	High	1.5	Vague	2	8	10	21	30.6	39.1	1.9	10	8	21	39.1	30.6	1.9	1	0.702	0.001	D	8	30.6	167.033	168.098	168.800	168.802	0
1	22072004	50	High	1.5	Precise	1	12	10	3	27.0	39.1	3.4	3	12	10	3.4	27.0	39.1	1	0.824	0.000	D	12	27.0	169.306	170.264	171.088	171.090	0
1	22072004	51	High	1.5	Vague	2	13	12	21	25.7	27.0	1.9	21	13	12	1.9	25.7	27.0	2	0.928	0.001	R	12	27.0	171.593	173.056	173.984	173.986	0
1	22072004	52	High	1.5	Precise	1	12	17	11	27.0	70.8	19.3	17	12	11	70.8	27.0	19.3	2	0.617	0.001	L	17	70.8	174.489	175.079	175.696	175.699	0
1	22072004	53	High	1.5	Precise	1	12	8	9	27.0	30.6	20.9	12	9	8	27.0	20.9	30.6	2	0.650	0.000	R	8	30.6	176.202	177.398	178.048	178.050	0
1	22072004	54	High	1.5	Precise	1	13	17	2	25.7	70.8	1.3	17	13	2	70.8	25.7	1.3	2	0.651	0.001	L	17	70.8	178.553	180.501	181.152	181.155	0
1	22072004	55	High	1.5	Vague	2	10	17	36	39.1	70.8	16.6	10	36	17	39.1	16.6	70.8	2	0.606	0.000	R	17	70.8	181.658	182.674	183.280	183.282	0
1	22072004	56	High	1.5	Vague	2	10	17	20	39.1	70.8	3.2	17	20	10	70.8	3.2	39.1	2	0.460	0.001	L	17	70.8	183.785	185.700	186.160	186.162	0
1	22072004	57	High	1.5	Vague	2	12	8	20	27.0	30.6	3.2	20	8	12	3.2	30.6	27.0	2	0.868	0.000	D	8	30.6	186.665	187.564	188.432	188.434	0
1	22072004	58	High	1.5	Vague	2	12	18	22	27.0	50.3	13.3	22	12	18	13.3	27.0	50.3	3	0.883	0.001	L	22	13.3	188.937	191.357	192.240	192.244	0
1	22072004	59	High	1.5	Vague	2	12	18	36	27.0	50.3	16.6	18	12	36	50.3	27.0	16.6	2	0.955	0.000	L	18	50.3	192.746	194.581	195.536	195.538	0
1	22072004	60	High	1.5	Precise	1	13	18	2	25.7	50.3	1.3	2	13	18	1.3	25.7	50.3	2	0.993	0.000	R	18	50.3	196.041	197.887	198.880	198.882	0
1	22072004	61	High	1.5	Precise	1	12	8	6	27.0	30.6	3.3	8	12	6	30.6	27.0	3.3	2	0.783	0.001	L	8	30.6	227.599	229.186	229.968	229.971	0
1	22072004	62	High	1.5	Precise	1	12	8	2	27.0	30.6	1.3	8	2	12	30.6	1.3	27.0	2	0.816	0.001	L	8	30.6	230.473	231.888	232.704	232.706	0
1	22072004	63	High	1.5	Vague	2	13	17	25	25.7	70.8	9.1	25	13	17	9.1	25.7	70.8	2	0.735	0.001	R	17	70.8	233.209	233.857	234.592	234.594	0
1	22072004	64	High	1.5	Precise	1	13	12	11	25.7	27.0	19.3	12	13	11	27.0	25.7	19.3	3	0.909	0.001	R	11	19.3	235.097	237.235	238.144	238.147	0
1	22072004	65	High	1.5	Vague	2	8	17	22	30.6	70.8	13.3	17	8	22	70.8	30.6	13.3	2	0.642	0.001	L	17	70.8	238.650	240.734	241.376	241.379	0
1	22072004	66	High	1.5	Precise	1	13	10	9	25.7	39.1	20.9	10	13	9	39.1	25.7	20.9	3	1.054	0.000	R	9	20.9	241.881	243.538	244.592	244.594	0
1	22072004	67	High	1.5	Precise	1	12	17	6	27.0	70.8	3.3	17	6	12	70.8	3.3	27.0	2	0.611	0.001	L	17	70.8	245.097	246.589	247.200	247.203	0
1	22072004	68	High	1.5	Vague	2	13	10	21	25.7	39.1	1.9	13	10	21	25.7	39.1	1.9	2	1.207	0.001	D	10	39.1	247.706	249.130	250.336	250.339	0
1	22072004	69	High	1.5	Vague	2	8	10	36	30.6	39.1	16.6	8	10	36	30.6	39.1	16.6	1	0.630	0.001	L	8	30.6	250.842	252.971	253.600	253.602	0
1	22072004	70	High	1.5	Vague	2	18	17	24	50.3	70.8	3.6	24	17	18	3.6	70.8	50.3	2	0.651	0.001	D	17	70.8	254.106	256.997	257.648	257.650	0
1	22072004	71	High	1.5	Precise	1	10	18	4	39.1	50.3	15.6	10	18	4	39.1	50.3	15.6	2	0.941	0.001	D	18	50.3	258.154	259.411	260.352	260.354	0
1	22072004	72	High	1.5	Precise	1	10	17	11	39.1	70.8	19.3	10	11	17	39.1	19.3	70.8	1	0.697	0.001	L	10	39.1	260.857	261.735	262.432	262.435	0
1	22072004	73	High	1.5	Precise	1	13	8	11	25.7	30.6	19.3	8	13	11	30.6	25.7	19.3	2	0.919	0.001	L	8	30.6	262.938	265.881	266.800	266.802	0
1	22072004	74	High	1.5	Vague	2	10	18	25	39.1	50.3	9.1	10	25	18	39.1	9.1	50.3	1	1.233	0.001	L	10	39.1	267.305	269.183	270.416	270.419	0
1	22072004	75	High	1.5	Vague	2	13	18	36	25.7	50.3	16.6	18	13	36	50.3	25.7	16.6	2	1.456	0.000	L	18	50.3	270.921	273.584	275.040	275.042	0
1	22072004	76	High	1.5	Precise	1	8	10	3	30.6	39.1	3.4	8	10	3	30.6	39.1	3.4	1	0.621	0.001	L	8	30.6	275.545	277.139	277.760	277.762	0
1	22072004	77	High	1.5	Vague	2	12	10	36	27.0	39.1	16.6	10	12	36	39.1	27.0	16.6	2	0.839	0.001	L	10	39.1	278.265	279.641	280.480	280.482	0
1	22072004	78	High	1.5	Vague	2	8	18	24	30.6	50.3	3.6	8	18	24	30.6	50.3	3.6	1	1.033	0.000	L	8	30.6	280.985	281.607	282.640	282.642	0
1	22072004	79	High	1.5	Vague	2	13	10	22	25.7	39.1	13.3	10	22	13	39.1	13.3	25.7	2	0.851	0.000	L	10	39.1	283.146	284.876	285.728	285.730	0
1	22072004	80	High	1.5	Precise	1	12	18	4	27.0	50.3	15.6	12	18	4	27.0	50.3	15.6	2	1.136	0.000	D	18	50.3	286.233	289.216	290.352	290.355	0
1	22072004	81	High	1.5	Precise	1	13	12	9	25.7	27.0	20.9	12	9	13	27.0	20.9	25.7	3	0.820	0.001	D	9	20.9	290.857	291.500	292.320	292.323	0
1	22072004	82	High	1.5	Vague	2	13	18	20	25.7	50.3	3.2	13	20	18	25.7	3.2	50.3	NaN	NaN	NaN	NaN	NaN	NaN	292.826	294.255	NaN	295.745	1
1	22072004	83	High	1.5	Precise	1	18	17	11	50.3	70.8	19.3	17	18	11	70.8	50.3	19.3	2	0.652	0.001	L	17	70.8	297.748	299.524	300.176	300.179	0
1	22072004	84	High	1.5	Vague	2	13	8	22	25.7	30.6	13.3	22	8	13	13.3	30.6	25.7	2	1.062	0.001	D	8	30.6	300.681	303.290	304.352	304.354	0
1	22072004	85	High	1.5	Vague	2	8	10	24	30.6	39.1	3.6	8	10	24	30.6	39.1	3.6	1	0.553	0.001	L	8	30.6	304.858	306.679	307.232	307.235	0
1	22072004	86	High	1.5	Precise	1	13	17	4	25.7	70.8	15.6	13	17	4	25.7	70.8	15.6	2	0.654	0.001	D	17	70.8	307.738	308.402	309.056	309.058	0
1	22072004	87	High	1.5	Vague	2	13	12	22	25.7	27.0	13.3	13	12	22	25.7	27.0	13.3	2	0.970	0.001	D	12	27.0	309.561	310.214	311.184	311.187	0
1	22072004	88	High	1.5	Precise	1	12	10	11	27.0	39.1	19.3	10	11	12	39.1	19.3	27.0	2	1.049	0.001	L	10	39.1	311.690	312.439	313.488	313.490	0
1	22072004	89	High	1.5	Vague	2	12	10	22	27.0	39.1	13.3	12	22	10	27.0	13.3	39.1	2	0.819	0.001	R	10	39.1	313.993	314.541	315.360	315.363	0
1	22072004	90	High	1.5	Precise	1	12	18	11	27.0	50.3	19.3	12	11	18	27.0	19.3	50.3	1	1.036	0.001	L	12	27.0	315.866	318.516	319.552	319.554	0
1	22072004	91	High	1.5	Vague	2	8	18	21	30.6	50.3	1.9	8	18	21	30.6	50.3	1.9	1	0.836	0.001	L	8	30.6	320.057	322.524	323.360	323.362	0
1	22072004	92	High	1.5	Precise	1	8	10	11	30.6	39.1	19.3	11	8	10	19.3	30.6	39.1	1	0.745	0.000	D	8	30.6	323.866	325.495	326.240	326.242	0
1	22072004	93	High	1.5	Precise	1	13	17	3	25.7	70.8	3.4	13	3	17	25.7	3.4	70.8	2	0.810	0.001	R	17	70.8	326.745	328.934	329.744	329.746	0
1	22072004	94	High	1.5	Vague	2	13	12	25	25.7	27.0	9.1	25	12	13	9.1	27.0	25.7	2	0.865	0.000	D	12	27.0	330.249	330.815	331.680	331.683	0
1	22072004	95	High	1.5	Precise	1	13	12	4	25.7	27.0	15.6	13	12	4	25.7	27.0	15.6	1	1.079	0.000	L	13	25.7	332.185	333.801	334.880	334.882	0
1	22072004	96	High	1.5	Precise	1	18	17	6	50.3	70.8	3.3	18	6	17	50.3	3.3	70.8	2	0.545	0.000	R	17	70.8	335.385	336.558	337.104	337.106	0
1	22072004	97	High	1.5	Precise	1	8	10	9	30.6	39.1	20.9	10	9	8	39.1	20.9	30.6	1	0.591	0.000	R	8	30.6	337.609	338.337	338.928	338.930	0
1	22072004	98	High	1.5	Vague	2	8	10	20	30.6	39.1	3.2	8	10	20	30.6	39.1	3.2	1	0.858	0.000	L	8	30.6	339.433	342.214	343.072	343.075	0
1	22072004	99	High	1.5	Vague	2	8	10	25	30.6	39.1	9.1	10	8	25	39.1	30.6	9.1	1	0.724	0.000	D	8	30.6	343.578	346.060	346.784	346.786	0
1	22072004	100	High	1.5	Vague	2	12	18	21	27.0	50.3	1.9	18	21	12	50.3	1.9	27.0	1	0.782	0.000	R	12	27.0	347.289	349.170	349.952	349.954	0
1	22072004	101	High	1.5	Vague	2	13	8	25	25.7	30.6	9.1	13	25	8	25.7	9.1	30.6	2	0.845	0.001	R	8	30.6	350.457	351.491	352.336	352.339	0
1	22072004	102	High	1.5	Vague	2	12	10	25	27.0	39.1	9.1	12	10	25	27.0	39.1	9.1	2	0.898	0.001	D	10	39.1	352.841	354.222	355.120	355.122	0
1	22072004	103	High	1.5	Vague	2	12	10	20	27.0	39.1	3.2	10	12	20	39.1	27.0	3.2	2	0.555	0.000	L	10	39.1	355.625	356.901	357.456	357.458	0
1	22072004	104	High	1.5	Vague	2	13	17	22	25.7	70.8	13.3	13	22	17	25.7	13.3	70.8	2	0.837	0.000	R	17	70.8	357.961	358.746	359.584	359.586	0
1	22072004	105	High	1.5	Vague	2	10	17	25	39.1	70.8	9.1	25	17	10	9.1	70.8	39.1	2	0.617	0.001	D	17	70.8	360.089	362.487	363.104	363.107	0
1	22072004	106	High	1.5	Precise	1	10	17	4	39.1	70.8	15.6	10	17	4	39.1	70.8	15.6	2	0.525	0.001	D	17	70.8	363.609	366.228	366.752	366.755	0
1	22072004	107	High	1.5	Precise	1	10	18	9	39.1	50.3	20.9	10	9	18	39.1	20.9	50.3	3	1.106	0.000	D	9	20.9	367.258	368.462	369.568	369.570	0
1	22072004	108	High	1.5	Vague	2	18	17	36	50.3	70.8	16.6	36	18	17	16.6	50.3	70.8	2	0.689	0.000	R	17	70.8	370.073	370.895	371.584	371.586	0
1	22072004	109	High	1.5	Vague	2	12	10	21	27.0	39.1	1.9	12	21	10	27.0	1.9	39.1	2	0.867	0.001	R	10	39.1	372.089	374.670	375.536	375.539	0
1	22072004	110	High	1.5	Vague	2	8	18	25	30.6	50.3	9.1	18	8	25	50.3	30.6	9.1	1	0.641	0.000	D	8	30.6	376.041	376.655	377.296	377.298	0
1	22072004	111	High	1.5	Precise	1	10	18	11	39.1	50.3	19.3	11	10	18	19.3	39.1	50.3	1	0.805	0.001	D	10	39.1	377.802	380.284	381.088	381.090	0
1	22072004	112	High	1.5	Vague	2	10	17	22	39.1	70.8	13.3	22	10	17	13.3	39.1	70.8	2	0.643	0.000	R	17	70.8	381.593	384.445	385.088	385.090	0
1	22072004	113	High	1.5	Vague	2	8	18	36	30.6	50.3	16.6	18	36	8	50.3	16.6	30.6	1	0.588	0.001	R	8	30.6	385.593	386.485	387.072	387.075	0
1	22072004	114	High	1.5	Vague	2	12	17	25	27.0	70.8	9.1	25	17	12	9.1	70.8	27.0	2	0.744	0.000	D	17	70.8	387.578	388.584	389.328	389.331	0
1	22072004	115	High	1.5	Vague	2	12	8	36	27.0	30.6	16.6	12	36	8	27.0	16.6	30.6	2	0.597	0.000	R	8	30.6	389.833	390.922	391.520	391.522	0
1	22072004	116	High	1.5	Precise	1	13	10	11	25.7	39.1	19.3	13	11	10	25.7	19.3	39.1	3	0.974	0.001	D	11	19.3	392.026	392.610	393.584	393.587	0
1	22072004	117	High	1.5	Precise	1	8	18	2	30.6	50.3	1.3	8	18	2	30.6	50.3	1.3	1	0.824	0.000	L	8	30.6	394.090	396.856	397.680	397.682	0
1	22072004	118	High	1.5	Vague	2	10	18	24	39.1	50.3	3.6	10	18	24	39.1	50.3	3.6	1	0.989	0.000	L	10	39.1	398.185	401.075	402.064	402.066	0
1	22072004	119	High	1.5	Precise	1	13	18	6	25.7	50.3	3.3	13	18	6	25.7	50.3	3.3	3	1.282	0.000	R	6	3.3	402.569	403.374	404.656	404.658	0
1	22072004	120	High	1.5	Precise	1	10	17	9	39.1	70.8	20.9	17	9	10	70.8	20.9	39.1	2	0.569	0.001	L	17	70.8	405.161	407.527	408.096	408.099	0
1	22072004	121	High	1.5	Precise	1	12	10	2	27.0	39.1	1.3	2	10	12	1.3	39.1	27.0	2	0.851	0.001	D	10	39.1	426.273	429.261	430.112	430.115	0
1	22072004	122	High	1.5	Precise	1	10	18	3	39.1	50.3	3.4	18	3	10	50.3	3.4	39.1	1	0.804	0.001	R	10	39.1	430.617	432.940	433.744	433.747	0
1	22072004	123	High	1.5	Precise	1	10	17	3	39.1	70.8	3.4	17	10	3	70.8	39.1	3.4	2	0.625	0.000	L	17	70.8	434.250	436.191	436.816	436.819	0
1	22072004	124	High	1.5	Vague	2	18	17	21	50.3	70.8	1.9	18	17	21	50.3	70.8	1.9	2	0.823	0.001	D	17	70.8	437.321	439.945	440.768	440.771	0
1	22072004	125	High	1.5	Vague	2	13	18	25	25.7	50.3	9.1	18	13	25	50.3	25.7	9.1	2	1.015	0.000	L	18	50.3	441.273	442.874	443.888	443.890	0
1	22072004	126	High	1.5	Precise	1	10	18	6	39.1	50.3	3.3	6	18	10	3.3	50.3	39.1	2	0.883	0.000	D	18	50.3	444.394	445.613	446.496	446.498	0
1	22072004	127	High	1.5	Precise	1	13	18	11	25.7	50.3	19.3	13	18	11	25.7	50.3	19.3	2	1.111	0.001	D	18	50.3	447.001	449.306	450.416	450.419	0
1	22072004	128	High	1.5	Precise	1	13	18	3	25.7	50.3	3.4	13	3	18	25.7	3.4	50.3	2	1.122	0.000	R	18	50.3	450.921	453.454	454.576	454.579	0
1	22072004	129	High	1.5	Vague	2	12	17	24	27.0	70.8	3.6	17	12	24	70.8	27.0	3.6	2	0.624	0.000	L	17	70.8	455.081	456.528	457.152	457.154	0
1	22072004	130	High	1.5	Vague	2	13	18	24	25.7	50.3	3.6	18	13	24	50.3	25.7	3.6	2	0.897	0.000	L	18	50.3	457.657	460.047	460.944	460.946	0
1	22072004	131	High	1.5	Precise	1	10	17	6	39.1	70.8	3.3	10	17	6	39.1	70.8	3.3	2	0.557	0.001	D	17	70.8	461.449	463.859	464.416	464.418	0
1	22072004	132	High	1.5	Precise	1	12	8	3	27.0	30.6	3.4	3	12	8	3.4	27.0	30.6	2	0.892	0.001	R	8	30.6	464.922	467.300	468.192	468.195	0
1	22072004	133	High	1.5	Precise	1	13	8	3	25.7	30.6	3.4	8	13	3	30.6	25.7	3.4	2	0.965	0.000	L	8	30.6	468.697	470.459	471.424	471.426	0
1	22072004	134	High	1.5	Precise	1	13	17	11	25.7	70.8	19.3	13	17	11	25.7	70.8	19.3	2	0.731	0.000	D	17	70.8	471.929	472.837	473.568	473.570	0
1	22072004	135	High	1.5	Vague	2	10	18	36	39.1	50.3	16.6	10	36	18	39.1	16.6	50.3	1	0.824	0.000	L	10	39.1	474.073	476.872	477.696	477.698	0
1	22072004	136	High	1.5	Vague	2	13	10	36	25.7	39.1	16.6	13	36	10	25.7	16.6	39.1	2	0.944	0.000	R	10	39.1	478.201	479.312	480.256	480.258	0
1	22072004	137	High	1.5	Vague	2	10	18	21	39.1	50.3	1.9	18	10	21	50.3	39.1	1.9	1	0.781	0.000	D	10	39.1	480.762	482.387	483.168	483.170	0
1	22072004	138	High	1.5	Precise	1	18	17	4	50.3	70.8	15.6	4	18	17	15.6	50.3	70.8	2	0.598	0.000	R	17	70.8	483.673	485.098	485.696	485.698	0
1	22072004	139	High	1.5	Vague	2	12	17	36	27.0	70.8	16.6	12	36	17	27.0	16.6	70.8	2	0.579	0.000	R	17	70.8	486.201	489.100	489.680	489.682	0
1	22072004	140	High	1.5	Vague	2	10	18	20	39.1	50.3	3.2	10	20	18	39.1	3.2	50.3	1	0.787	0.000	L	10	39.1	490.186	492.413	493.200	493.202	0
1	22072004	141	High	1.5	Vague	2	10	17	21	39.1	70.8	1.9	17	10	21	70.8	39.1	1.9	2	0.660	0.001	L	17	70.8	493.706	494.621	495.280	495.283	0
1	22072004	142	High	1.5	Precise	1	18	17	2	50.3	70.8	1.3	18	17	2	50.3	70.8	1.3	2	0.690	0.001	D	17	70.8	495.785	498.510	499.200	499.203	0
1	22072004	143	High	1.5	Precise	1	8	18	9	30.6	50.3	20.9	9	8	18	20.9	30.6	50.3	1	0.876	0.000	D	8	30.6	499.706	502.660	503.536	503.538	0
1	22072004	144	High	1.5	Precise	1	12	17	2	27.0	70.8	1.3	12	17	2	27.0	70.8	1.3	2	0.532	0.001	D	17	70.8	504.041	505.196	505.728	505.731	0
1	22072004	145	High	1.5	Vague	2	18	17	20	50.3	70.8	3.2	18	20	17	50.3	3.2	70.8	2	0.642	0.000	R	17	70.8	506.233	506.862	507.504	507.506	0
1	22072004	146	High	1.5	Precise	1	13	8	9	25.7	30.6	20.9	9	13	8	20.9	25.7	30.6	2	0.800	0.000	R	8	30.6	508.009	508.752	509.552	509.554	0
1	22072004	147	High	1.5	Vague	2	12	8	21	27.0	30.6	1.9	8	12	21	30.6	27.0	1.9	2	0.745	0.000	L	8	30.6	510.057	511.959	512.704	512.706	0
1	22072004	148	High	1.5	Precise	1	10	18	2	39.1	50.3	1.3	2	10	18	1.3	39.1	50.3	1	0.868	0.001	D	10	39.1	513.209	514.940	515.808	515.811	0
1	22072004	149	High	1.5	Precise	1	12	10	9	27.0	39.1	20.9	10	9	12	39.1	20.9	27.0	2	1.170	0.001	L	10	39.1	516.313	518.238	519.408	519.411	0
1	22072004	150	High	1.5	Vague	2	8	17	24	30.6	70.8	3.6	17	8	24	70.8	30.6	3.6	2	0.573	0.000	L	17	70.8	519.914	522.643	523.216	523.218	0
1	22072004	151	High	1.5	Vague	2	10	18	22	39.1	50.3	13.3	18	22	10	50.3	13.3	39.1	1	1.170	0.001	R	10	39.1	523.721	525.950	527.120	527.123	0
1	22072004	152	High	1.5	Precise	1	18	17	9	50.3	70.8	20.9	17	18	9	70.8	50.3	20.9	2	0.519	0.000	L	17	70.8	527.626	529.369	529.888	529.890	0
1	22072004	153	High	1.5	Vague	2	8	17	20	30.6	70.8	3.2	20	8	17	3.2	30.6	70.8	2	0.589	0.001	R	17	70.8	530.393	533.347	533.936	533.939	0
1	22072004	154	High	1.5	Vague	2	8	17	21	30.6	70.8	1.9	21	8	17	1.9	30.6	70.8	2	0.541	0.000	R	17	70.8	534.441	536.947	537.488	537.490	0
1	22072004	155	High	1.5	Vague	2	13	17	24	25.7	70.8	3.6	17	24	13	70.8	3.6	25.7	2	0.546	0.001	L	17	70.8	537.993	538.654	539.200	539.202	0
1	22072004	156	High	1.5	Precise	1	13	8	4	25.7	30.6	15.6	4	13	8	15.6	25.7	30.6	2	0.930	0.000	R	8	30.6	539.705	541.982	542.912	542.915	0
1	22072004	157	High	1.5	Vague	2	8	17	25	30.6	70.8	9.1	25	17	8	9.1	70.8	30.6	2	0.778	0.001	D	17	70.8	543.417	544.886	545.664	545.667	0
1	22072004	158	High	1.5	Precise	1	8	17	9	30.6	70.8	20.9	9	8	17	20.9	30.6	70.8	2	0.596	0.000	R	17	70.8	546.170	546.876	547.472	547.474	0
1	22072004	159	High	1.5	Vague	2	13	12	20	25.7	27.0	3.2	12	20	13	27.0	3.2	25.7	NaN	NaN	NaN	NaN	NaN	NaN	547.977	548.564	NaN	550.053	1
1	22072004	160	High	1.5	Precise	1	8	10	2	30.6	39.1	1.3	2	10	8	1.3	39.1	30.6	1	0.608	0.001	R	8	30.6	552.057	553.360	553.968	553.971	0
1	22072004	161	High	1.5	Vague	2	12	8	22	27.0	30.6	13.3	22	8	12	13.3	30.6	27.0	2	0.751	0.001	D	8	30.6	554.474	556.849	557.600	557.603	0
1	22072004	162	High	1.5	Precise	1	12	18	6	27.0	50.3	3.3	6	18	12	3.3	50.3	27.0	3	0.886	0.000	L	6	3.3	558.106	558.698	559.584	559.586	0
1	22072004	163	High	1.5	Vague	2	13	12	36	25.7	27.0	16.6	13	12	36	25.7	27.0	16.6	2	1.185	0.000	D	12	27.0	560.089	561.871	563.056	563.059	0
1	22072004	164	High	1.5	Precise	1	8	17	6	30.6	70.8	3.3	6	8	17	3.3	30.6	70.8	2	0.662	0.001	R	17	70.8	563.562	564.362	565.024	565.027	0
1	22072004	165	High	1.5	Vague	2	18	17	25	50.3	70.8	9.1	18	25	17	50.3	9.1	70.8	2	0.557	0.000	R	17	70.8	565.530	568.435	568.992	568.995	0
1	22072004	166	High	1.5	Vague	2	8	17	36	30.6	70.8	16.6	36	17	8	16.6	70.8	30.6	2	0.617	0.001	D	17	70.8	569.498	570.727	571.344	571.346	0
1	22072004	167	High	1.5	Precise	1	8	18	6	30.6	50.3	3.3	18	8	6	50.3	30.6	3.3	1	0.681	0.001	D	8	30.6	571.849	573.480	574.160	574.163	0
1	22072004	168	High	1.5	Vague	2	12	8	24	27.0	30.6	3.6	8	12	24	30.6	27.0	3.6	2	0.762	0.001	L	8	30.6	574.665	576.966	577.728	577.731	0
1	22072004	169	High	1.5	Precise	1	12	17	4	27.0	70.8	15.6	4	17	12	15.6	70.8	27.0	2	0.681	0.001	D	17	70.8	578.234	580.151	580.832	580.834	0
1	22072004	170	High	1.5	Vague	2	18	17	22	50.3	70.8	13.3	22	17	18	13.3	70.8	50.3	2	0.587	0.000	D	17	70.8	581.337	582.229	582.816	582.818	0
1	22072004	171	High	1.5	Precise	1	8	18	11	30.6	50.3	19.3	11	8	18	19.3	30.6	50.3	1	0.572	0.000	D	8	30.6	583.321	585.748	586.320	586.323	0
1	22072004	172	High	1.5	Precise	1	13	17	6	25.7	70.8	3.3	17	13	6	70.8	25.7	3.3	2	0.510	0.001	L	17	70.8	586.825	588.210	588.720	588.722	0
1	22072004	173	High	1.5	Precise	1	13	8	6	25.7	30.6	3.3	13	6	8	25.7	3.3	30.6	2	1.390	0.000	R	8	30.6	589.225	590.770	592.160	592.162	0
1	22072004	174	High	1.5	Vague	2	8	18	20	30.6	50.3	3.2	18	20	8	50.3	3.2	30.6	1	0.578	0.000	R	8	30.6	592.666	593.422	594.000	594.003	0
1	22072004	175	High	1.5	Vague	2	13	8	20	25.7	30.6	3.2	8	20	13	30.6	3.2	25.7	2	0.825	0.001	L	8	30.6	594.506	595.287	596.112	596.114	0
1	22072004	176	High	1.5	Vague	2	13	10	20	25.7	39.1	3.2	13	20	10	25.7	3.2	39.1	2	1.153	0.001	R	10	39.1	596.618	598.287	599.440	599.443	0
1	22072004	177	High	1.5	Precise	1	13	12	6	25.7	27.0	3.3	12	6	13	27.0	3.3	25.7	3	1.216	0.000	D	6	3.3	599.946	600.560	601.776	601.778	0
1	22072004	178	High	1.5	Vague	2	13	8	21	25.7	30.6	1.9	21	13	8	1.9	25.7	30.6	2	0.586	0.000	R	8	30.6	602.282	604.662	605.248	605.250	0
1	22072004	179	High	1.5	Vague	2	13	10	25	25.7	39.1	9.1	10	25	13	39.1	9.1	25.7	2	0.755	0.000	L	10	39.1	605.753	606.285	607.040	607.042	0
1	22072004	180	High	1.5	Vague	2	13	17	20	25.7	70.8	3.2	17	13	20	70.8	25.7	3.2	2	0.607	0.001	L	17	70.8	607.545	609.362	609.968	609.971	0
1	22072004	181	Low	10.0	Precise	1	13	8	5	25.7	30.6	7.5	8	5	13	30.6	7.5	25.7	2	0.844	0.000	L	8	30.6	619.980	621.763	622.608	622.610	0
1	22072004	182	Low	10.0	Vague	2	13	8	28	25.7	30.6	14.4	8	13	28	30.6	25.7	14.4	2	0.785	0.000	L	8	30.6	623.113	623.759	624.544	624.547	0
1	22072004	183	Low	10.0	Vague	2	10	17	26	39.1	70.8	19.9	17	10	26	70.8	39.1	19.9	2	0.659	0.000	L	17	70.8	625.050	627.789	628.448	628.451	0
1	22072004	184	Low	10.0	Precise	1	13	18	14	25.7	50.3	20.5	14	18	13	20.5	50.3	25.7	3	1.485	0.000	L	14	20.5	628.954	629.683	631.168	631.171	0
1	22072004	185	Low	10.0	Precise	1	10	18	5	39.1	50.3	7.5	10	18	5	39.1	50.3	7.5	2	0.590	0.001	D	18	50.3	631.674	633.410	634.000	634.003	0
1	22072004	186	Low	10.0	Vague	2	13	12	31	25.7	27.0	7.6	31	12	13	7.6	27.0	25.7	3	1.049	0.000	L	31	7.6	634.505	635.080	636.128	636.131	0
1	22072004	187	Low	10.0	Precise	1	8	17	14	30.6	70.8	20.5	17	14	8	70.8	20.5	30.6	2	0.710	0.001	L	17	70.8	636.633	638.890	639.600	639.603	0
1	22072004	188	Low	10.0	Vague	2	13	12	28	25.7	27.0	14.4	13	28	12	25.7	14.4	27.0	3	1.136	0.001	D	28	14.4	640.105	642.416	643.552	643.555	0
1	22072004	189	Low	10.0	Precise	1	13	17	14	25.7	70.8	20.5	17	14	13	70.8	20.5	25.7	2	0.715	0.000	L	17	70.8	644.057	646.261	646.976	646.978	0
1	22072004	190	Low	10.0	Vague	2	12	10	26	27.0	39.1	19.9	26	10	12	19.9	39.1	27.0	2	1.239	0.000	D	10	39.1	647.481	648.266	649.504	649.507	0
1	22072004	191	Low	10.0	Precise	1	13	18	7	25.7	50.3	2.8	13	18	7	25.7	50.3	2.8	2	1.036	0.000	D	18	50.3	650.010	652.133	653.168	653.171	0
1	22072004	192	Low	10.0	Vague	2	8	10	28	30.6	39.1	14.4	8	10	28	30.6	39.1	14.4	3	1.433	0.000	R	28	14.4	653.673	655.271	656.704	656.706	0
1	22072004	193	Low	10.0	Precise	1	8	18	7	30.6	50.3	2.8	8	18	7	30.6	50.3	2.8	1	0.742	0.000	L	8	30.6	657.209	658.762	659.504	659.506	0
1	22072004	194	Low	10.0	Precise	1	12	8	5	27.0	30.6	7.5	12	8	5	27.0	30.6	7.5	2	0.858	0.000	D	8	30.6	660.009	662.839	663.696	663.699	0
1	22072004	195	Low	10.0	Precise	1	12	18	14	27.0	50.3	20.5	14	18	12	20.5	50.3	27.0	2	1.024	0.000	D	18	50.3	664.201	664.768	665.792	665.795	0
1	22072004	196	Low	10.0	Precise	1	18	17	1	50.3	70.8	3.4	18	1	17	50.3	3.4	70.8	2	0.635	0.000	R	17	70.8	666.297	667.269	667.904	667.906	0
1	22072004	197	Low	10.0	Vague	2	10	18	23	39.1	50.3	3.4	18	23	10	50.3	3.4	39.1	2	0.785	0.000	L	18	50.3	668.409	669.919	670.704	670.707	0
1	22072004	198	Low	10.0	Precise	1	10	18	1	39.1	50.3	3.4	18	1	10	50.3	3.4	39.1	2	0.661	0.000	L	18	50.3	671.209	672.715	673.376	673.378	0
1	22072004	199	Low	10.0	Vague	2	8	17	28	30.6	70.8	14.4	28	8	17	14.4	30.6	70.8	1	1.126	0.001	D	8	30.6	673.881	674.810	675.936	675.939	0
1	22072004	200	Low	10.0	Vague	2	12	8	23	27.0	30.6	3.4	8	23	12	30.6	3.4	27.0	2	0.809	0.000	L	8	30.6	676.442	678.039	678.848	678.850	0
1	22072004	201	Low	10.0	Precise	1	8	10	5	30.6	39.1	7.5	10	8	5	39.1	30.6	7.5	1	0.668	0.001	D	8	30.6	679.354	681.813	682.480	682.483	0
1	22072004	202	Low	10.0	Vague	2	12	8	26	27.0	30.6	19.9	12	8	26	27.0	30.6	19.9	2	0.862	0.001	D	8	30.6	682.985	685.506	686.368	686.371	0
1	22072004	203	Low	10.0	Precise	1	12	18	7	27.0	50.3	2.8	12	18	7	27.0	50.3	2.8	1	0.649	0.001	L	12	27.0	686.874	689.063	689.712	689.715	0
1	22072004	204	Low	10.0	Vague	2	13	8	26	25.7	30.6	19.9	26	13	8	19.9	25.7	30.6	1	0.752	0.001	D	13	25.7	690.217	691.776	692.528	692.531	0
1	22072004	205	Low	10.0	Vague	2	13	18	26	25.7	50.3	19.9	26	18	13	19.9	50.3	25.7	2	2.172	0.001	D	18	50.3	693.034	694.900	697.072	697.075	0
1	22072004	206	Low	10.0	Precise	1	13	8	14	25.7	30.6	20.5	8	13	14	30.6	25.7	20.5	2	0.871	0.000	L	8	30.6	697.578	700.569	701.440	701.442	0
1	22072004	207	Low	10.0	Vague	2	12	17	31	27.0	70.8	7.6	31	17	12	7.6	70.8	27.0	2	0.757	0.001	D	17	70.8	701.945	702.731	703.488	703.491	0
1	22072004	208	Low	10.0	Vague	2	10	17	28	39.1	70.8	14.4	10	28	17	39.1	14.4	70.8	1	1.078	0.000	L	10	39.1	703.993	705.338	706.416	706.419	0
1	22072004	209	Low	10.0	Vague	2	12	10	31	27.0	39.1	7.6	10	12	31	39.1	27.0	7.6	2	0.645	0.001	L	10	39.1	706.922	707.900	708.544	708.547	0
1	22072004	210	Low	10.0	Precise	1	13	17	16	25.7	70.8	19.1	13	16	17	25.7	19.1	70.8	2	0.873	0.001	R	17	70.8	709.049	710.343	711.216	711.219	0
1	22072004	211	Low	10.0	Precise	1	18	17	14	50.3	70.8	20.5	17	18	14	70.8	50.3	20.5	2	0.653	0.001	L	17	70.8	711.722	712.451	713.104	713.107	0
1	22072004	212	Low	10.0	Precise	1	13	10	14	25.7	39.1	20.5	10	14	13	39.1	20.5	25.7	3	0.742	0.001	D	14	20.5	713.609	715.738	716.480	716.483	0
1	22072004	213	Low	10.0	Vague	2	10	18	26	39.1	50.3	19.9	26	10	18	19.9	39.1	50.3	1	0.937	0.001	D	10	39.1	716.986	719.095	720.032	720.035	0
1	22072004	214	Low	10.0	Precise	1	8	10	15	30.6	39.1	24.7	15	10	8	24.7	39.1	30.6	1	1.286	0.001	R	8	30.6	720.538	721.674	722.960	722.963	0
1	22072004	215	Low	10.0	Precise	1	13	10	15	25.7	39.1	24.7	13	10	15	25.7	39.1	24.7	2	1.130	0.001	D	10	39.1	723.465	726.006	727.136	727.139	0
1	22072004	216	Low	10.0	Precise	1	12	8	15	27.0	30.6	24.7	12	8	15	27.0	30.6	24.7	2	0.853	0.001	D	8	30.6	727.641	729.147	730.000	730.003	0
1	22072004	217	Low	10.0	Vague	2	13	10	31	25.7	39.1	7.6	13	10	31	25.7	39.1	7.6	2	1.048	0.000	D	10	39.1	730.506	733.272	734.320	734.323	0
1	22072004	218	Low	10.0	Precise	1	13	10	7	25.7	39.1	2.8	7	13	10	2.8	25.7	39.1	2	0.896	0.001	R	10	39.1	734.826	737.009	737.904	737.907	0
1	22072004	219	Low	10.0	Precise	1	8	18	14	30.6	50.3	20.5	14	18	8	20.5	50.3	30.6	1	0.723	0.001	R	8	30.6	738.410	741.037	741.760	741.763	0
1	22072004	220	Low	10.0	Vague	2	12	17	28	27.0	70.8	14.4	12	28	17	27.0	14.4	70.8	2	0.677	0.000	R	17	70.8	742.266	744.779	745.456	745.458	0
1	22072004	221	Low	10.0	Precise	1	18	17	15	50.3	70.8	24.7	15	17	18	24.7	70.8	50.3	2	0.760	0.000	D	17	70.8	745.961	747.768	748.528	748.531	0
1	22072004	222	Low	10.0	Vague	2	13	10	19	25.7	39.1	2.6	10	13	19	39.1	25.7	2.6	2	0.940	0.000	L	10	39.1	749.033	750.532	751.472	751.474	0
1	22072004	223	Low	10.0	Precise	1	13	18	5	25.7	50.3	7.5	13	18	5	25.7	50.3	7.5	2	1.128	0.000	D	18	50.3	751.978	754.536	755.664	755.667	0
1	22072004	224	Low	10.0	Vague	2	13	17	26	25.7	70.8	19.9	13	17	26	25.7	70.8	19.9	2	0.620	0.000	D	17	70.8	756.169	758.916	759.536	759.538	0
1	22072004	225	Low	10.0	Precise	1	13	12	5	25.7	27.0	7.5	13	12	5	25.7	27.0	7.5	2	1.079	0.000	D	12	27.0	760.041	762.457	763.536	763.539	0
1	22072004	226	Low	10.0	Precise	1	13	17	15	25.7	70.8	24.7	15	17	13	24.7	70.8	25.7	2	0.700	0.001	D	17	70.8	764.042	765.013	765.712	765.715	0
1	22072004	227	Low	10.0	Vague	2	13	10	23	25.7	39.1	3.4	23	13	10	3.4	25.7	39.1	2	1.618	0.001	R	10	39.1	766.218	767.406	769.024	769.027	0
1	22072004	228	Low	10.0	Vague	2	13	18	31	25.7	50.3	7.6	31	18	13	7.6	50.3	25.7	2	0.850	0.001	D	18	50.3	769.529	770.655	771.504	771.507	0
1	22072004	229	Low	10.0	Vague	2	13	18	19	25.7	50.3	2.6	19	18	13	2.6	50.3	25.7	2	0.500	0.001	D	18	50.3	772.010	773.884	774.384	774.387	0
1	22072004	230	Low	10.0	Vague	2	12	18	30	27.0	50.3	10.3	30	18	12	10.3	50.3	27.0	2	0.554	0.001	D	18	50.3	774.890	775.766	776.320	776.323	0
1	22072004	231	Low	10.0	Precise	1	8	10	7	30.6	39.1	2.8	10	8	7	39.1	30.6	2.8	1	0.697	0.000	D	8	30.6	776.825	779.287	779.984	779.987	0
1	22072004	232	Low	10.0	Precise	1	10	18	14	39.1	50.3	20.5	14	18	10	20.5	50.3	39.1	1	1.319	0.001	R	10	39.1	780.489	781.561	782.880	782.883	0
1	22072004	233	Low	10.0	Precise	1	13	12	14	25.7	27.0	20.5	14	13	12	20.5	25.7	27.0	3	0.969	0.001	L	14	20.5	783.386	785.463	786.432	786.435	0
1	22072004	234	Low	10.0	Vague	2	18	17	28	50.3	70.8	14.4	17	18	28	70.8	50.3	14.4	2	0.569	0.001	L	17	70.8	786.938	788.103	788.672	788.675	0
1	22072004	235	Low	10.0	Precise	1	10	18	15	39.1	50.3	24.7	10	18	15	39.1	50.3	24.7	1	0.772	0.000	L	10	39.1	789.178	790.524	791.296	791.298	0
1	22072004	236	Low	10.0	Vague	2	12	18	31	27.0	50.3	7.6	31	12	18	7.6	27.0	50.3	2	1.303	0.000	R	18	50.3	791.801	794.313	795.616	795.619	0
1	22072004	237	Low	10.0	Precise	1	12	17	7	27.0	70.8	2.8	12	7	17	27.0	2.8	70.8	2	0.752	0.000	R	17	70.8	796.121	796.880	797.632	797.635	0
1	22072004	238	Low	10.0	Vague	2	8	18	26	30.6	50.3	19.9	26	8	18	19.9	30.6	50.3	1	0.931	0.001	D	8	30.6	798.137	798.813	799.744	799.747	0
1	22072004	239	Low	10.0	Vague	2	13	8	31	25.7	30.6	7.6	31	13	8	7.6	25.7	30.6	2	0.645	0.001	R	8	30.6	800.249	801.803	802.448	802.451	0
1	22072004	240	Low	10.0	Precise	1	12	18	16	27.0	50.3	19.1	16	18	12	19.1	50.3	27.0	2	1.128	0.000	D	18	50.3	802.953	805.672	806.800	806.803	0
1	22072004	241	Low	10.0	Vague	2	13	12	23	25.7	27.0	3.4	23	13	12	3.4	25.7	27.0	1	1.552	0.000	D	13	25.7	811.982	813.105	814.656	814.659	0
1	22072004	242	Low	10.0	Vague	2	12	8	28	27.0	30.6	14.4	12	28	8	27.0	14.4	30.6	2	0.565	0.001	R	8	30.6	815.162	817.099	817.664	817.667	0
1	22072004	243	Low	10.0	Vague	2	10	18	19	39.1	50.3	2.6	10	18	19	39.1	50.3	2.6	1	0.862	0.000	L	10	39.1	818.170	819.138	820.000	820.002	0
1	22072004	244	Low	10.0	Precise	1	13	18	1	25.7	50.3	3.4	1	18	13	3.4	50.3	25.7	2	0.470	0.001	D	18	50.3	820.505	822.139	822.608	822.611	0
1	22072004	245	Low	10.0	Vague	2	12	8	19	27.0	30.6	2.6	12	19	8	27.0	2.6	30.6	2	0.759	0.001	R	8	30.6	823.114	824.217	824.976	824.979	0
1	22072004	246	Low	10.0	Vague	2	18	17	31	50.3	70.8	7.6	31	18	17	7.6	50.3	70.8	2	0.592	0.000	R	17	70.8	825.482	827.408	828.000	828.002	0
1	22072004	247	Low	10.0	Precise	1	13	17	1	25.7	70.8	3.4	17	1	13	70.8	3.4	25.7	2	0.637	0.001	L	17	70.8	828.505	830.740	831.376	831.379	0
1	22072004	248	Low	10.0	Precise	1	13	10	5	25.7	39.1	7.5	5	13	10	7.5	25.7	39.1	2	1.433	0.001	R	10	39.1	831.882	834.215	835.648	835.651	0
1	22072004	249	Low	10.0	Precise	1	13	8	15	25.7	30.6	24.7	13	8	15	25.7	30.6	24.7	2	1.392	0.001	D	8	30.6	836.153	838.256	839.648	839.651	0
1	22072004	250	Low	10.0	Precise	1	12	8	7	27.0	30.6	2.8	7	12	8	2.8	27.0	30.6	2	0.715	0.000	R	8	30.6	840.154	841.877	842.592	842.594	0
1	22072004	251	Low	10.0	Vague	2	13	10	30	25.7	39.1	10.3	30	10	13	10.3	39.1	25.7	2	1.271	0.001	D	10	39.1	843.097	845.738	847.008	847.011	0
1	22072004	252	Low	10.0	Precise	1	8	17	16	30.6	70.8	19.1	16	17	8	19.1	70.8	30.6	1	0.668	0.001	R	8	30.6	847.513	850.020	850.688	850.691	0
1	22072004	253	Low	10.0	Vague	2	12	10	30	27.0	39.1	10.3	30	12	10	10.3	27.0	39.1	2	1.697	0.000	R	10	39.1	851.194	852.063	853.760	853.763	0
1	22072004	254	Low	10.0	Vague	2	10	18	31	39.1	50.3	7.6	10	18	31	39.1	50.3	7.6	2	0.969	0.001	D	18	50.3	854.266	855.239	856.208	856.211	0
1	22072004	255	Low	10.0	Vague	2	13	8	23	25.7	30.6	3.4	8	13	23	30.6	25.7	3.4	2	0.739	0.000	L	8	30.6	856.714	858.525	859.264	859.267	0
1	22072004	256	Low	10.0	Precise	1	13	8	7	25.7	30.6	2.8	13	8	7	25.7	30.6	2.8	2	0.638	0.000	D	8	30.6	859.771	861.890	862.528	862.531	0
1	22072004	257	Low	10.0	Vague	2	13	18	28	25.7	50.3	14.4	13	28	18	25.7	14.4	50.3	3	0.823	0.000	D	28	14.4	863.033	863.625	864.448	864.451	0
1	22072004	258	Low	10.0	Precise	1	13	8	1	25.7	30.6	3.4	8	13	1	30.6	25.7	3.4	2	1.163	0.000	L	8	30.6	864.953	867.573	868.736	868.739	0
1	22072004	259	Low	10.0	Vague	2	13	17	30	25.7	70.8	10.3	30	13	17	10.3	25.7	70.8	2	0.988	0.000	R	17	70.8	869.241	870.644	871.632	871.635	0
1	22072004	260	Low	10.0	Vague	2	13	17	19	25.7	70.8	2.6	17	13	19	70.8	25.7	2.6	2	0.555	0.001	L	17	70.8	872.137	874.773	875.328	875.331	0
1	22072004	261	Low	10.0	Vague	2	13	17	23	25.7	70.8	3.4	17	13	23	70.8	25.7	3.4	2	0.538	0.001	L	17	70.8	875.833	877.383	877.920	877.923	0
1	22072004	262	Low	10.0	Precise	1	12	10	1	27.0	39.1	3.4	12	1	10	27.0	3.4	39.1	2	1.274	0.001	R	10	39.1	878.426	881.238	882.512	882.515	0
1	22072004	263	Low	10.0	Vague	2	10	17	30	39.1	70.8	10.3	30	10	17	10.3	39.1	70.8	2	1.171	0.001	R	17	70.8	883.018	883.613	884.784	884.787	0
1	22072004	264	Low	10.0	Precise	1	12	17	16	27.0	70.8	19.1	12	17	16	27.0	70.8	19.1	2	0.608	0.001	D	17	70.8	885.289	888.272	888.880	888.882	0
1	22072004	265	Low	10.0	Vague	2	10	17	19	39.1	70.8	2.6	10	17	19	39.1	70.8	2.6	2	1.159	0.001	D	17	70.8	889.385	890.138	891.296	891.299	0
1	22072004	266	Low	10.0	Vague	2	8	18	19	30.6	50.3	2.6	19	8	18	2.6	30.6	50.3	1	0.793	0.001	D	8	30.6	891.801	893.895	894.688	894.691	0
1	22072004	267	Low	10.0	Precise	1	13	12	16	25.7	27.0	19.1	16	12	13	19.1	27.0	25.7	3	1.241	0.000	L	16	19.1	895.194	896.647	897.888	897.890	0
1	22072004	268	Low	10.0	Precise	1	13	8	16	25.7	30.6	19.1	13	16	8	25.7	19.1	30.6	2	0.708	0.001	R	8	30.6	898.393	899.229	899.936	899.939	0
1	22072004	269	Low	10.0	Vague	2	10	17	31	39.1	70.8	7.6	17	31	10	70.8	7.6	39.1	2	0.703	0.000	L	17	70.8	900.441	902.449	903.152	903.155	0
1	22072004	270	Low	10.0	Precise	1	8	18	15	30.6	50.3	24.7	15	18	8	24.7	50.3	30.6	1	0.645	0.000	R	8	30.6	903.658	905.755	906.400	906.402	0
1	22072004	271	Low	10.0	Precise	1	13	17	7	25.7	70.8	2.8	13	17	7	25.7	70.8	2.8	2	0.560	0.001	D	17	70.8	906.905	909.169	909.728	909.731	0
1	22072004	272	Low	10.0	Vague	2	18	17	23	50.3	70.8	3.4	17	18	23	70.8	50.3	3.4	2	0.679	0.001	L	17	70.8	910.233	912.281	912.960	912.963	0
1	22072004	273	Low	10.0	Vague	2	8	18	31	30.6	50.3	7.6	31	18	8	7.6	50.3	30.6	1	0.678	0.001	R	8	30.6	913.465	916.427	917.104	917.107	0
1	22072004	274	Low	10.0	Precise	1	12	10	7	27.0	39.1	2.8	7	10	12	2.8	39.1	27.0	2	1.208	0.000	D	10	39.1	917.609	918.809	920.016	920.019	0
1	22072004	275	Low	10.0	Vague	2	12	10	28	27.0	39.1	14.4	12	10	28	27.0	39.1	14.4	3	1.098	0.001	R	28	14.4	920.522	921.255	922.352	922.355	0
1	22072004	276	Low	10.0	Vague	2	13	12	19	25.7	27.0	2.6	19	12	13	2.6	27.0	25.7	2	2.370	0.000	D	12	27.0	922.859	923.822	926.192	926.194	0
1	22072004	277	Low	10.0	Vague	2	13	18	23	25.7	50.3	3.4	18	23	13	50.3	3.4	25.7	2	1.023	0.000	L	18	50.3	926.697	928.705	929.728	929.731	0
1	22072004	278	Low	10.0	Precise	1	12	10	5	27.0	39.1	7.5	12	10	5	27.0	39.1	7.5	2	0.935	0.001	D	10	39.1	930.235	931.417	932.352	932.355	0
1	22072004	279	Low	10.0	Precise	1	12	8	1	27.0	30.6	3.4	8	1	12	30.6	3.4	27.0	2	0.853	0.000	L	8	30.6	932.857	934.188	935.040	935.043	0
1	22072004	280	Low	10.0	Precise	1	12	17	1	27.0	70.8	3.4	1	17	12	3.4	70.8	27.0	2	0.622	0.000	D	17	70.8	935.546	937.731	938.352	938.355	0
1	22072004	281	Low	10.0	Precise	1	8	17	1	30.6	70.8	3.4	8	1	17	30.6	3.4	70.8	2	0.648	0.001	R	17	70.8	938.858	940.104	940.752	940.755	0
1	22072004	282	Low	10.0	Precise	1	10	18	16	39.1	50.3	19.1	10	18	16	39.1	50.3	19.1	2	1.007	0.001	D	18	50.3	941.257	943.329	944.336	944.339	0
1	22072004	283	Low	10.0	Precise	1	10	17	15	39.1	70.8	24.7	10	17	15	39.1	70.8	24.7	2	0.786	0.001	D	17	70.8	944.841	946.206	946.992	946.995	0
1	22072004	284	Low	10.0	Precise	1	12	8	14	27.0	30.6	20.5	12	8	14	27.0	30.6	20.5	2	0.849	0.001	D	8	30.6	947.497	949.327	950.176	950.179	0
1	22072004	285	Low	10.0	Vague	2	8	10	30	30.6	39.1	10.3	30	8	10	10.3	30.6	39.1	1	0.527	0.001	D	8	30.6	950.682	953.666	954.192	954.195	0
1	22072004	286	Low	10.0	Vague	2	10	18	30	39.1	50.3	10.3	18	10	30	50.3	39.1	10.3	1	0.755	0.000	D	10	39.1	954.697	957.213	957.968	957.971	0
1	22072004	287	Low	10.0	Precise	1	13	10	16	25.7	39.1	19.1	13	16	10	25.7	19.1	39.1	2	2.335	0.000	R	10	39.1	958.473	959.233	961.568	961.571	0
1	22072004	288	Low	10.0	Vague	2	8	18	28	30.6	50.3	14.4	8	28	18	30.6	14.4	50.3	3	1.389	0.000	D	28	14.4	962.074	964.243	965.632	965.635	0
1	22072004	289	Low	10.0	Precise	1	8	10	14	30.6	39.1	20.5	8	10	14	30.6	39.1	20.5	1	1.014	0.001	L	8	30.6	966.137	966.730	967.744	967.747	0
1	22072004	290	Low	10.0	Precise	1	18	17	7	50.3	70.8	2.8	17	18	7	70.8	50.3	2.8	2	0.760	0.000	L	17	70.8	968.249	969.944	970.704	970.707	0
1	22072004	291	Low	10.0	Vague	2	13	17	28	25.7	70.8	14.4	28	17	13	14.4	70.8	25.7	2	0.684	0.001	D	17	70.8	971.210	974.020	974.705	974.707	0
1	22072004	292	Low	10.0	Vague	2	8	10	19	30.6	39.1	2.6	19	10	8	2.6	39.1	30.6	1	0.770	0.000	R	8	30.6	975.210	977.486	978.256	978.258	0
1	22072004	293	Low	10.0	Precise	1	8	17	5	30.6	70.8	7.5	8	5	17	30.6	7.5	70.8	2	1.000	0.000	R	17	70.8	978.761	980.440	981.440	981.443	0
1	22072004	294	Low	10.0	Precise	1	8	17	7	30.6	70.8	2.8	17	8	7	70.8	30.6	2.8	1	0.784	0.001	D	8	30.6	981.946	984.032	984.816	984.819	0
1	22072004	295	Low	10.0	Vague	2	8	17	26	30.6	70.8	19.9	8	17	26	30.6	70.8	19.9	2	0.627	0.000	D	17	70.8	985.321	986.110	986.736	986.739	0
1	22072004	296	Low	10.0	Vague	2	13	8	30	25.7	30.6	10.3	8	30	13	30.6	10.3	25.7	2	0.899	0.001	L	8	30.6	987.241	988.206	989.104	989.107	0
1	22072004	297	Low	10.0	Vague	2	12	18	23	27.0	50.3	3.4	23	18	12	3.4	50.3	27.0	2	0.986	0.001	D	18	50.3	989.610	990.150	991.136	991.139	0
1	22072004	298	Low	10.0	Precise	1	8	18	5	30.6	50.3	7.5	18	8	5	50.3	30.6	7.5	1	0.818	0.000	D	8	30.6	991.642	993.646	994.464	994.467	0
1	22072004	299	Low	10.0	Precise	1	13	18	16	25.7	50.3	19.1	16	13	18	19.1	25.7	50.3	1	1.225	0.001	D	13	25.7	994.969	996.648	997.872	997.875	0
1	22072004	300	Low	10.0	Vague	2	18	17	19	50.3	70.8	2.6	18	19	17	50.3	2.6	70.8	2	0.669	0.000	R	17	70.8	998.378	999.203	999.872	999.874	0
1	22072004	301	Low	10.0	Vague	2	8	17	30	30.6	70.8	10.3	17	8	30	70.8	30.6	10.3	2	1.113	0.001	L	17	70.8	1006.285	1008.807	1009.920	1009.923	0
1	22072004	302	Low	10.0	Precise	1	12	10	15	27.0	39.1	24.7	10	12	15	39.1	27.0	24.7	2	0.849	0.000	L	10	39.1	1010.425	1011.231	1012.080	1012.082	0
1	22072004	303	Low	10.0	Vague	2	12	17	23	27.0	70.8	3.4	23	17	12	3.4	70.8	27.0	2	0.660	0.000	D	17	70.8	1012.586	1014.285	1014.944	1014.947	0
1	22072004	304	Low	10.0	Vague	2	8	17	19	30.6	70.8	2.6	8	17	19	30.6	70.8	2.6	2	0.846	0.000	D	17	70.8	1015.450	1016.003	1016.848	1016.851	0
1	22072004	305	Low	10.0	Vague	2	18	17	30	50.3	70.8	10.3	17	18	30	70.8	50.3	10.3	2	0.625	0.000	L	17	70.8	1017.353	1019.247	1019.872	1019.875	0
1	22072004	306	Low	10.0	Precise	1	13	18	15	25.7	50.3	24.7	18	15	13	50.3	24.7	25.7	3	0.650	0.001	D	15	24.7	1020.377	1021.254	1021.904	1021.907	0
1	22072004	307	Low	10.0	Vague	2	12	10	19	27.0	39.1	2.6	19	10	12	2.6	39.1	27.0	2	0.735	0.000	D	10	39.1	1022.409	1023.106	1023.840	1023.843	0
1	22072004	308	Low	10.0	Vague	2	8	18	30	30.6	50.3	10.3	18	8	30	50.3	30.6	10.3	1	0.569	0.001	D	8	30.6	1024.346	1026.728	1027.296	1027.299	0
1	22072004	309	Low	10.0	Vague	2	13	10	26	25.7	39.1	19.9	26	13	10	19.9	25.7	39.1	3	1.209	0.000	L	26	19.9	1027.802	1028.567	1029.776	1029.779	0
1	22072004	310	Low	10.0	Precise	1	10	17	7	39.1	70.8	2.8	17	7	10	70.8	2.8	39.1	2	0.839	0.001	L	17	70.8	1030.281	1032.762	1033.600	1033.603	0
1	22072004	311	Low	10.0	Precise	1	10	17	14	39.1	70.8	20.5	14	17	10	20.5	70.8	39.1	2	0.558	0.001	D	17	70.8	1034.106	1036.866	1037.424	1037.428	0
1	22072004	312	Low	10.0	Precise	1	8	18	1	30.6	50.3	3.4	1	18	8	3.4	50.3	30.6	2	0.672	0.000	D	18	50.3	1037.930	1039.168	1039.840	1039.843	0
1	22072004	313	Low	10.0	Precise	1	12	18	1	27.0	50.3	3.4	18	1	12	50.3	3.4	27.0	2	0.679	0.000	L	18	50.3	1040.346	1042.233	1042.912	1042.914	0
1	22072004	314	Low	10.0	Precise	1	12	17	14	27.0	70.8	20.5	12	14	17	27.0	20.5	70.8	2	0.929	0.000	R	17	70.8	1043.417	1044.127	1045.056	1045.059	0
1	22072004	315	Low	10.0	Vague	2	12	10	23	27.0	39.1	3.4	12	23	10	27.0	3.4	39.1	2	1.029	0.000	R	10	39.1	1045.562	1046.763	1047.792	1047.795	0
1	22072004	316	Low	10.0	Precise	1	18	17	5	50.3	70.8	7.5	5	17	18	7.5	70.8	50.3	2	0.650	0.001	D	17	70.8	1048.298	1050.903	1051.552	1051.555	0
1	22072004	317	Low	10.0	Precise	1	12	18	5	27.0	50.3	7.5	5	18	12	7.5	50.3	27.0	2	0.595	0.001	D	18	50.3	1052.058	1054.365	1054.960	1054.963	0
1	22072004	318	Low	10.0	Precise	1	18	17	16	50.3	70.8	19.1	18	17	16	50.3	70.8	19.1	2	0.538	0.000	D	17	70.8	1055.465	1057.302	1057.840	1057.843	0
1	22072004	319	Low	10.0	Precise	1	10	17	16	39.1	70.8	19.1	16	10	17	19.1	39.1	70.8	2	1.052	0.001	R	17	70.8	1058.345	1059.333	1060.384	1060.387	0
1	22072004	320	Low	10.0	Precise	1	13	12	1	25.7	27.0	3.4	1	13	12	3.4	25.7	27.0	2	1.875	0.001	R	12	27.0	1060.889	1062.733	1064.608	1064.611	0
1	22072004	321	Low	10.0	Vague	2	13	18	30	25.7	50.3	10.3	13	30	18	25.7	10.3	50.3	2	1.143	0.001	R	18	50.3	1065.113	1067.706	1068.848	1068.851	0
1	22072004	322	Low	10.0	Vague	2	18	17	26	50.3	70.8	19.9	17	18	26	70.8	50.3	19.9	2	0.843	0.001	L	17	70.8	1069.353	1071.638	1072.480	1072.483	0
1	22072004	323	Low	10.0	Precise	1	12	17	15	27.0	70.8	24.7	15	17	12	24.7	70.8	27.0	2	0.602	0.001	D	17	70.8	1072.986	1074.391	1074.992	1074.995	0
1	22072004	324	Low	10.0	Vague	2	8	10	23	30.6	39.1	3.4	8	10	23	30.6	39.1	3.4	1	2.821	0.001	L	8	30.6	1075.498	1076.844	1079.665	1079.667	0
1	22072004	325	Low	10.0	Precise	1	8	10	16	30.6	39.1	19.1	16	8	10	19.1	30.6	39.1	1	1.013	0.000	D	8	30.6	1080.170	1083.083	1084.096	1084.099	0
1	22072004	326	Low	10.0	Precise	1	8	10	1	30.6	39.1	3.4	1	8	10	3.4	30.6	39.1	1	1.154	0.001	D	8	30.6	1084.601	1087.582	1088.736	1088.739	0
1	22072004	327	Low	10.0	Precise	1	13	10	1	25.7	39.1	3.4	10	13	1	39.1	25.7	3.4	2	1.214	0.001	L	10	39.1	1089.242	1090.882	1092.096	1092.099	0
1	22072004	328	Low	10.0	Precise	1	8	17	15	30.6	70.8	24.7	15	17	8	24.7	70.8	30.6	2	0.699	0.001	D	17	70.8	1092.601	1094.181	1094.880	1094.883	0
1	22072004	329	Low	10.0	Vague	2	8	10	26	30.6	39.1	19.9	26	8	10	19.9	30.6	39.1	1	0.961	0.001	D	8	30.6	1095.386	1096.704	1097.664	1097.667	0
1	22072004	330	Low	10.0	Precise	1	13	12	7	25.7	27.0	2.8	7	13	12	2.8	25.7	27.0	1	2.151	0.000	D	13	25.7	1098.169	1099.465	1101.616	1101.620	0
1	22072004	331	Low	10.0	Vague	2	13	12	30	25.7	27.0	10.3	12	30	13	27.0	10.3	25.7	2	1.937	0.000	L	12	27.0	1102.122	1103.231	1105.168	1105.171	0
1	22072004	332	Low	10.0	Precise	1	13	17	5	25.7	70.8	7.5	13	17	5	25.7	70.8	7.5	2	0.571	0.001	D	17	70.8	1105.674	1108.038	1108.608	1108.611	0
1	22072004	333	Low	10.0	Precise	1	10	17	1	39.1	70.8	3.4	1	10	17	3.4	39.1	70.8	2	0.909	0.001	R	17	70.8	1109.113	1110.627	1111.536	1111.539	0
1	22072004	334	Low	10.0	Precise	1	13	12	15	25.7	27.0	24.7	13	15	12	25.7	24.7	27.0	3	1.607	0.001	D	15	24.7	1112.041	1113.754	1115.360	1115.363	0
1	22072004	335	Low	10.0	Vague	2	8	18	23	30.6	50.3	3.4	8	23	18	30.6	3.4	50.3	1	0.835	0.000	L	8	30.6	1115.866	1118.749	1119.584	1119.587	0
1	22072004	336	Low	10.0	Precise	1	12	10	14	27.0	39.1	20.5	10	14	12	39.1	20.5	27.0	2	0.848	0.001	L	10	39.1	1120.090	1121.168	1122.016	1122.019	0
1	22072004	337	Low	10.0	Vague	2	13	12	26	25.7	27.0	19.9	13	12	26	25.7	27.0	19.9	2	1.696	0.001	D	12	27.0	1122.522	1123.504	1125.200	1125.203	0
1	22072004	338	Low	10.0	Precise	1	12	10	16	27.0	39.1	19.1	12	10	16	27.0	39.1	19.1	3	0.905	0.001	R	16	19.1	1125.705	1126.472	1127.376	1127.379	0
1	22072004	339	Low	10.0	Vague	2	12	18	26	27.0	50.3	19.9	18	12	26	50.3	27.0	19.9	2	1.248	0.001	L	18	50.3	1127.881	1130.849	1132.096	1132.099	0
1	22072004	340	Low	10.0	Vague	2	8	17	31	30.6	70.8	7.6	8	17	31	30.6	70.8	7.6	2	0.701	0.000	D	17	70.8	1132.601	1134.643	1135.344	1135.347	0
1	22072004	341	Low	10.0	Vague	2	12	17	30	27.0	70.8	10.3	17	30	12	70.8	10.3	27.0	2	0.629	0.001	L	17	70.8	1135.849	1137.019	1137.648	1137.651	0
1	22072004	342	Low	10.0	Precise	1	10	18	7	39.1	50.3	2.8	10	7	18	39.1	2.8	50.3	1	0.648	0.000	L	10	39.1	1138.153	1140.552	1141.200	1141.203	0
1	22072004	343	Low	10.0	Vague	2	12	18	28	27.0	50.3	14.4	28	12	18	14.4	27.0	50.3	3	1.059	0.001	L	28	14.4	1141.705	1142.765	1143.824	1143.827	0
1	22072004	344	Low	10.0	Vague	2	12	17	26	27.0	70.8	19.9	12	17	26	27.0	70.8	19.9	2	0.903	0.001	D	17	70.8	1144.329	1144.922	1145.824	1145.827	0
1	22072004	345	Low	10.0	Precise	1	12	18	15	27.0	50.3	24.7	12	18	15	27.0	50.3	24.7	2	0.738	0.000	D	18	50.3	1146.329	1148.526	1149.264	1149.267	0
1	22072004	346	Low	10.0	Vague	2	10	18	28	39.1	50.3	14.4	28	10	18	14.4	39.1	50.3	1	0.708	0.001	D	10	39.1	1149.769	1150.716	1151.424	1151.427	0
1	22072004	347	Low	10.0	Vague	2	8	10	31	30.6	39.1	7.6	8	10	31	30.6	39.1	7.6	2	0.613	0.001	D	10	39.1	1151.929	1153.851	1154.465	1154.467	0
1	22072004	348	Low	10.0	Vague	2	13	8	19	25.7	30.6	2.6	13	8	19	25.7	30.6	2.6	2	0.726	0.000	D	8	30.6	1154.969	1157.786	1158.512	1158.515	0
1	22072004	349	Low	10.0	Vague	2	12	18	19	27.0	50.3	2.6	12	19	18	27.0	2.6	50.3	2	1.336	0.001	R	18	50.3	1159.018	1161.257	1162.592	1162.595	0
1	22072004	350	Low	10.0	Precise	1	8	18	16	30.6	50.3	19.1	8	16	18	30.6	19.1	50.3	1	0.850	0.001	L	8	30.6	1163.097	1165.103	1165.952	1165.955	0
1	22072004	351	Low	10.0	Vague	2	12	17	19	27.0	70.8	2.6	19	17	12	2.6	70.8	27.0	2	0.686	0.000	D	17	70.8	1166.458	1168.914	1169.600	1169.603	0
1	22072004	352	Low	10.0	Vague	2	8	17	23	30.6	70.8	3.4	8	17	23	30.6	70.8	3.4	2	1.062	0.000	D	17	70.8	1170.106	1172.154	1173.216	1173.219	0
1	22072004	353	Low	10.0	Precise	1	12	8	16	27.0	30.6	19.1	12	8	16	27.0	30.6	19.1	2	0.568	0.000	D	8	30.6	1173.723	1176.697	1177.264	1177.267	0
1	22072004	354	Low	10.0	Vague	2	12	8	31	27.0	30.6	7.6	8	12	31	30.6	27.0	7.6	1	0.747	0.000	D	12	27.0	1177.769	1180.117	1180.864	1180.867	0
1	22072004	355	Low	10.0	Vague	2	13	17	31	25.7	70.8	7.6	31	17	13	7.6	70.8	25.7	2	0.967	0.000	D	17	70.8	1181.369	1184.329	1185.296	1185.299	0
1	22072004	356	Low	10.0	Vague	2	10	17	23	39.1	70.8	3.4	10	23	17	39.1	3.4	70.8	2	1.360	0.001	R	17	70.8	1185.802	1187.856	1189.216	1189.219	0
1	22072004	357	Low	10.0	Vague	2	13	10	28	25.7	39.1	14.4	28	10	13	14.4	39.1	25.7	3	0.992	0.001	L	28	14.4	1189.721	1191.297	1192.288	1192.291	0
1	22072004	358	Low	10.0	Vague	2	12	8	30	27.0	30.6	10.3	30	8	12	10.3	30.6	27.0	2	0.539	0.001	D	8	30.6	1192.793	1195.637	1196.176	1196.179	0
1	22072004	359	Low	10.0	Precise	1	12	17	5	27.0	70.8	7.5	12	17	5	27.0	70.8	7.5	2	0.745	0.001	D	17	70.8	1196.682	1197.495	1198.240	1198.243	0
1	22072004	360	Low	10.0	Precise	1	10	17	5	39.1	70.8	7.5	10	17	5	39.1	70.8	7.5	2	0.475	0.001	D	17	70.8	1198.745	1200.390	1200.865	1200.867	0
