Group	subID	trial	TimePressure	TimeConstraint	Vagueness	Vaguenesscode	ID1	ID2	ID3	V1	V2	V3	ID_left	ID_middle	ID_right	Bid_left	Bid_middle	Bid_right	chosenItem	RT	RTvariance	chosenPosition	chosenID	chosenValue	fixation_time	option_time	choice_time	feedback_time	timeout
1	22072005	1	Low	10.0	Precise	1	18	17	6	20.0	38.4	2.0	18	17	6	20.0	38.4	2.0	2	1.971	0.000	D	17	38.4	4.031	5.355	7.327	7.330	0
1	22072005	2	Low	10.0	Vague	2	4	16	31	15.4	24.6	3.7	16	31	4	24.6	3.7	15.4	2	3.074	0.000	L	16	24.6	7.834	8.333	11.407	11.410	0
1	22072005	3	Low	10.0	Precise	1	17	15	3	38.4	50.9	1.5	3	17	15	1.5	38.4	50.9	2	2.018	0.000	R	15	50.9	11.916	14.205	16.223	16.226	0
1	22072005	4	Low	10.0	Vague	2	4	14	19	15.4	25.0	0.8	19	4	14	0.8	15.4	25.0	2	1.652	0.000	R	14	25.0	16.729	19.467	21.119	21.121	0
1	22072005	5	Low	10.0	Precise	1	18	16	11	20.0	24.6	4.6	16	18	11	24.6	20.0	4.6	2	3.459	0.000	L	16	24.6	21.625	22.875	26.335	26.339	0
1	22072005	6	Low	10.0	Precise	1	16	17	10	24.6	38.4	9.5	10	16	17	9.5	24.6	38.4	2	2.060	0.000	R	17	38.4	26.845	29.730	31.791	31.794	0
1	22072005	7	Low	10.0	Vague	2	16	15	22	24.6	50.9	11.8	15	16	22	50.9	24.6	11.8	2	1.116	0.000	L	15	50.9	32.297	34.882	35.998	36.001	0
1	22072005	8	Low	10.0	Vague	2	18	14	25	20.0	25.0	8.2	25	18	14	8.2	20.0	25.0	2	0.687	0.000	R	14	25.0	36.504	38.991	39.679	39.681	0
1	22072005	9	Low	10.0	Vague	2	4	15	22	15.4	50.9	11.8	22	15	4	11.8	50.9	15.4	2	1.590	0.001	D	15	50.9	40.184	42.313	43.903	43.906	0
1	22072005	10	Low	10.0	Precise	1	14	15	10	25.0	50.9	9.5	10	15	14	9.5	50.9	25.0	2	1.479	0.000	D	15	50.9	44.408	46.119	47.599	47.601	0
1	22072005	11	Low	10.0	Vague	2	14	15	19	25.0	50.9	0.8	14	19	15	25.0	0.8	50.9	2	2.215	0.000	R	15	50.9	48.104	50.776	52.990	52.993	0
1	22072005	12	Low	10.0	Vague	2	14	15	22	25.0	50.9	11.8	22	15	14	11.8	50.9	25.0	2	0.764	0.000	D	15	50.9	53.496	54.259	55.023	55.025	0
1	22072005	13	Low	10.0	Precise	1	18	17	3	20.0	38.4	1.5	3	17	18	1.5	38.4	20.0	2	1.655	0.000	D	17	38.4	55.527	57.799	59.455	59.457	0
1	22072005	14	Low	10.0	Precise	1	4	18	5	15.4	20.0	1.0	18	5	4	20.0	1.0	15.4	2	5.008	0.001	L	18	20.0	59.960	61.391	66.399	66.401	0
1	22072005	15	Low	10.0	Vague	2	16	17	19	24.6	38.4	0.8	16	19	17	24.6	0.8	38.4	2	0.816	0.000	R	17	38.4	66.904	67.807	68.623	68.625	0
1	22072005	16	Low	10.0	Vague	2	14	15	20	25.0	50.9	1.5	14	20	15	25.0	1.5	50.9	2	0.954	0.001	R	15	50.9	69.128	71.573	72.527	72.529	0
1	22072005	17	Low	10.0	Vague	2	16	15	31	24.6	50.9	3.7	15	16	31	50.9	24.6	3.7	2	1.375	0.001	L	15	50.9	73.032	75.504	76.879	76.882	0
1	22072005	18	Low	10.0	Vague	2	18	14	36	20.0	25.0	9.1	18	36	14	20.0	9.1	25.0	2	1.419	0.000	R	14	25.0	77.384	79.892	81.311	81.313	0
1	22072005	19	Low	10.0	Vague	2	14	17	36	25.0	38.4	9.1	36	17	14	9.1	38.4	25.0	2	1.426	0.000	D	17	38.4	81.816	83.837	85.263	85.265	0
1	22072005	20	Low	10.0	Precise	1	4	18	3	15.4	20.0	1.5	18	4	3	20.0	15.4	1.5	2	1.978	0.000	L	18	20.0	85.767	88.341	90.319	90.321	0
1	22072005	21	Low	10.0	Vague	2	4	18	19	15.4	20.0	0.8	4	18	19	15.4	20.0	0.8	2	1.702	0.000	D	18	20.0	90.824	92.057	93.759	93.761	0
1	22072005	22	Low	10.0	Vague	2	16	17	31	24.6	38.4	3.7	17	16	31	38.4	24.6	3.7	2	1.016	0.000	L	17	38.4	94.263	96.982	97.999	98.001	0
1	22072005	23	Low	10.0	Precise	1	17	15	12	38.4	50.9	15.0	17	12	15	38.4	15.0	50.9	2	1.119	0.000	R	15	50.9	98.504	99.584	100.702	100.705	0
1	22072005	24	Low	10.0	Precise	1	14	17	10	25.0	38.4	9.5	10	14	17	9.5	25.0	38.4	2	1.350	0.000	R	17	38.4	101.207	103.385	104.735	104.737	0
1	22072005	25	Low	10.0	Vague	2	16	14	25	24.6	25.0	8.2	14	16	25	25.0	24.6	8.2	2	0.846	0.001	L	14	25.0	105.240	105.744	106.591	106.593	0
1	22072005	26	Low	10.0	Vague	2	4	18	36	15.4	20.0	9.1	18	36	4	20.0	9.1	15.4	2	2.708	0.000	L	18	20.0	107.096	109.035	111.743	111.745	0
1	22072005	27	Low	10.0	Vague	2	18	17	31	20.0	38.4	3.7	31	18	17	3.7	20.0	38.4	2	0.714	0.000	R	17	38.4	112.249	112.949	113.663	113.665	0
1	22072005	28	Low	10.0	Vague	2	16	15	19	24.6	50.9	0.8	15	16	19	50.9	24.6	0.8	2	1.104	0.001	L	15	50.9	114.167	115.967	117.071	117.073	0
1	22072005	29	Low	10.0	Vague	2	16	17	25	24.6	38.4	8.2	16	25	17	24.6	8.2	38.4	2	1.545	0.000	R	17	38.4	117.576	119.334	120.879	120.881	0
1	22072005	30	Low	10.0	Vague	2	18	17	25	20.0	38.4	8.2	25	17	18	8.2	38.4	20.0	2	0.786	0.000	D	17	38.4	121.384	123.148	123.935	123.937	0
1	22072005	31	Low	10.0	Vague	2	16	15	25	24.6	50.9	8.2	15	25	16	50.9	8.2	24.6	2	0.583	0.000	L	15	50.9	124.440	126.376	126.959	126.961	0
1	22072005	32	Low	10.0	Precise	1	4	14	12	15.4	25.0	15.0	4	12	14	15.4	15.0	25.0	2	3.130	0.000	R	14	25.0	127.464	128.389	131.519	131.521	0
1	22072005	33	Low	10.0	Vague	2	18	16	25	20.0	24.6	8.2	16	25	18	24.6	8.2	20.0	2	2.462	0.000	L	16	24.6	132.024	133.713	136.175	136.177	0
1	22072005	34	Low	10.0	Vague	2	18	15	31	20.0	50.9	3.7	18	31	15	20.0	3.7	50.9	2	0.707	0.001	R	15	50.9	136.680	138.972	139.679	139.681	0
1	22072005	35	Low	10.0	Vague	2	4	17	20	15.4	38.4	1.5	4	20	17	15.4	1.5	38.4	2	0.837	0.001	R	17	38.4	140.184	142.986	143.823	143.825	0
1	22072005	36	Low	10.0	Vague	2	14	17	31	25.0	38.4	3.7	31	14	17	3.7	25.0	38.4	2	1.054	0.000	R	17	38.4	144.329	146.577	147.631	147.633	0
1	22072005	37	Low	10.0	Precise	1	14	17	11	25.0	38.4	4.6	11	14	17	4.6	25.0	38.4	2	0.937	0.000	R	17	38.4	148.136	150.981	151.919	151.921	0
1	22072005	38	Low	10.0	Vague	2	4	15	25	15.4	50.9	8.2	25	4	15	8.2	15.4	50.9	2	0.614	0.000	R	15	50.9	152.423	153.432	154.046	154.049	0
1	22072005	39	Low	10.0	Precise	1	4	15	5	15.4	50.9	1.0	5	15	4	1.0	50.9	15.4	2	0.909	0.000	D	15	50.9	154.552	155.121	156.031	156.033	0
1	22072005	40	Low	10.0	Vague	2	4	17	19	15.4	38.4	0.8	4	17	19	15.4	38.4	0.8	2	1.023	0.000	D	17	38.4	156.535	158.544	159.567	159.569	0
1	22072005	41	Low	10.0	Precise	1	17	15	11	38.4	50.9	4.6	15	11	17	50.9	4.6	38.4	1	0.627	0.000	R	17	38.4	160.072	160.779	161.407	161.409	0
1	22072005	42	Low	10.0	Precise	1	18	16	3	20.0	24.6	1.5	18	16	3	20.0	24.6	1.5	2	2.065	0.000	D	16	24.6	161.912	163.086	165.151	165.153	0
1	22072005	43	Low	10.0	Vague	2	18	14	22	20.0	25.0	11.8	18	14	22	20.0	25.0	11.8	2	1.994	0.000	D	14	25.0	165.656	168.373	170.367	170.369	0
1	22072005	44	Low	10.0	Vague	2	4	15	31	15.4	50.9	3.7	15	4	31	50.9	15.4	3.7	2	0.704	0.000	L	15	50.9	170.872	172.767	173.471	173.473	0
1	22072005	45	Low	10.0	Vague	2	18	14	20	20.0	25.0	1.5	20	14	18	1.5	25.0	20.0	2	0.811	0.000	D	14	25.0	173.976	176.820	177.631	177.633	0
1	22072005	46	Low	10.0	Vague	2	17	15	19	38.4	50.9	0.8	19	15	17	0.8	50.9	38.4	2	0.986	0.000	D	15	50.9	178.136	178.917	179.903	179.905	0
1	22072005	47	Low	10.0	Precise	1	4	14	3	15.4	25.0	1.5	4	3	14	15.4	1.5	25.0	2	1.333	0.000	R	14	25.0	180.408	182.730	184.063	184.065	0
1	22072005	48	Low	10.0	Precise	1	4	15	10	15.4	50.9	9.5	15	10	4	50.9	9.5	15.4	2	0.830	0.000	L	15	50.9	184.568	185.729	186.559	186.562	0
1	22072005	49	Low	10.0	Vague	2	4	17	31	15.4	38.4	3.7	4	17	31	15.4	38.4	3.7	2	1.509	0.000	D	17	38.4	187.065	189.866	191.375	191.377	0
1	22072005	50	Low	10.0	Vague	2	17	15	25	38.4	50.9	8.2	17	15	25	38.4	50.9	8.2	2	0.741	0.000	D	15	50.9	191.880	192.490	193.231	193.233	0
1	22072005	51	Low	10.0	Precise	1	14	17	3	25.0	38.4	1.5	3	14	17	1.5	25.0	38.4	2	1.204	0.001	R	17	38.4	193.737	195.371	196.575	196.577	0
1	22072005	52	Low	10.0	Precise	1	16	15	10	24.6	50.9	9.5	15	16	10	50.9	24.6	9.5	2	0.583	0.001	L	15	50.9	197.080	199.384	199.967	199.969	0
1	22072005	53	Low	10.0	Vague	2	18	17	20	20.0	38.4	1.5	18	20	17	20.0	1.5	38.4	2	0.585	0.000	R	17	38.4	200.472	202.117	202.703	202.705	0
1	22072005	54	Low	10.0	Vague	2	4	14	36	15.4	25.0	9.1	4	14	36	15.4	25.0	9.1	2	1.008	0.001	D	14	25.0	203.208	204.943	205.951	205.953	0
1	22072005	55	Low	10.0	Vague	2	18	15	20	20.0	50.9	1.5	20	15	18	1.5	50.9	20.0	2	0.797	0.000	D	15	50.9	206.456	207.393	208.191	208.193	0
1	22072005	56	Low	10.0	Precise	1	4	16	11	15.4	24.6	4.6	4	16	11	15.4	24.6	4.6	2	0.402	0.001	D	16	24.6	208.696	209.309	209.711	209.713	0
1	22072005	57	Low	10.0	Precise	1	4	17	6	15.4	38.4	2.0	17	6	4	38.4	2.0	15.4	2	0.607	0.000	L	17	38.4	210.216	211.008	211.615	211.617	0
1	22072005	58	Low	10.0	Precise	1	16	14	5	24.6	25.0	1.0	16	14	5	24.6	25.0	1.0	1	0.555	0.000	L	16	24.6	212.120	213.764	214.318	214.321	0
1	22072005	59	Low	10.0	Precise	1	16	17	12	24.6	38.4	15.0	12	16	17	15.0	24.6	38.4	2	3.531	0.000	R	17	38.4	214.824	217.780	221.311	221.313	0
1	22072005	60	Low	10.0	Precise	1	14	17	5	25.0	38.4	1.0	17	14	5	38.4	25.0	1.0	2	1.648	0.001	L	17	38.4	221.816	223.583	225.231	225.233	0
1	22072005	61	Low	10.0	Vague	2	17	15	20	38.4	50.9	1.5	15	17	20	50.9	38.4	1.5	2	0.557	0.000	L	15	50.9	240.007	242.322	242.879	242.881	0
1	22072005	62	Low	10.0	Precise	1	16	14	6	24.6	25.0	2.0	16	14	6	24.6	25.0	2.0	2	0.740	0.000	D	14	25.0	243.384	244.507	245.247	245.249	0
1	22072005	63	Low	10.0	Precise	1	16	14	3	24.6	25.0	1.5	3	14	16	1.5	25.0	24.6	2	0.985	0.000	D	14	25.0	245.753	248.390	249.375	249.377	0
1	22072005	64	Low	10.0	Vague	2	18	16	36	20.0	24.6	9.1	16	36	18	24.6	9.1	20.0	2	0.498	0.000	L	16	24.6	249.879	251.004	251.503	251.505	0
1	22072005	65	Low	10.0	Vague	2	4	14	20	15.4	25.0	1.5	20	4	14	1.5	15.4	25.0	2	1.328	0.000	R	14	25.0	252.008	252.543	253.871	253.873	0
1	22072005	66	Low	10.0	Precise	1	14	15	11	25.0	50.9	4.6	15	11	14	50.9	4.6	25.0	2	0.565	0.000	L	15	50.9	254.376	256.089	256.655	256.658	0
1	22072005	67	Low	10.0	Vague	2	17	15	31	38.4	50.9	3.7	15	31	17	50.9	3.7	38.4	2	0.475	0.000	L	15	50.9	257.160	258.836	259.311	259.313	0
1	22072005	68	Low	10.0	Vague	2	18	14	19	20.0	25.0	0.8	18	19	14	20.0	0.8	25.0	2	0.743	0.000	R	14	25.0	259.815	261.991	262.735	262.737	0
1	22072005	69	Low	10.0	Precise	1	18	14	11	20.0	25.0	4.6	11	18	14	4.6	20.0	25.0	2	0.734	0.000	R	14	25.0	263.240	265.056	265.791	265.793	0
1	22072005	70	Low	10.0	Precise	1	18	17	5	20.0	38.4	1.0	18	5	17	20.0	1.0	38.4	2	0.927	0.000	R	17	38.4	266.296	268.960	269.887	269.889	0
1	22072005	71	Low	10.0	Precise	1	18	15	10	20.0	50.9	9.5	15	10	18	50.9	9.5	20.0	2	0.453	0.000	L	15	50.9	270.391	271.402	271.855	271.857	0
1	22072005	72	Low	10.0	Vague	2	4	18	25	15.4	20.0	8.2	25	4	18	8.2	15.4	20.0	1	1.731	0.000	D	4	15.4	272.360	272.940	274.671	274.673	0
1	22072005	73	Low	10.0	Vague	2	16	17	20	24.6	38.4	1.5	17	16	20	38.4	24.6	1.5	2	0.701	0.000	L	17	38.4	275.176	277.826	278.527	278.529	0
1	22072005	74	Low	10.0	Vague	2	16	14	36	24.6	25.0	9.1	36	14	16	9.1	25.0	24.6	2	1.257	0.000	D	14	25.0	279.032	280.678	281.935	281.937	0
1	22072005	75	Low	10.0	Vague	2	4	14	25	15.4	25.0	8.2	4	25	14	15.4	8.2	25.0	2	1.163	0.000	R	14	25.0	282.440	283.380	284.543	284.545	0
1	22072005	76	Low	10.0	Precise	1	4	16	10	15.4	24.6	9.5	16	4	10	24.6	15.4	9.5	2	1.830	0.000	L	16	24.6	285.048	287.193	289.023	289.025	0
1	22072005	77	Low	10.0	Vague	2	4	15	19	15.4	50.9	0.8	19	4	15	0.8	15.4	50.9	2	0.739	0.000	R	15	50.9	289.528	292.348	293.087	293.089	0
1	22072005	78	Low	10.0	Precise	1	18	15	5	20.0	50.9	1.0	5	18	15	1.0	20.0	50.9	2	0.472	0.000	R	15	50.9	293.592	294.199	294.671	294.673	0
1	22072005	79	Low	10.0	Vague	2	18	17	22	20.0	38.4	11.8	17	18	22	38.4	20.0	11.8	2	0.624	0.000	L	17	38.4	295.176	296.687	297.311	297.313	0
1	22072005	80	Low	10.0	Precise	1	16	14	10	24.6	25.0	9.5	14	10	16	25.0	9.5	24.6	2	1.016	0.000	L	14	25.0	297.815	300.358	301.375	301.377	0
1	22072005	81	Low	10.0	Vague	2	4	17	25	15.4	38.4	8.2	4	25	17	15.4	8.2	38.4	2	1.043	0.000	R	17	38.4	301.879	303.339	304.383	304.385	0
1	22072005	82	Low	10.0	Precise	1	16	15	12	24.6	50.9	15.0	16	15	12	24.6	50.9	15.0	2	0.969	0.000	D	15	50.9	304.888	306.246	307.215	307.217	0
1	22072005	83	Low	10.0	Vague	2	18	15	36	20.0	50.9	9.1	36	18	15	9.1	20.0	50.9	2	0.826	0.001	R	15	50.9	307.720	308.709	309.535	309.537	0
1	22072005	84	Low	10.0	Vague	2	4	16	22	15.4	24.6	11.8	22	16	4	11.8	24.6	15.4	2	1.094	0.000	D	16	24.6	310.041	312.729	313.823	313.825	0
1	22072005	85	Low	10.0	Vague	2	18	14	31	20.0	25.0	3.7	14	18	31	25.0	20.0	3.7	2	4.388	0.001	L	14	25.0	314.328	315.931	320.319	320.321	0
1	22072005	86	Low	10.0	Precise	1	4	16	5	15.4	24.6	1.0	5	16	4	1.0	24.6	15.4	2	1.711	0.000	D	16	24.6	320.824	322.864	324.575	324.577	0
1	22072005	87	Low	10.0	Vague	2	18	17	36	20.0	38.4	9.1	17	18	36	38.4	20.0	9.1	2	0.609	0.000	L	17	38.4	325.081	326.766	327.375	327.377	0
1	22072005	88	Low	10.0	Vague	2	4	17	36	15.4	38.4	9.1	36	17	4	9.1	38.4	15.4	2	1.216	0.000	D	17	38.4	327.880	330.239	331.455	331.457	0
1	22072005	89	Low	10.0	Precise	1	16	14	11	24.6	25.0	4.6	16	11	14	24.6	4.6	25.0	1	1.939	0.000	L	16	24.6	331.960	333.884	335.823	335.825	0
1	22072005	90	Low	10.0	Precise	1	18	16	5	20.0	24.6	1.0	5	16	18	1.0	24.6	20.0	2	1.175	0.000	D	16	24.6	336.328	337.720	338.895	338.897	0
1	22072005	91	Low	10.0	Precise	1	18	14	5	20.0	25.0	1.0	18	14	5	20.0	25.0	1.0	1	2.802	0.001	L	18	20.0	339.400	342.141	344.943	344.945	0
1	22072005	92	Low	10.0	Precise	1	4	17	10	15.4	38.4	9.5	17	10	4	38.4	9.5	15.4	2	0.712	0.000	L	17	38.4	345.448	347.687	348.399	348.401	0
1	22072005	93	Low	10.0	Precise	1	4	15	12	15.4	50.9	15.0	4	15	12	15.4	50.9	15.0	2	1.353	0.000	D	15	50.9	348.904	351.557	352.911	352.913	0
1	22072005	94	Low	10.0	Precise	1	4	17	12	15.4	38.4	15.0	12	4	17	15.0	15.4	38.4	2	1.261	0.000	R	17	38.4	353.415	354.338	355.599	355.601	0
1	22072005	95	Low	10.0	Vague	2	18	16	22	20.0	24.6	11.8	18	16	22	20.0	24.6	11.8	2	1.077	0.000	D	16	24.6	356.103	356.922	357.999	358.001	0
1	22072005	96	Low	10.0	Precise	1	16	15	6	24.6	50.9	2.0	16	15	6	24.6	50.9	2.0	2	0.795	0.001	D	15	50.9	358.504	359.860	360.655	360.657	0
1	22072005	97	Low	10.0	Vague	2	14	17	20	25.0	38.4	1.5	17	14	20	38.4	25.0	1.5	2	0.766	0.000	L	17	38.4	361.160	363.185	363.951	363.953	0
1	22072005	98	Low	10.0	Precise	1	18	15	3	20.0	50.9	1.5	3	15	18	1.5	50.9	20.0	2	0.806	0.000	D	15	50.9	364.455	365.688	366.495	366.497	0
1	22072005	99	Low	10.0	Precise	1	14	15	12	25.0	50.9	15.0	15	12	14	50.9	15.0	25.0	2	0.603	0.000	L	15	50.9	367.000	368.276	368.879	368.881	0
1	22072005	100	Low	10.0	Precise	1	16	17	11	24.6	38.4	4.6	17	16	11	38.4	24.6	4.6	2	1.024	0.000	L	17	38.4	369.384	372.175	373.199	373.201	0
1	22072005	101	Low	10.0	Precise	1	16	15	11	24.6	50.9	4.6	11	16	15	4.6	24.6	50.9	2	0.868	0.000	R	15	50.9	373.703	374.283	375.151	375.153	0
1	22072005	102	Low	10.0	Precise	1	4	18	11	15.4	20.0	4.6	11	18	4	4.6	20.0	15.4	2	1.356	0.000	D	18	20.0	375.656	376.675	378.031	378.034	0
1	22072005	103	Low	10.0	Precise	1	18	17	11	20.0	38.4	4.6	11	17	18	4.6	38.4	20.0	2	0.828	0.000	D	17	38.4	378.537	379.890	380.719	380.721	0
1	22072005	104	Low	10.0	Precise	1	17	15	10	38.4	50.9	9.5	15	17	10	50.9	38.4	9.5	2	0.654	0.001	L	15	50.9	381.224	383.249	383.903	383.905	0
1	22072005	105	Low	10.0	Vague	2	16	14	20	24.6	25.0	1.5	14	16	20	25.0	24.6	1.5	1	1.822	0.000	D	16	24.6	384.409	386.193	388.015	388.017	0
1	22072005	106	Low	10.0	Precise	1	14	15	3	25.0	50.9	1.5	15	3	14	50.9	1.5	25.0	2	0.991	0.000	L	15	50.9	388.521	390.512	391.503	391.505	0
1	22072005	107	Low	10.0	Vague	2	18	15	22	20.0	50.9	11.8	22	18	15	11.8	20.0	50.9	2	0.659	0.001	R	15	50.9	392.008	393.532	394.191	394.193	0
1	22072005	108	Low	10.0	Vague	2	4	18	20	15.4	20.0	1.5	4	18	20	15.4	20.0	1.5	2	1.700	0.000	D	18	20.0	394.696	395.307	397.007	397.009	0
1	22072005	109	Low	10.0	Vague	2	18	16	19	20.0	24.6	0.8	18	16	19	20.0	24.6	0.8	1	1.377	0.000	L	18	20.0	397.512	398.926	400.303	400.305	0
1	22072005	110	Low	10.0	Vague	2	14	15	31	25.0	50.9	3.7	15	31	14	50.9	3.7	25.0	2	0.546	0.000	L	15	50.9	400.808	402.269	402.815	402.818	0
1	22072005	111	Low	10.0	Precise	1	17	15	5	38.4	50.9	1.0	15	5	17	50.9	1.0	38.4	2	0.443	0.000	L	15	50.9	403.320	404.660	405.103	405.105	0
1	22072005	112	Low	10.0	Precise	1	4	16	6	15.4	24.6	2.0	4	6	16	15.4	2.0	24.6	2	1.002	0.000	R	16	24.6	405.608	407.044	408.047	408.049	0
1	22072005	113	Low	10.0	Precise	1	18	14	12	20.0	25.0	15.0	14	12	18	25.0	15.0	20.0	2	2.205	0.000	L	14	25.0	408.552	409.762	411.967	411.970	0
1	22072005	114	Low	10.0	Vague	2	4	18	22	15.4	20.0	11.8	18	4	22	20.0	15.4	11.8	2	1.910	0.001	L	18	20.0	412.473	415.289	417.199	417.202	0
1	22072005	115	Low	10.0	Precise	1	18	15	11	20.0	50.9	4.6	18	15	11	20.0	50.9	4.6	2	0.580	0.000	D	15	50.9	417.704	420.571	421.151	421.153	0
1	22072005	116	Low	10.0	Vague	2	18	17	19	20.0	38.4	0.8	17	18	19	38.4	20.0	0.8	2	0.589	0.000	L	17	38.4	421.656	422.530	423.119	423.121	0
1	22072005	117	Low	10.0	Precise	1	14	17	6	25.0	38.4	2.0	14	6	17	25.0	2.0	38.4	2	0.893	0.000	R	17	38.4	423.624	425.009	425.903	425.905	0
1	22072005	118	Low	10.0	Precise	1	16	14	12	24.6	25.0	15.0	16	14	12	24.6	25.0	15.0	1	1.726	0.001	L	16	24.6	426.408	428.897	430.623	430.626	0
1	22072005	119	Low	10.0	Precise	1	18	15	6	20.0	50.9	2.0	15	18	6	50.9	20.0	2.0	2	0.606	0.001	L	15	50.9	431.128	434.017	434.623	434.625	0
1	22072005	120	Low	10.0	Vague	2	4	15	36	15.4	50.9	9.1	15	36	4	50.9	9.1	15.4	2	0.427	0.000	L	15	50.9	435.129	435.876	436.303	436.305	0
1	22072005	121	Low	10.0	Vague	2	18	15	25	20.0	50.9	8.2	25	18	15	8.2	20.0	50.9	2	0.680	0.000	R	15	50.9	466.298	467.286	467.967	467.969	0
1	22072005	122	Low	10.0	Precise	1	18	15	12	20.0	50.9	15.0	12	18	15	15.0	20.0	50.9	2	0.561	0.000	R	15	50.9	468.472	469.582	470.143	470.145	0
1	22072005	123	Low	10.0	Precise	1	4	15	11	15.4	50.9	4.6	11	4	15	4.6	15.4	50.9	2	0.515	0.000	R	15	50.9	470.648	471.228	471.743	471.746	0
1	22072005	124	Low	10.0	Vague	2	14	17	22	25.0	38.4	11.8	14	17	22	25.0	38.4	11.8	2	0.732	0.000	D	17	38.4	472.249	475.122	475.855	475.857	0
1	22072005	125	Low	10.0	Precise	1	16	15	5	24.6	50.9	1.0	15	5	16	50.9	1.0	24.6	2	0.545	0.000	L	15	50.9	476.359	478.334	478.879	478.881	0
1	22072005	126	Low	10.0	Precise	1	4	18	12	15.4	20.0	15.0	12	18	4	15.0	20.0	15.4	3	0.578	0.000	L	12	15.0	479.384	481.693	482.271	482.273	0
1	22072005	127	Low	10.0	Precise	1	4	17	3	15.4	38.4	1.5	4	17	3	15.4	38.4	1.5	2	0.669	0.000	D	17	38.4	482.776	485.378	486.047	486.049	0
1	22072005	128	Low	10.0	Precise	1	14	15	6	25.0	50.9	2.0	14	15	6	25.0	50.9	2.0	2	0.945	0.001	D	15	50.9	486.552	487.566	488.511	488.513	0
1	22072005	129	Low	10.0	Precise	1	16	15	3	24.6	50.9	1.5	15	3	16	50.9	1.5	24.6	2	0.546	0.000	L	15	50.9	489.016	489.997	490.543	490.545	0
1	22072005	130	Low	10.0	Vague	2	16	15	36	24.6	50.9	9.1	36	16	15	9.1	24.6	50.9	2	0.695	0.001	R	15	50.9	491.049	493.992	494.687	494.689	0
1	22072005	131	Low	10.0	Precise	1	16	17	3	24.6	38.4	1.5	16	17	3	24.6	38.4	1.5	2	0.874	0.001	D	17	38.4	495.192	495.733	496.607	496.610	0
1	22072005	132	Low	10.0	Precise	1	16	17	6	24.6	38.4	2.0	17	16	6	38.4	24.6	2.0	2	0.550	0.000	L	17	38.4	497.113	498.024	498.575	498.577	0
1	22072005	133	Low	10.0	Vague	2	4	18	31	15.4	20.0	3.7	31	4	18	3.7	15.4	20.0	2	1.953	0.000	R	18	20.0	499.080	500.462	502.415	502.417	0
1	22072005	134	Low	10.0	Precise	1	4	14	11	15.4	25.0	4.6	11	14	4	4.6	25.0	15.4	2	1.915	0.000	D	14	25.0	502.920	505.300	507.215	507.217	0
1	22072005	135	Low	10.0	Vague	2	4	14	31	15.4	25.0	3.7	31	4	14	3.7	15.4	25.0	2	1.604	0.001	R	14	25.0	507.720	510.315	511.919	511.921	0
1	22072005	136	Low	10.0	Precise	1	4	14	6	15.4	25.0	2.0	14	4	6	25.0	15.4	2.0	2	0.600	0.001	L	14	25.0	512.424	513.639	514.239	514.242	0
1	22072005	137	Low	10.0	Vague	2	14	15	36	25.0	50.9	9.1	36	15	14	9.1	50.9	25.0	2	1.078	0.000	D	15	50.9	514.744	517.209	518.287	518.289	0
1	22072005	138	Low	10.0	Vague	2	4	16	25	15.4	24.6	8.2	16	4	25	24.6	15.4	8.2	2	2.309	0.001	L	16	24.6	518.792	519.882	522.191	522.193	0
1	22072005	139	Low	10.0	Precise	1	18	14	3	20.0	25.0	1.5	18	3	14	20.0	1.5	25.0	2	0.550	0.000	R	14	25.0	522.696	523.641	524.191	524.193	0
1	22072005	140	Low	10.0	Vague	2	16	14	22	24.6	25.0	11.8	16	22	14	24.6	11.8	25.0	1	0.529	0.001	L	16	24.6	524.696	527.614	528.143	528.145	0
1	22072005	141	Low	10.0	Precise	1	18	17	10	20.0	38.4	9.5	18	17	10	20.0	38.4	9.5	2	1.185	0.001	D	17	38.4	528.649	529.918	531.103	531.105	0
1	22072005	142	Low	10.0	Vague	2	16	14	19	24.6	25.0	0.8	19	16	14	0.8	24.6	25.0	1	0.831	0.000	D	16	24.6	531.608	532.368	533.199	533.201	0
1	22072005	143	Low	10.0	Precise	1	4	17	5	15.4	38.4	1.0	5	4	17	1.0	15.4	38.4	2	0.635	0.000	R	17	38.4	533.703	536.644	537.279	537.281	0
1	22072005	144	Low	10.0	Precise	1	4	15	3	15.4	50.9	1.5	4	15	3	15.4	50.9	1.5	2	0.947	0.000	D	15	50.9	537.784	539.548	540.495	540.497	0
1	22072005	145	Low	10.0	Vague	2	18	15	19	20.0	50.9	0.8	15	18	19	50.9	20.0	0.8	2	0.605	0.000	L	15	50.9	541.000	542.498	543.103	543.105	0
1	22072005	146	Low	10.0	Precise	1	4	16	12	15.4	24.6	15.0	4	12	16	15.4	15.0	24.6	2	1.858	0.000	R	16	24.6	543.608	546.397	548.255	548.257	0
1	22072005	147	Low	10.0	Vague	2	17	15	36	38.4	50.9	9.1	36	15	17	9.1	50.9	38.4	1	0.996	0.000	R	17	38.4	548.760	550.651	551.647	551.649	0
1	22072005	148	Low	10.0	Precise	1	18	16	12	20.0	24.6	15.0	16	12	18	24.6	15.0	20.0	2	1.337	0.000	L	16	24.6	552.152	553.254	554.591	554.593	0
1	22072005	149	Low	10.0	Precise	1	4	18	10	15.4	20.0	9.5	4	18	10	15.4	20.0	9.5	2	1.820	0.000	D	18	20.0	555.096	556.755	558.575	558.578	0
1	22072005	150	Low	10.0	Vague	2	16	15	20	24.6	50.9	1.5	15	20	16	50.9	1.5	24.6	2	0.617	0.000	L	15	50.9	559.080	560.134	560.751	560.753	0
1	22072005	151	Low	10.0	Vague	2	16	17	36	24.6	38.4	9.1	16	36	17	24.6	9.1	38.4	2	1.144	0.000	R	17	38.4	561.256	563.095	564.239	564.241	0
1	22072005	152	Low	10.0	Vague	2	18	16	20	20.0	24.6	1.5	16	18	20	24.6	20.0	1.5	2	0.527	0.000	L	16	24.6	564.744	567.424	567.951	567.953	0
1	22072005	153	Low	10.0	Vague	2	14	17	25	25.0	38.4	8.2	25	17	14	8.2	38.4	25.0	2	1.367	0.001	D	17	38.4	568.456	570.856	572.223	572.226	0
1	22072005	154	Low	10.0	Precise	1	18	14	6	20.0	25.0	2.0	14	6	18	25.0	2.0	20.0	2	0.761	0.000	L	14	25.0	572.729	573.926	574.687	574.689	0
1	22072005	155	Low	10.0	Precise	1	4	15	6	15.4	50.9	2.0	6	4	15	2.0	15.4	50.9	2	0.515	0.000	R	15	50.9	575.193	577.852	578.367	578.369	0
1	22072005	156	Low	10.0	Precise	1	17	15	6	38.4	50.9	2.0	6	17	15	2.0	38.4	50.9	2	0.515	0.001	R	15	50.9	578.872	581.052	581.567	581.569	0
1	22072005	157	Low	10.0	Precise	1	4	18	6	15.4	20.0	2.0	4	6	18	15.4	2.0	20.0	1	1.426	0.001	L	4	15.4	582.072	583.949	585.375	585.377	0
1	22072005	158	Low	10.0	Precise	1	4	16	3	15.4	24.6	1.5	4	3	16	15.4	1.5	24.6	2	0.742	0.000	R	16	24.6	585.880	588.329	589.071	589.073	0
1	22072005	159	Low	10.0	Precise	1	14	15	5	25.0	50.9	1.0	14	5	15	25.0	1.0	50.9	2	0.531	0.000	R	15	50.9	589.577	592.508	593.039	593.041	0
1	22072005	160	Low	10.0	Precise	1	18	17	12	20.0	38.4	15.0	18	17	12	20.0	38.4	15.0	2	1.143	0.000	D	17	38.4	593.544	596.376	597.519	597.521	0
1	22072005	161	Low	10.0	Vague	2	16	17	22	24.6	38.4	11.8	17	22	16	38.4	11.8	24.6	2	0.664	0.000	L	17	38.4	598.024	599.846	600.511	600.513	0
1	22072005	162	Low	10.0	Precise	1	18	14	10	20.0	25.0	9.5	14	10	18	25.0	9.5	20.0	2	1.168	0.000	L	14	25.0	601.015	601.839	603.007	603.009	0
1	22072005	163	Low	10.0	Vague	2	4	15	20	15.4	50.9	1.5	20	4	15	1.5	15.4	50.9	2	0.620	0.000	R	15	50.9	603.512	604.562	605.183	605.185	0
1	22072005	164	Low	10.0	Precise	1	18	16	6	20.0	24.6	2.0	6	18	16	2.0	20.0	24.6	2	1.104	0.000	R	16	24.6	605.688	606.830	607.935	607.937	0
1	22072005	165	Low	10.0	Precise	1	14	17	12	25.0	38.4	15.0	14	17	12	25.0	38.4	15.0	3	0.450	0.000	R	12	15.0	608.440	610.013	610.463	610.465	0
1	22072005	166	Low	10.0	Vague	2	14	17	19	25.0	38.4	0.8	14	17	19	25.0	38.4	0.8	2	1.237	0.000	D	17	38.4	610.968	611.786	613.023	613.026	0
1	22072005	167	Low	10.0	Vague	2	4	16	36	15.4	24.6	9.1	16	4	36	24.6	15.4	9.1	2	1.539	0.000	L	16	24.6	613.528	615.532	617.071	617.073	0
1	22072005	168	Low	10.0	Precise	1	18	16	10	20.0	24.6	9.5	10	16	18	9.5	24.6	20.0	2	1.540	0.000	D	16	24.6	617.576	618.842	620.383	620.385	0
1	22072005	169	Low	10.0	Vague	2	16	14	31	24.6	25.0	3.7	14	31	16	25.0	3.7	24.6	2	1.577	0.000	L	14	25.0	620.888	623.445	625.023	625.025	0
1	22072005	170	Low	10.0	Precise	1	16	17	5	24.6	38.4	1.0	16	17	5	24.6	38.4	1.0	1	0.881	0.000	L	16	24.6	625.528	626.557	627.439	627.441	0
1	22072005	171	Low	10.0	Vague	2	14	15	25	25.0	50.9	8.2	15	25	14	50.9	8.2	25.0	2	0.782	0.000	L	15	50.9	627.945	629.745	630.527	630.529	0
1	22072005	172	Low	10.0	Vague	2	17	15	22	38.4	50.9	11.8	22	17	15	11.8	38.4	50.9	2	0.466	0.000	R	15	50.9	631.032	633.645	634.111	634.114	0
1	22072005	173	Low	10.0	Vague	2	4	14	22	15.4	25.0	11.8	4	22	14	15.4	11.8	25.0	2	1.309	0.000	R	14	25.0	634.616	636.786	638.095	638.097	0
1	22072005	174	Low	10.0	Vague	2	4	16	19	15.4	24.6	0.8	16	4	19	24.6	15.4	0.8	2	1.268	0.000	L	16	24.6	638.600	640.122	641.391	641.393	0
1	22072005	175	Low	10.0	Vague	2	4	17	22	15.4	38.4	11.8	22	4	17	11.8	15.4	38.4	2	0.595	0.000	R	17	38.4	641.896	643.707	644.303	644.305	0
1	22072005	176	Low	10.0	Vague	2	18	16	31	20.0	24.6	3.7	16	18	31	24.6	20.0	3.7	2	0.863	0.000	L	16	24.6	644.808	646.672	647.535	647.537	0
1	22072005	177	Low	10.0	Precise	1	4	14	5	15.4	25.0	1.0	14	5	4	25.0	1.0	15.4	2	1.188	0.000	L	14	25.0	648.040	649.195	650.383	650.385	0
1	22072005	178	Low	10.0	Precise	1	4	17	11	15.4	38.4	4.6	4	17	11	15.4	38.4	4.6	2	1.874	0.000	D	17	38.4	650.887	653.693	655.567	655.570	0
1	22072005	179	Low	10.0	Vague	2	4	16	20	15.4	24.6	1.5	16	4	20	24.6	15.4	1.5	2	1.622	0.000	L	16	24.6	656.073	656.569	658.191	658.193	0
1	22072005	180	Low	10.0	Precise	1	4	14	10	15.4	25.0	9.5	10	14	4	9.5	25.0	15.4	2	1.327	0.001	D	14	25.0	658.696	660.656	661.983	661.986	0
1	22072005	181	High	1.5	Precise	1	16	14	9	24.6	25.0	3.1	9	14	16	3.1	25.0	24.6	1	0.460	0.001	R	16	24.6	685.245	686.899	687.359	687.362	0
1	22072005	182	High	1.5	Vague	2	14	15	28	25.0	50.9	8.4	15	28	14	50.9	8.4	25.0	2	0.435	0.000	L	15	50.9	687.865	689.580	690.015	690.017	0
1	22072005	183	High	1.5	Vague	2	18	17	21	20.0	38.4	0.4	17	18	21	38.4	20.0	0.4	2	0.506	0.001	L	17	38.4	690.520	691.637	692.143	692.145	0
1	22072005	184	High	1.5	Precise	1	16	15	9	24.6	50.9	3.1	9	16	15	3.1	24.6	50.9	2	0.500	0.001	R	15	50.9	692.649	694.635	695.135	695.137	0
1	22072005	185	High	1.5	Precise	1	4	17	7	15.4	38.4	0.8	17	4	7	38.4	15.4	0.8	2	0.498	0.000	L	17	38.4	695.640	697.773	698.271	698.273	0
1	22072005	186	High	1.5	Precise	1	16	15	13	24.6	50.9	8.6	15	16	13	50.9	24.6	8.6	2	0.442	0.001	L	15	50.9	698.777	701.541	701.983	701.985	0
1	22072005	187	High	1.5	Vague	2	18	15	21	20.0	50.9	0.4	18	21	15	20.0	0.4	50.9	2	0.440	0.000	R	15	50.9	702.488	704.822	705.263	705.266	0
1	22072005	188	High	1.5	Precise	1	18	17	2	20.0	38.4	1.0	18	17	2	20.0	38.4	1.0	2	0.925	0.000	D	17	38.4	705.769	706.786	707.711	707.713	0
1	22072005	189	High	1.5	Vague	2	14	17	29	25.0	38.4	4.9	29	17	14	4.9	38.4	25.0	1	0.607	0.000	R	14	25.0	708.216	709.263	709.871	709.873	0
1	22072005	190	High	1.5	Vague	2	18	14	24	20.0	25.0	1.0	24	14	18	1.0	25.0	20.0	2	0.658	0.000	D	14	25.0	710.376	711.853	712.511	712.513	0
1	22072005	191	High	1.5	Vague	2	4	15	27	15.4	50.9	9.8	15	4	27	50.9	15.4	9.8	2	0.447	0.001	L	15	50.9	713.016	715.776	716.223	716.226	0
1	22072005	192	High	1.5	Vague	2	18	16	23	20.0	24.6	1.5	18	16	23	20.0	24.6	1.5	2	0.813	0.001	D	16	24.6	716.728	717.602	718.415	718.418	0
1	22072005	193	High	1.5	Precise	1	16	15	7	24.6	50.9	0.8	7	16	15	0.8	24.6	50.9	2	0.467	0.000	R	15	50.9	718.920	719.660	720.127	720.129	0
1	22072005	194	High	1.5	Precise	1	18	15	1	20.0	50.9	1.6	15	18	1	50.9	20.0	1.6	2	0.474	0.001	L	15	50.9	720.632	722.869	723.343	723.346	0
1	22072005	195	High	1.5	Precise	1	4	14	9	15.4	25.0	3.1	14	4	9	25.0	15.4	3.1	2	1.073	0.000	L	14	25.0	723.849	726.526	727.599	727.601	0
1	22072005	196	High	1.5	Vague	2	4	18	28	15.4	20.0	8.4	28	4	18	8.4	15.4	20.0	2	1.368	0.001	R	18	20.0	728.104	729.191	730.559	730.561	0
1	22072005	197	High	1.5	Precise	1	4	16	9	15.4	24.6	3.1	9	4	16	3.1	15.4	24.6	2	0.876	0.001	R	16	24.6	731.064	733.314	734.191	734.193	0
1	22072005	198	High	1.5	Precise	1	18	16	8	20.0	24.6	10.5	18	8	16	20.0	10.5	24.6	2	0.883	0.000	R	16	24.6	734.696	736.556	737.439	737.441	0
1	22072005	199	High	1.5	Precise	1	4	16	2	15.4	24.6	1.0	2	4	16	1.0	15.4	24.6	2	0.563	0.001	R	16	24.6	737.944	739.532	740.095	740.097	0
1	22072005	200	High	1.5	Vague	2	16	17	23	24.6	38.4	1.5	23	16	17	1.5	24.6	38.4	2	0.868	0.001	R	17	38.4	740.600	742.059	742.927	742.929	0
1	22072005	201	High	1.5	Vague	2	14	17	27	25.0	38.4	9.8	27	14	17	9.8	25.0	38.4	2	0.668	0.001	R	17	38.4	743.433	745.811	746.479	746.481	0
1	22072005	202	High	1.5	Precise	1	17	15	1	38.4	50.9	1.6	17	15	1	38.4	50.9	1.6	2	0.871	0.000	D	15	50.9	746.984	748.264	749.135	749.137	0
1	22072005	203	High	1.5	Precise	1	14	15	13	25.0	50.9	8.6	13	14	15	8.6	25.0	50.9	2	0.480	0.000	R	15	50.9	749.640	752.030	752.511	752.513	0
1	22072005	204	High	1.5	Vague	2	4	17	24	15.4	38.4	1.0	4	17	24	15.4	38.4	1.0	2	1.071	0.000	D	17	38.4	753.016	755.728	756.799	756.801	0
1	22072005	205	High	1.5	Precise	1	4	17	9	15.4	38.4	3.1	4	9	17	15.4	3.1	38.4	2	1.142	0.000	R	17	38.4	757.304	758.648	759.791	759.793	0
1	22072005	206	High	1.5	Vague	2	18	16	27	20.0	24.6	9.8	18	27	16	20.0	9.8	24.6	2	0.638	0.000	R	16	24.6	760.295	762.705	763.343	763.345	0
1	22072005	207	High	1.5	Vague	2	18	15	23	20.0	50.9	1.5	15	23	18	50.9	1.5	20.0	2	0.484	0.000	L	15	50.9	763.847	764.955	765.439	765.441	0
1	22072005	208	High	1.5	Vague	2	16	15	24	24.6	50.9	1.0	24	15	16	1.0	50.9	24.6	2	0.716	0.000	D	15	50.9	765.944	768.611	769.327	769.329	0
1	22072005	209	High	1.5	Precise	1	16	15	8	24.6	50.9	10.5	15	16	8	50.9	24.6	10.5	2	0.572	0.000	L	15	50.9	769.832	770.803	771.375	771.377	0
1	22072005	210	High	1.5	Precise	1	18	15	2	20.0	50.9	1.0	2	15	18	1.0	50.9	20.0	2	0.610	0.000	D	15	50.9	771.880	774.429	775.039	775.041	0
1	22072005	211	High	1.5	Precise	1	16	17	13	24.6	38.4	8.6	17	16	13	38.4	24.6	8.6	2	0.863	0.001	L	17	38.4	775.544	778.208	779.071	779.073	0
1	22072005	212	High	1.5	Vague	2	16	15	27	24.6	50.9	9.8	15	16	27	50.9	24.6	9.8	2	0.534	0.000	L	15	50.9	779.576	782.377	782.911	782.913	0
1	22072005	213	High	1.5	Vague	2	4	16	27	15.4	24.6	9.8	4	27	16	15.4	9.8	24.6	2	0.876	0.000	R	16	24.6	783.416	784.338	785.215	785.217	0
1	22072005	214	High	1.5	Precise	1	16	14	1	24.6	25.0	1.6	16	14	1	24.6	25.0	1.6	1	0.531	0.001	L	16	24.6	785.720	787.116	787.647	787.649	0
1	22072005	215	High	1.5	Precise	1	16	14	2	24.6	25.0	1.0	14	2	16	25.0	1.0	24.6	1	0.869	0.000	R	16	24.6	788.152	791.066	791.935	791.937	0
1	22072005	216	High	1.5	Precise	1	4	18	8	15.4	20.0	10.5	18	8	4	20.0	10.5	15.4	2	1.320	0.000	L	18	20.0	792.441	795.431	796.751	796.754	0
1	22072005	217	High	1.5	Vague	2	18	15	29	20.0	50.9	4.9	29	15	18	4.9	50.9	20.0	1	1.025	0.000	R	18	20.0	797.257	797.774	798.799	798.801	0
1	22072005	218	High	1.5	Precise	1	17	15	8	38.4	50.9	10.5	8	17	15	10.5	38.4	50.9	2	0.707	0.000	R	15	50.9	799.304	801.724	802.431	802.433	0
1	22072005	219	High	1.5	Vague	2	17	15	24	38.4	50.9	1.0	15	17	24	50.9	38.4	1.0	2	0.515	0.000	L	15	50.9	802.936	805.836	806.351	806.354	0
1	22072005	220	High	1.5	Precise	1	18	15	7	20.0	50.9	0.8	15	7	18	50.9	0.8	20.0	2	0.435	0.000	L	15	50.9	806.857	809.468	809.903	809.905	0
1	22072005	221	High	1.5	Vague	2	14	15	29	25.0	50.9	4.9	29	14	15	4.9	25.0	50.9	2	0.477	0.000	R	15	50.9	810.408	812.242	812.719	812.721	0
1	22072005	222	High	1.5	Vague	2	16	14	27	24.6	25.0	9.8	27	16	14	9.8	24.6	25.0	1	1.009	0.001	D	16	24.6	813.224	815.550	816.559	816.561	0
1	22072005	223	High	1.5	Precise	1	18	17	13	20.0	38.4	8.6	18	13	17	20.0	8.6	38.4	2	0.697	0.001	R	17	38.4	817.064	818.550	819.247	819.250	0
1	22072005	224	High	1.5	Vague	2	17	15	27	38.4	50.9	9.8	17	27	15	38.4	9.8	50.9	2	0.807	0.000	R	15	50.9	819.752	820.247	821.055	821.057	0
1	22072005	225	High	1.5	Vague	2	18	14	23	20.0	25.0	1.5	14	18	23	25.0	20.0	1.5	2	0.763	0.000	L	14	25.0	821.560	823.060	823.823	823.825	0
1	22072005	226	High	1.5	Precise	1	14	15	1	25.0	50.9	1.6	15	1	14	50.9	1.6	25.0	2	0.849	0.001	L	15	50.9	824.328	825.117	825.967	825.969	0
1	22072005	227	High	1.5	Precise	1	4	15	1	15.4	50.9	1.6	15	4	1	50.9	15.4	1.6	2	0.464	0.000	L	15	50.9	826.472	827.551	828.015	828.017	0
1	22072005	228	High	1.5	Vague	2	14	17	24	25.0	38.4	1.0	17	14	24	38.4	25.0	1.0	2	0.493	0.000	L	17	38.4	828.520	831.313	831.807	831.809	0
1	22072005	229	High	1.5	Precise	1	16	17	1	24.6	38.4	1.6	16	1	17	24.6	1.6	38.4	2	0.501	0.000	R	17	38.4	832.312	835.178	835.679	835.681	0
1	22072005	230	High	1.5	Precise	1	18	15	9	20.0	50.9	3.1	9	18	15	3.1	20.0	50.9	2	0.509	0.001	R	15	50.9	836.184	836.866	837.375	837.378	0
1	22072005	231	High	1.5	Precise	1	18	16	1	20.0	24.6	1.6	1	18	16	1.6	20.0	24.6	2	0.622	0.000	R	16	24.6	837.880	838.545	839.167	839.169	0
1	22072005	232	High	1.5	Vague	2	17	15	23	38.4	50.9	1.5	15	23	17	50.9	1.5	38.4	2	0.450	0.000	L	15	50.9	839.672	840.989	841.439	841.441	0
1	22072005	233	High	1.5	Precise	1	4	15	2	15.4	50.9	1.0	4	15	2	15.4	50.9	1.0	2	0.678	0.000	D	15	50.9	841.944	842.473	843.151	843.153	0
1	22072005	234	High	1.5	Vague	2	14	17	28	25.0	38.4	8.4	28	17	14	8.4	38.4	25.0	2	1.124	0.000	D	17	38.4	843.656	845.979	847.103	847.105	0
1	22072005	235	High	1.5	Precise	1	16	17	9	24.6	38.4	3.1	17	9	16	38.4	3.1	24.6	2	0.989	0.000	L	17	38.4	847.609	849.009	849.999	850.001	0
1	22072005	236	High	1.5	Vague	2	14	15	27	25.0	50.9	9.8	15	27	14	50.9	9.8	25.0	2	0.500	0.000	L	15	50.9	850.503	852.779	853.279	853.281	0
1	22072005	237	High	1.5	Vague	2	17	15	29	38.4	50.9	4.9	15	17	29	50.9	38.4	4.9	2	0.474	0.000	L	15	50.9	853.783	856.005	856.479	856.481	0
1	22072005	238	High	1.5	Vague	2	14	17	23	25.0	38.4	1.5	14	23	17	25.0	1.5	38.4	2	0.760	0.000	R	17	38.4	856.984	859.687	860.447	860.449	0
1	22072005	239	High	1.5	Precise	1	18	14	2	20.0	25.0	1.0	2	14	18	1.0	25.0	20.0	2	0.999	0.001	D	14	25.0	860.952	862.904	863.903	863.906	0
1	22072005	240	High	1.5	Vague	2	4	15	23	15.4	50.9	1.5	15	4	23	50.9	15.4	1.5	2	0.469	0.000	L	15	50.9	864.410	866.202	866.671	866.673	0
1	22072005	241	High	1.5	Precise	1	4	18	1	15.4	20.0	1.6	1	18	4	1.6	20.0	15.4	NaN	NaN	NaN	NaN	NaN	NaN	884.810	885.368	NaN	886.859	1
1	22072005	242	High	1.5	Precise	1	14	15	8	25.0	50.9	10.5	14	15	8	25.0	50.9	10.5	2	0.557	0.000	D	15	50.9	888.864	889.986	890.543	890.546	0
1	22072005	243	High	1.5	Precise	1	14	15	2	25.0	50.9	1.0	2	14	15	1.0	25.0	50.9	2	0.447	0.000	R	15	50.9	891.050	892.384	892.831	892.834	0
1	22072005	244	High	1.5	Precise	1	17	15	9	38.4	50.9	3.1	9	17	15	3.1	38.4	50.9	2	0.408	0.000	R	15	50.9	893.337	894.710	895.119	895.121	0
1	22072005	245	High	1.5	Vague	2	18	16	24	20.0	24.6	1.0	18	24	16	20.0	1.0	24.6	2	0.384	0.000	R	16	24.6	895.624	896.287	896.671	896.673	0
1	22072005	246	High	1.5	Vague	2	18	16	28	20.0	24.6	8.4	28	18	16	8.4	20.0	24.6	2	1.141	0.000	R	16	24.6	897.177	900.041	901.183	901.185	0
1	22072005	247	High	1.5	Precise	1	18	14	13	20.0	25.0	8.6	13	18	14	8.6	20.0	25.0	2	0.675	0.000	R	14	25.0	901.689	903.180	903.855	903.857	0
1	22072005	248	High	1.5	Vague	2	4	17	23	15.4	38.4	1.5	4	17	23	15.4	38.4	1.5	2	0.701	0.000	D	17	38.4	904.360	905.250	905.951	905.954	0
1	22072005	249	High	1.5	Precise	1	18	16	13	20.0	24.6	8.6	18	16	13	20.0	24.6	8.6	2	0.814	0.000	D	16	24.6	906.456	909.266	910.079	910.082	0
1	22072005	250	High	1.5	Vague	2	18	14	28	20.0	25.0	8.4	14	18	28	25.0	20.0	8.4	2	0.747	0.000	L	14	25.0	910.584	911.540	912.287	912.290	0
1	22072005	251	High	1.5	Precise	1	4	18	9	15.4	20.0	3.1	4	18	9	15.4	20.0	3.1	2	1.153	0.000	D	18	20.0	912.792	915.582	916.735	916.737	0
1	22072005	252	High	1.5	Precise	1	14	17	2	25.0	38.4	1.0	17	14	2	38.4	25.0	1.0	2	0.704	0.000	L	17	38.4	917.241	919.199	919.903	919.905	0
1	22072005	253	High	1.5	Precise	1	4	17	1	15.4	38.4	1.6	1	17	4	1.6	38.4	15.4	2	0.594	0.000	D	17	38.4	920.408	922.989	923.583	923.586	0
1	22072005	254	High	1.5	Vague	2	4	16	24	15.4	24.6	1.0	4	16	24	15.4	24.6	1.0	1	0.531	0.000	L	4	15.4	924.089	925.036	925.567	925.569	0
1	22072005	255	High	1.5	Precise	1	4	14	2	15.4	25.0	1.0	2	14	4	1.0	25.0	15.4	1	0.955	0.000	R	4	15.4	926.072	927.332	928.287	928.289	0
1	22072005	256	High	1.5	Vague	2	16	14	21	24.6	25.0	0.4	14	16	21	25.0	24.6	0.4	1	0.935	0.000	D	16	24.6	928.792	931.592	932.527	932.529	0
1	22072005	257	High	1.5	Precise	1	4	14	1	15.4	25.0	1.6	1	4	14	1.6	15.4	25.0	2	1.422	0.000	R	14	25.0	933.032	933.680	935.103	935.105	0
1	22072005	258	High	1.5	Vague	2	4	17	27	15.4	38.4	9.8	4	27	17	15.4	9.8	38.4	2	0.884	0.001	R	17	38.4	935.608	937.403	938.287	938.289	0
1	22072005	259	High	1.5	Precise	1	18	15	8	20.0	50.9	10.5	8	15	18	10.5	50.9	20.0	2	0.551	0.001	D	15	50.9	938.792	939.352	939.903	939.906	0
1	22072005	260	High	1.5	Vague	2	4	17	28	15.4	38.4	8.4	17	28	4	38.4	8.4	15.4	2	0.699	0.000	L	17	38.4	940.410	941.444	942.143	942.145	0
1	22072005	261	High	1.5	Vague	2	4	17	29	15.4	38.4	4.9	17	4	29	38.4	15.4	4.9	2	0.521	0.000	L	17	38.4	942.648	943.430	943.951	943.954	0
1	22072005	262	High	1.5	Precise	1	18	17	7	20.0	38.4	0.8	18	7	17	20.0	0.8	38.4	2	0.821	0.000	R	17	38.4	944.457	947.242	948.063	948.065	0
1	22072005	263	High	1.5	Vague	2	4	16	29	15.4	24.6	4.9	29	4	16	4.9	15.4	24.6	2	1.112	0.000	R	16	24.6	948.568	950.951	952.063	952.066	0
1	22072005	264	High	1.5	Precise	1	14	17	8	25.0	38.4	10.5	8	17	14	10.5	38.4	25.0	2	0.861	0.000	D	17	38.4	952.569	954.450	955.311	955.313	0
1	22072005	265	High	1.5	Vague	2	4	18	29	15.4	20.0	4.9	29	18	4	4.9	20.0	15.4	2	1.224	0.001	D	18	20.0	955.816	957.079	958.303	958.305	0
1	22072005	266	High	1.5	Vague	2	4	14	21	15.4	25.0	0.4	4	21	14	15.4	0.4	25.0	2	0.778	0.001	R	14	25.0	958.808	960.917	961.695	961.697	0
1	22072005	267	High	1.5	Vague	2	18	15	28	20.0	50.9	8.4	15	18	28	50.9	20.0	8.4	2	0.548	0.000	L	15	50.9	962.200	964.603	965.151	965.153	0
1	22072005	268	High	1.5	Precise	1	4	16	8	15.4	24.6	10.5	4	8	16	15.4	10.5	24.6	2	1.103	0.000	R	16	24.6	965.656	968.480	969.583	969.585	0
1	22072005	269	High	1.5	Precise	1	4	14	8	15.4	25.0	10.5	14	8	4	25.0	10.5	15.4	2	1.221	0.000	L	14	25.0	970.088	972.650	973.871	973.873	0
1	22072005	270	High	1.5	Precise	1	18	16	7	20.0	24.6	0.8	16	7	18	24.6	0.8	20.0	2	0.567	0.000	L	16	24.6	974.375	975.512	976.079	976.081	0
1	22072005	271	High	1.5	Vague	2	16	15	21	24.6	50.9	0.4	16	15	21	24.6	50.9	0.4	2	0.968	0.001	D	15	50.9	976.584	979.400	980.367	980.369	0
1	22072005	272	High	1.5	Precise	1	17	15	2	38.4	50.9	1.0	2	15	17	1.0	50.9	38.4	1	0.693	0.000	R	17	38.4	980.872	981.626	982.319	982.322	0
1	22072005	273	High	1.5	Vague	2	16	17	29	24.6	38.4	4.9	17	16	29	38.4	24.6	4.9	2	1.034	0.000	L	17	38.4	982.825	984.229	985.263	985.266	0
1	22072005	274	High	1.5	Precise	1	14	15	9	25.0	50.9	3.1	15	14	9	50.9	25.0	3.1	2	0.645	0.000	L	15	50.9	985.769	987.386	988.031	988.033	0
1	22072005	275	High	1.5	Vague	2	18	14	21	20.0	25.0	0.4	14	21	18	25.0	0.4	20.0	2	1.175	0.000	L	14	25.0	988.536	991.128	992.303	992.305	0
1	22072005	276	High	1.5	Precise	1	16	14	8	24.6	25.0	10.5	14	8	16	25.0	10.5	24.6	1	0.998	0.000	R	16	24.6	992.809	993.545	994.543	994.545	0
1	22072005	277	High	1.5	Precise	1	14	17	7	25.0	38.4	0.8	7	17	14	0.8	38.4	25.0	2	0.918	0.000	D	17	38.4	995.049	996.105	997.023	997.025	0
1	22072005	278	High	1.5	Vague	2	4	16	23	15.4	24.6	1.5	23	4	16	1.5	15.4	24.6	2	1.088	0.000	R	16	24.6	997.528	999.630	1000.719	1000.721	0
1	22072005	279	High	1.5	Vague	2	16	17	27	24.6	38.4	9.8	17	27	16	38.4	9.8	24.6	2	0.641	0.000	L	17	38.4	1001.224	1001.966	1002.607	1002.610	0
1	22072005	280	High	1.5	Vague	2	16	14	28	24.6	25.0	8.4	16	28	14	24.6	8.4	25.0	1	0.973	0.000	L	16	24.6	1003.113	1006.002	1006.975	1006.977	0
1	22072005	281	High	1.5	Vague	2	18	17	24	20.0	38.4	1.0	18	17	24	20.0	38.4	1.0	2	0.549	0.000	D	17	38.4	1007.480	1009.194	1009.743	1009.745	0
1	22072005	282	High	1.5	Precise	1	16	17	2	24.6	38.4	1.0	16	2	17	24.6	1.0	38.4	1	0.510	0.001	L	16	24.6	1010.248	1012.529	1013.039	1013.041	0
1	22072005	283	High	1.5	Precise	1	16	14	7	24.6	25.0	0.8	7	16	14	0.8	24.6	25.0	1	0.676	0.000	D	16	24.6	1013.544	1015.611	1016.287	1016.289	0
1	22072005	284	High	1.5	Vague	2	4	15	21	15.4	50.9	0.4	21	4	15	0.4	15.4	50.9	2	0.507	0.001	R	15	50.9	1016.793	1017.412	1017.919	1017.921	0
1	22072005	285	High	1.5	Precise	1	4	15	7	15.4	50.9	0.8	7	15	4	0.8	50.9	15.4	2	0.590	0.000	D	15	50.9	1018.424	1020.289	1020.879	1020.881	0
1	22072005	286	High	1.5	Precise	1	16	17	8	24.6	38.4	10.5	16	17	8	24.6	38.4	10.5	1	0.521	0.000	L	16	24.6	1021.384	1022.902	1023.423	1023.425	0
1	22072005	287	High	1.5	Precise	1	4	17	8	15.4	38.4	10.5	4	17	8	15.4	38.4	10.5	2	0.704	0.000	D	17	38.4	1023.928	1025.183	1025.887	1025.889	0
1	22072005	288	High	1.5	Precise	1	18	17	8	20.0	38.4	10.5	17	18	8	38.4	20.0	10.5	2	0.984	0.000	L	17	38.4	1026.392	1029.223	1030.207	1030.209	0
1	22072005	289	High	1.5	Vague	2	4	14	28	15.4	25.0	8.4	14	4	28	25.0	15.4	8.4	2	1.302	0.000	L	14	25.0	1030.713	1032.281	1033.583	1033.585	0
1	22072005	290	High	1.5	Vague	2	16	15	23	24.6	50.9	1.5	16	15	23	24.6	50.9	1.5	1	0.716	0.000	L	16	24.6	1034.088	1035.058	1035.775	1035.777	0
1	22072005	291	High	1.5	Precise	1	4	16	1	15.4	24.6	1.6	1	4	16	1.6	15.4	24.6	2	0.970	0.000	R	16	24.6	1036.279	1037.125	1038.095	1038.097	0
1	22072005	292	High	1.5	Vague	2	4	14	24	15.4	25.0	1.0	4	24	14	15.4	1.0	25.0	2	1.028	0.000	R	14	25.0	1038.600	1041.034	1042.063	1042.065	0
1	22072005	293	High	1.5	Precise	1	4	14	13	15.4	25.0	8.6	13	4	14	8.6	15.4	25.0	2	0.762	0.000	R	14	25.0	1042.568	1045.524	1046.287	1046.289	0
1	22072005	294	High	1.5	Vague	2	17	15	28	38.4	50.9	8.4	15	17	28	50.9	38.4	8.4	2	0.633	0.000	L	15	50.9	1046.792	1048.358	1048.991	1048.993	0
1	22072005	295	High	1.5	Vague	2	16	14	24	24.6	25.0	1.0	14	24	16	25.0	1.0	24.6	1	1.042	0.001	R	16	24.6	1049.496	1052.077	1053.119	1053.121	0
1	22072005	296	High	1.5	Precise	1	18	15	13	20.0	50.9	8.6	18	13	15	20.0	8.6	50.9	2	0.525	0.000	R	15	50.9	1053.624	1054.882	1055.407	1055.409	0
1	22072005	297	High	1.5	Precise	1	18	17	9	20.0	38.4	3.1	9	17	18	3.1	38.4	20.0	2	0.867	0.001	D	17	38.4	1055.912	1057.628	1058.495	1058.497	0
1	22072005	298	High	1.5	Precise	1	4	16	7	15.4	24.6	0.8	16	4	7	24.6	15.4	0.8	2	1.183	0.000	L	16	24.6	1059.001	1060.895	1062.079	1062.081	0
1	22072005	299	High	1.5	Precise	1	16	17	7	24.6	38.4	0.8	17	7	16	38.4	0.8	24.6	2	0.708	0.000	L	17	38.4	1062.583	1063.499	1064.207	1064.210	0
1	22072005	300	High	1.5	Vague	2	4	16	28	15.4	24.6	8.4	16	4	28	24.6	15.4	8.4	2	0.680	0.000	L	16	24.6	1064.712	1067.510	1068.191	1068.193	0
1	22072005	301	High	1.5	Vague	2	16	14	23	24.6	25.0	1.5	14	16	23	25.0	24.6	1.5	1	0.958	0.000	D	16	24.6	1094.483	1097.136	1098.095	1098.097	0
1	22072005	302	High	1.5	Precise	1	16	14	13	24.6	25.0	8.6	16	14	13	24.6	25.0	8.6	1	0.833	0.000	L	16	24.6	1098.600	1100.430	1101.263	1101.265	0
1	22072005	303	High	1.5	Vague	2	4	14	29	15.4	25.0	4.9	4	14	29	15.4	25.0	4.9	NaN	NaN	NaN	NaN	NaN	NaN	1101.769	1102.475	NaN	1103.964	1
1	22072005	304	High	1.5	Vague	2	4	15	29	15.4	50.9	4.9	29	4	15	4.9	15.4	50.9	2	0.466	0.000	R	15	50.9	1105.967	1107.709	1108.175	1108.178	0
1	22072005	305	High	1.5	Vague	2	18	15	24	20.0	50.9	1.0	15	24	18	50.9	1.0	20.0	2	0.429	0.001	L	15	50.9	1108.681	1111.314	1111.743	1111.745	0
1	22072005	306	High	1.5	Vague	2	14	15	21	25.0	50.9	0.4	21	15	14	0.4	50.9	25.0	2	0.592	0.000	D	15	50.9	1112.249	1113.295	1113.887	1113.889	0
1	22072005	307	High	1.5	Precise	1	18	14	7	20.0	25.0	0.8	7	14	18	0.8	25.0	20.0	2	0.919	0.000	D	14	25.0	1114.392	1116.248	1117.167	1117.169	0
1	22072005	308	High	1.5	Precise	1	18	14	1	20.0	25.0	1.6	1	14	18	1.6	25.0	20.0	2	0.580	0.000	D	14	25.0	1117.673	1119.643	1120.223	1120.225	0
1	22072005	309	High	1.5	Vague	2	4	18	21	15.4	20.0	0.4	18	21	4	20.0	0.4	15.4	2	0.492	0.000	L	18	20.0	1120.728	1122.531	1123.023	1123.025	0
1	22072005	310	High	1.5	Precise	1	4	18	13	15.4	20.0	8.6	4	13	18	15.4	8.6	20.0	2	0.704	0.001	R	18	20.0	1123.528	1124.383	1125.087	1125.090	0
1	22072005	311	High	1.5	Precise	1	18	14	8	20.0	25.0	10.5	14	8	18	25.0	10.5	20.0	1	1.189	0.000	R	18	20.0	1125.593	1126.682	1127.871	1127.873	0
1	22072005	312	High	1.5	Precise	1	4	15	9	15.4	50.9	3.1	4	9	15	15.4	3.1	50.9	2	0.482	0.001	R	15	50.9	1128.376	1131.005	1131.487	1131.489	0
1	22072005	313	High	1.5	Precise	1	16	15	2	24.6	50.9	1.0	2	15	16	1.0	50.9	24.6	2	0.670	0.000	D	15	50.9	1131.992	1133.697	1134.367	1134.369	0
1	22072005	314	High	1.5	Vague	2	18	17	29	20.0	38.4	4.9	29	17	18	4.9	38.4	20.0	2	0.568	0.000	D	17	38.4	1134.872	1136.503	1137.071	1137.073	0
1	22072005	315	High	1.5	Vague	2	4	14	23	15.4	25.0	1.5	23	4	14	1.5	15.4	25.0	2	0.884	0.000	R	14	25.0	1137.575	1138.235	1139.119	1139.121	0
1	22072005	316	High	1.5	Precise	1	14	17	1	25.0	38.4	1.6	1	17	14	1.6	38.4	25.0	1	0.442	0.000	R	14	25.0	1139.624	1140.565	1141.007	1141.009	0
1	22072005	317	High	1.5	Vague	2	14	17	21	25.0	38.4	0.4	17	14	21	38.4	25.0	0.4	2	0.786	0.001	L	17	38.4	1141.512	1143.949	1144.735	1144.737	0
1	22072005	318	High	1.5	Vague	2	16	17	28	24.6	38.4	8.4	17	16	28	38.4	24.6	8.4	2	0.585	0.000	L	17	38.4	1145.240	1145.846	1146.431	1146.433	0
1	22072005	319	High	1.5	Precise	1	14	17	9	25.0	38.4	3.1	14	17	9	25.0	38.4	3.1	1	0.776	0.001	L	14	25.0	1146.936	1148.455	1149.231	1149.234	0
1	22072005	320	High	1.5	Vague	2	16	15	28	24.6	50.9	8.4	28	16	15	8.4	24.6	50.9	2	0.519	0.000	R	15	50.9	1149.737	1150.280	1150.799	1150.801	0
1	22072005	321	High	1.5	Vague	2	18	17	23	20.0	38.4	1.5	17	23	18	38.4	1.5	20.0	2	0.609	0.000	L	17	38.4	1151.304	1152.190	1152.799	1152.801	0
1	22072005	322	High	1.5	Precise	1	14	15	7	25.0	50.9	0.8	7	14	15	0.8	25.0	50.9	2	0.428	0.000	R	15	50.9	1153.304	1154.595	1155.023	1155.025	0
1	22072005	323	High	1.5	Precise	1	18	17	1	20.0	38.4	1.6	18	17	1	20.0	38.4	1.6	2	0.706	0.000	D	17	38.4	1155.528	1157.373	1158.079	1158.081	0
1	22072005	324	High	1.5	Precise	1	4	15	8	15.4	50.9	10.5	15	8	4	50.9	10.5	15.4	2	0.520	0.000	L	15	50.9	1158.584	1159.831	1160.351	1160.353	0
1	22072005	325	High	1.5	Precise	1	4	17	2	15.4	38.4	1.0	17	4	2	38.4	15.4	1.0	2	0.572	0.000	L	17	38.4	1160.856	1163.267	1163.839	1163.841	0
1	22072005	326	High	1.5	Vague	2	4	18	27	15.4	20.0	9.8	18	27	4	20.0	9.8	15.4	2	0.992	0.000	L	18	20.0	1164.344	1165.215	1166.207	1166.210	0
1	22072005	327	High	1.5	Vague	2	14	15	24	25.0	50.9	1.0	15	24	14	50.9	1.0	25.0	2	0.525	0.001	L	15	50.9	1166.713	1169.474	1169.999	1170.001	0
1	22072005	328	High	1.5	Precise	1	4	18	2	15.4	20.0	1.0	2	18	4	1.0	20.0	15.4	2	1.081	0.000	D	18	20.0	1170.504	1172.021	1173.103	1173.105	0
1	22072005	329	High	1.5	Vague	2	14	15	23	25.0	50.9	1.5	14	23	15	25.0	1.5	50.9	2	0.473	0.000	R	15	50.9	1173.608	1174.309	1174.783	1174.785	0
1	22072005	330	High	1.5	Vague	2	18	14	29	20.0	25.0	4.9	29	14	18	4.9	25.0	20.0	2	0.718	0.000	D	14	25.0	1175.288	1177.393	1178.111	1178.113	0
1	22072005	331	High	1.5	Precise	1	4	15	13	15.4	50.9	8.6	13	15	4	8.6	50.9	15.4	2	0.675	0.000	D	15	50.9	1178.616	1181.004	1181.679	1181.681	0
1	22072005	332	High	1.5	Vague	2	4	18	23	15.4	20.0	1.5	4	18	23	15.4	20.0	1.5	1	0.535	0.001	L	4	15.4	1182.185	1182.937	1183.471	1183.474	0
1	22072005	333	High	1.5	Precise	1	16	15	1	24.6	50.9	1.6	1	15	16	1.6	50.9	24.6	2	0.857	0.000	D	15	50.9	1183.976	1184.470	1185.327	1185.329	0
1	22072005	334	High	1.5	Vague	2	18	17	27	20.0	38.4	9.8	27	18	17	9.8	20.0	38.4	2	0.595	0.000	R	17	38.4	1185.832	1187.484	1188.079	1188.081	0
1	22072005	335	High	1.5	Vague	2	16	17	24	24.6	38.4	1.0	16	24	17	24.6	1.0	38.4	2	0.956	0.000	R	17	38.4	1188.584	1190.371	1191.327	1191.329	0
1	22072005	336	High	1.5	Precise	1	17	15	13	38.4	50.9	8.6	17	13	15	38.4	8.6	50.9	2	0.503	0.000	R	15	50.9	1191.832	1193.608	1194.111	1194.113	0
1	22072005	337	High	1.5	Precise	1	4	17	13	15.4	38.4	8.6	17	4	13	38.4	15.4	8.6	2	0.832	0.000	L	17	38.4	1194.616	1195.807	1196.639	1196.641	0
1	22072005	338	High	1.5	Vague	2	4	16	21	15.4	24.6	0.4	16	4	21	24.6	15.4	0.4	2	0.660	0.000	L	16	24.6	1197.144	1197.739	1198.399	1198.401	0
1	22072005	339	High	1.5	Vague	2	16	17	21	24.6	38.4	0.4	16	17	21	24.6	38.4	0.4	2	0.933	0.000	D	17	38.4	1198.904	1201.866	1202.799	1202.801	0
1	22072005	340	High	1.5	Vague	2	4	14	27	15.4	25.0	9.8	27	14	4	9.8	25.0	15.4	2	1.023	0.000	D	14	25.0	1203.304	1205.632	1206.655	1206.657	0
1	22072005	341	High	1.5	Vague	2	17	15	21	38.4	50.9	0.4	15	17	21	50.9	38.4	0.4	2	0.601	0.000	L	15	50.9	1207.160	1210.102	1210.703	1210.706	0
1	22072005	342	High	1.5	Precise	1	4	16	13	15.4	24.6	8.6	13	16	4	8.6	24.6	15.4	2	0.649	0.000	D	16	24.6	1211.209	1214.070	1214.719	1214.722	0
1	22072005	343	High	1.5	Vague	2	18	16	21	20.0	24.6	0.4	21	16	18	0.4	24.6	20.0	2	0.654	0.000	D	16	24.6	1215.224	1217.073	1217.727	1217.729	0
1	22072005	344	High	1.5	Vague	2	4	15	24	15.4	50.9	1.0	4	24	15	15.4	1.0	50.9	2	0.551	0.000	R	15	50.9	1218.232	1219.511	1220.063	1220.065	0
1	22072005	345	High	1.5	Precise	1	17	15	7	38.4	50.9	0.8	15	17	7	50.9	38.4	0.8	2	0.499	0.000	L	15	50.9	1220.568	1223.292	1223.791	1223.793	0
1	22072005	346	High	1.5	Precise	1	4	18	7	15.4	20.0	0.8	18	4	7	20.0	15.4	0.8	2	1.382	0.000	L	18	20.0	1224.296	1224.889	1226.271	1226.273	0
1	22072005	347	High	1.5	Vague	2	4	18	24	15.4	20.0	1.0	4	24	18	15.4	1.0	20.0	2	0.914	0.000	R	18	20.0	1226.776	1228.909	1229.823	1229.825	0
1	22072005	348	High	1.5	Precise	1	18	16	9	20.0	24.6	3.1	18	9	16	20.0	3.1	24.6	1	0.530	0.000	L	18	20.0	1230.328	1232.797	1233.327	1233.330	0
1	22072005	349	High	1.5	Vague	2	18	16	29	20.0	24.6	4.9	16	18	29	24.6	20.0	4.9	2	1.061	0.000	L	16	24.6	1233.832	1234.554	1235.615	1235.617	0
1	22072005	350	High	1.5	Precise	1	14	17	13	25.0	38.4	8.6	17	13	14	38.4	8.6	25.0	2	0.932	0.001	L	17	38.4	1236.120	1237.276	1238.207	1238.210	0
1	22072005	351	High	1.5	Vague	2	4	17	21	15.4	38.4	0.4	21	4	17	0.4	15.4	38.4	2	0.819	0.000	R	17	38.4	1238.712	1239.772	1240.591	1240.593	0
1	22072005	352	High	1.5	Vague	2	16	15	29	24.6	50.9	4.9	29	15	16	4.9	50.9	24.6	2	0.709	0.000	D	15	50.9	1241.097	1242.555	1243.263	1243.266	0
1	22072005	353	High	1.5	Vague	2	18	15	27	20.0	50.9	9.8	27	18	15	9.8	20.0	50.9	2	0.512	0.000	R	15	50.9	1243.768	1246.735	1247.247	1247.249	0
1	22072005	354	High	1.5	Precise	1	4	14	7	15.4	25.0	0.8	7	4	14	0.8	15.4	25.0	1	1.168	0.001	D	4	15.4	1247.752	1249.360	1250.527	1250.531	0
1	22072005	355	High	1.5	Vague	2	18	17	28	20.0	38.4	8.4	18	28	17	20.0	8.4	38.4	2	0.625	0.000	R	17	38.4	1251.034	1252.766	1253.391	1253.393	0
1	22072005	356	High	1.5	Vague	2	16	14	29	24.6	25.0	4.9	29	14	16	4.9	25.0	24.6	3	0.807	0.000	L	29	4.9	1253.896	1254.936	1255.743	1255.745	0
1	22072005	357	High	1.5	Precise	1	18	16	2	20.0	24.6	1.0	18	2	16	20.0	1.0	24.6	2	0.538	0.001	R	16	24.6	1256.248	1256.853	1257.391	1257.393	0
1	22072005	358	High	1.5	Precise	1	18	14	9	20.0	25.0	3.1	18	9	14	20.0	3.1	25.0	2	1.216	0.000	R	14	25.0	1257.896	1258.559	1259.775	1259.778	0
1	22072005	359	High	1.5	Vague	2	18	14	27	20.0	25.0	9.8	18	14	27	20.0	25.0	9.8	2	0.787	0.000	D	14	25.0	1260.280	1262.733	1263.519	1263.522	0
1	22072005	360	High	1.5	Vague	2	4	15	28	15.4	50.9	8.4	28	4	15	8.4	15.4	50.9	2	0.518	0.001	R	15	50.9	1264.024	1266.313	1266.831	1266.834	0
