Group	subID	trial	TimePressure	TimeConstraint	Vagueness	Vaguenesscode	ID1	ID2	ID3	V1	V2	V3	ID_left	ID_middle	ID_right	Bid_left	Bid_middle	Bid_right	chosenItem	RT	RTvariance	chosenPosition	chosenID	chosenValue	fixation_time	option_time	choice_time	feedback_time	timeout
2	22102707	1	Low	10.0	Precise	1	28	35	27	2.0	2.1	1.4	27	35	28	1.4	2.1	2.0	2	1.642	0.000	D	35	2.1	5.661	6.251	7.892	7.896	0
2	22102707	2	Low	10.0	Vague	2	28	30	11	2.0	5.0	1.3	11	28	30	1.3	2.0	5.0	2	0.840	0.001	R	30	5.0	8.400	10.501	11.341	11.344	0
2	22102707	3	Low	10.0	Vague	2	22	28	2	1.7	2.0	1.2	28	2	22	2.0	1.2	1.7	1	1.364	0.001	R	22	1.7	11.848	12.673	14.037	14.039	0
2	22102707	4	Low	10.0	Precise	1	35	30	21	2.1	5.0	1.1	30	35	21	5.0	2.1	1.1	2	0.757	0.000	L	30	5.0	14.543	16.064	16.821	16.824	0
2	22102707	5	Low	10.0	Vague	2	22	36	16	1.7	1.9	1.5	16	22	36	1.5	1.7	1.9	2	1.205	0.000	R	36	1.9	17.328	18.487	19.692	19.698	0
2	22102707	6	Low	10.0	Precise	1	36	30	32	1.9	5.0	1.6	30	36	32	5.0	1.9	1.6	2	0.748	0.000	L	30	5.0	20.203	22.081	22.829	22.832	0
2	22102707	7	Low	10.0	Vague	2	28	25	16	2.0	3.7	1.5	16	25	28	1.5	3.7	2.0	2	1.322	0.001	D	25	3.7	23.335	24.211	25.533	25.536	0
2	22102707	8	Low	10.0	Precise	1	28	30	23	2.0	5.0	1.2	23	28	30	1.2	2.0	5.0	2	0.663	0.001	R	30	5.0	26.038	28.886	29.549	29.551	0
2	22102707	9	Low	10.0	Precise	1	22	35	27	1.7	2.1	1.4	22	27	35	1.7	1.4	2.1	1	1.711	0.000	L	22	1.7	30.054	31.493	33.205	33.207	0
2	22102707	10	Low	10.0	Precise	1	28	25	32	2.0	3.7	1.6	25	28	32	3.7	2.0	1.6	2	0.899	0.000	L	25	3.7	33.710	36.113	37.013	37.015	0
2	22102707	11	Low	10.0	Precise	1	35	30	23	2.1	5.0	1.2	35	23	30	2.1	1.2	5.0	2	0.931	0.000	R	30	5.0	37.518	38.474	39.404	39.407	0
2	22102707	12	Low	10.0	Vague	2	22	28	5	1.7	2.0	1.1	22	5	28	1.7	1.1	2.0	1	0.770	0.001	L	22	1.7	39.909	42.411	43.181	43.184	0
2	22102707	13	Low	10.0	Vague	2	25	30	11	3.7	5.0	1.3	30	25	11	5.0	3.7	1.3	2	0.606	0.001	L	30	5.0	43.686	45.174	45.781	45.783	0
2	22102707	14	Low	10.0	Vague	2	36	25	16	1.9	3.7	1.5	25	16	36	3.7	1.5	1.9	2	0.607	0.000	L	25	3.7	46.285	47.510	48.116	48.119	0
2	22102707	15	Low	10.0	Precise	1	35	25	24	2.1	3.7	1.4	24	25	35	1.4	3.7	2.1	2	0.623	0.001	D	25	3.7	48.622	50.518	51.141	51.143	0
2	22102707	16	Low	10.0	Precise	1	35	25	27	2.1	3.7	1.4	27	25	35	1.4	3.7	2.1	2	0.424	0.001	D	25	3.7	51.646	52.469	52.893	52.895	0
2	22102707	17	Low	10.0	Vague	2	28	25	2	2.0	3.7	1.2	28	25	2	2.0	3.7	1.2	2	0.402	0.001	D	25	3.7	53.398	55.203	55.605	55.607	0
2	22102707	18	Low	10.0	Precise	1	36	30	27	1.9	5.0	1.4	27	30	36	1.4	5.0	1.9	2	0.558	0.000	D	30	5.0	56.110	57.318	57.877	57.879	0
2	22102707	19	Low	10.0	Precise	1	25	30	24	3.7	5.0	1.4	25	30	24	3.7	5.0	1.4	2	0.762	0.000	D	30	5.0	58.382	59.602	60.364	60.367	0
2	22102707	20	Low	10.0	Vague	2	22	25	16	1.7	3.7	1.5	16	22	25	1.5	1.7	3.7	2	0.698	0.000	R	25	3.7	60.870	62.083	62.780	62.783	0
2	22102707	21	Low	10.0	Vague	2	36	30	5	1.9	5.0	1.1	36	5	30	1.9	1.1	5.0	2	0.632	0.000	R	30	5.0	63.285	64.556	65.189	65.191	0
2	22102707	22	Low	10.0	Precise	1	36	28	24	1.9	2.0	1.4	24	36	28	1.4	1.9	2.0	1	1.186	0.001	D	36	1.9	65.694	68.651	69.837	69.839	0
2	22102707	23	Low	10.0	Vague	2	22	25	17	1.7	3.7	1.6	17	22	25	1.6	1.7	3.7	2	0.646	0.000	R	25	3.7	70.342	72.158	72.805	72.807	0
2	22102707	24	Low	10.0	Precise	1	36	25	21	1.9	3.7	1.1	36	25	21	1.9	3.7	1.1	2	0.555	0.000	D	25	3.7	73.309	74.618	75.172	75.176	0
2	22102707	25	Low	10.0	Precise	1	22	28	27	1.7	2.0	1.4	27	28	22	1.4	2.0	1.7	1	1.146	0.000	R	22	1.7	75.678	78.394	79.540	79.543	0
2	22102707	26	Low	10.0	Precise	1	36	30	34	1.9	5.0	1.7	36	30	34	1.9	5.0	1.7	2	1.171	0.000	D	30	5.0	80.045	80.898	82.069	82.071	0
2	22102707	27	Low	10.0	Precise	1	28	25	23	2.0	3.7	1.2	23	28	25	1.2	2.0	3.7	2	0.545	0.000	R	25	3.7	82.574	84.860	85.404	85.407	0
2	22102707	28	Low	10.0	Vague	2	22	35	2	1.7	2.1	1.2	2	35	22	1.2	2.1	1.7	1	1.477	0.001	R	22	1.7	85.909	86.767	88.245	88.247	0
2	22102707	29	Low	10.0	Precise	1	35	25	21	2.1	3.7	1.1	25	35	21	3.7	2.1	1.1	2	0.635	0.001	L	25	3.7	88.750	91.042	91.677	91.679	0
2	22102707	30	Low	10.0	Vague	2	22	30	16	1.7	5.0	1.5	22	16	30	1.7	1.5	5.0	2	0.722	0.000	R	30	5.0	92.182	93.610	94.332	94.335	0
2	22102707	31	Low	10.0	Vague	2	35	25	17	2.1	3.7	1.6	17	35	25	1.6	2.1	3.7	2	0.510	0.001	R	25	3.7	94.838	95.486	95.997	95.999	0
2	22102707	32	Low	10.0	Vague	2	28	25	5	2.0	3.7	1.1	5	25	28	1.1	3.7	2.0	2	0.664	0.000	D	25	3.7	96.501	98.556	99.220	99.223	0
2	22102707	33	Low	10.0	Vague	2	36	35	2	1.9	2.1	1.2	2	36	35	1.2	1.9	2.1	1	0.903	0.001	D	36	1.9	99.726	101.582	102.485	102.487	0
2	22102707	34	Low	10.0	Precise	1	25	30	23	3.7	5.0	1.2	30	25	23	5.0	3.7	1.2	1	0.620	0.000	D	25	3.7	102.990	105.825	106.444	106.447	0
2	22102707	35	Low	10.0	Precise	1	25	30	21	3.7	5.0	1.1	25	30	21	3.7	5.0	1.1	1	0.570	0.000	L	25	3.7	106.949	107.874	108.444	108.447	0
2	22102707	36	Low	10.0	Precise	1	28	25	24	2.0	3.7	1.4	24	25	28	1.4	3.7	2.0	2	0.498	0.001	D	25	3.7	108.950	111.362	111.861	111.863	0
2	22102707	37	Low	10.0	Vague	2	36	35	11	1.9	2.1	1.3	35	36	11	2.1	1.9	1.3	1	1.215	0.000	D	36	1.9	112.365	114.189	115.404	115.407	0
2	22102707	38	Low	10.0	Vague	2	28	35	11	2.0	2.1	1.3	11	35	28	1.3	2.1	2.0	1	3.445	0.000	R	28	2.0	115.910	116.511	119.956	119.959	0
2	22102707	39	Low	10.0	Precise	1	22	30	27	1.7	5.0	1.4	30	22	27	5.0	1.7	1.4	2	0.836	0.000	L	30	5.0	120.462	122.313	123.149	123.151	0
2	22102707	40	Low	10.0	Precise	1	22	28	23	1.7	2.0	1.2	28	23	22	2.0	1.2	1.7	1	1.250	0.000	R	22	1.7	123.653	125.946	127.196	127.199	0
2	22102707	41	Low	10.0	Vague	2	22	35	11	1.7	2.1	1.3	11	22	35	1.3	1.7	2.1	1	1.641	0.001	D	22	1.7	127.701	129.564	131.205	131.207	0
2	22102707	42	Low	10.0	Precise	1	36	30	23	1.9	5.0	1.2	36	30	23	1.9	5.0	1.2	2	0.836	0.000	D	30	5.0	131.710	133.232	134.068	134.071	0
2	22102707	43	Low	10.0	Precise	1	36	25	27	1.9	3.7	1.4	36	27	25	1.9	1.4	3.7	2	0.700	0.001	R	25	3.7	134.573	136.760	137.461	137.463	0
2	22102707	44	Low	10.0	Precise	1	35	25	23	2.1	3.7	1.2	35	25	23	2.1	3.7	1.2	2	0.585	0.001	D	25	3.7	137.966	139.388	139.973	139.975	0
2	22102707	45	Low	10.0	Precise	1	22	35	23	1.7	2.1	1.2	35	22	23	2.1	1.7	1.2	2	1.181	0.000	L	35	2.1	140.478	141.343	142.524	142.527	0
2	22102707	46	Low	10.0	Precise	1	36	35	34	1.9	2.1	1.7	35	36	34	2.1	1.9	1.7	1	0.779	0.001	D	36	1.9	143.030	144.018	144.797	144.799	0
2	22102707	47	Low	10.0	Vague	2	22	28	17	1.7	2.0	1.6	28	17	22	2.0	1.6	1.7	1	1.170	0.000	R	22	1.7	145.302	147.786	148.957	148.959	0
2	22102707	48	Low	10.0	Precise	1	22	30	24	1.7	5.0	1.4	24	30	22	1.4	5.0	1.7	2	0.818	0.000	D	30	5.0	149.461	151.210	152.028	152.031	0
2	22102707	49	Low	10.0	Precise	1	36	30	24	1.9	5.0	1.4	30	24	36	5.0	1.4	1.9	2	0.696	0.001	L	30	5.0	152.533	153.244	153.941	153.943	0
2	22102707	50	Low	10.0	Precise	1	35	30	32	2.1	5.0	1.6	32	30	35	1.6	5.0	2.1	2	0.633	0.000	D	30	5.0	154.446	155.732	156.365	156.367	0
2	22102707	51	Low	10.0	Vague	2	22	36	2	1.7	1.9	1.2	2	36	22	1.2	1.9	1.7	2	0.743	0.000	D	36	1.9	156.870	159.317	160.060	160.063	0
2	22102707	52	Low	10.0	Precise	1	36	35	23	1.9	2.1	1.2	35	36	23	2.1	1.9	1.2	1	0.636	0.001	D	36	1.9	160.566	162.424	163.060	163.063	0
2	22102707	53	Low	10.0	Precise	1	36	25	24	1.9	3.7	1.4	24	36	25	1.4	1.9	3.7	2	0.733	0.000	R	25	3.7	163.566	164.832	165.565	165.567	0
2	22102707	54	Low	10.0	Vague	2	35	30	5	2.1	5.0	1.1	35	5	30	2.1	1.1	5.0	2	0.723	0.001	R	30	5.0	166.069	168.602	169.325	169.327	0
2	22102707	55	Low	10.0	Precise	1	28	35	32	2.0	2.1	1.6	28	32	35	2.0	1.6	2.1	2	1.922	0.001	R	35	2.1	169.830	172.026	173.948	173.951	0
2	22102707	56	Low	10.0	Precise	1	28	30	24	2.0	5.0	1.4	30	28	24	5.0	2.0	1.4	2	0.715	0.000	L	30	5.0	174.454	176.009	176.724	176.727	0
2	22102707	57	Low	10.0	Precise	1	35	30	27	2.1	5.0	1.4	35	30	27	2.1	5.0	1.4	2	0.871	0.000	D	30	5.0	177.229	179.094	179.965	179.967	0
2	22102707	58	Low	10.0	Precise	1	22	25	24	1.7	3.7	1.4	22	25	24	1.7	3.7	1.4	2	0.521	0.001	D	25	3.7	180.469	181.588	182.109	182.111	0
2	22102707	59	Low	10.0	Vague	2	25	30	17	3.7	5.0	1.6	30	25	17	5.0	3.7	1.6	1	0.499	0.000	D	25	3.7	182.613	183.234	183.733	183.735	0
2	22102707	60	Low	10.0	Vague	2	22	35	5	1.7	2.1	1.1	35	5	22	2.1	1.1	1.7	3	0.961	0.001	D	5	1.1	184.237	186.868	187.829	187.831	0
2	22102707	61	Low	10.0	Vague	2	36	28	11	1.9	2.0	1.3	36	28	11	1.9	2.0	1.3	1	1.469	0.000	L	36	1.9	193.745	194.952	196.420	196.423	0
2	22102707	62	Low	10.0	Vague	2	36	30	7	1.9	5.0	1.2	36	7	30	1.9	1.2	5.0	2	0.777	0.001	R	30	5.0	196.925	197.684	198.460	198.463	0
2	22102707	63	Low	10.0	Precise	1	28	25	21	2.0	3.7	1.1	28	21	25	2.0	1.1	3.7	2	0.820	0.000	R	25	3.7	198.966	200.784	201.604	201.607	0
2	22102707	64	Low	10.0	Precise	1	22	36	24	1.7	1.9	1.4	24	36	22	1.4	1.9	1.7	2	1.196	0.000	D	36	1.9	202.109	204.801	205.997	205.999	0
2	22102707	65	Low	10.0	Precise	1	28	35	34	2.0	2.1	1.7	28	34	35	2.0	1.7	2.1	2	1.437	0.001	R	35	2.1	206.502	207.696	209.133	209.135	0
2	22102707	66	Low	10.0	Vague	2	22	30	17	1.7	5.0	1.6	30	17	22	5.0	1.6	1.7	2	0.682	0.000	L	30	5.0	209.637	212.106	212.789	212.791	0
2	22102707	67	Low	10.0	Vague	2	36	28	7	1.9	2.0	1.2	36	28	7	1.9	2.0	1.2	1	0.866	0.000	L	36	1.9	213.294	216.195	217.060	217.063	0
2	22102707	68	Low	10.0	Precise	1	28	30	32	2.0	5.0	1.6	28	30	32	2.0	5.0	1.6	2	1.294	0.000	D	30	5.0	217.566	219.974	221.268	221.271	0
2	22102707	69	Low	10.0	Precise	1	36	28	27	1.9	2.0	1.4	36	28	27	1.9	2.0	1.4	1	0.890	0.000	L	36	1.9	221.774	223.554	224.444	224.447	0
2	22102707	70	Low	10.0	Precise	1	22	25	34	1.7	3.7	1.7	25	34	22	3.7	1.7	1.7	2	0.632	0.000	L	25	3.7	224.950	226.500	227.132	227.135	0
2	22102707	71	Low	10.0	Precise	1	36	25	32	1.9	3.7	1.6	36	32	25	1.9	1.6	3.7	2	0.800	0.000	R	25	3.7	227.638	229.605	230.404	230.407	0
2	22102707	72	Low	10.0	Precise	1	22	28	32	1.7	2.0	1.6	32	22	28	1.6	1.7	2.0	1	1.288	0.000	D	22	1.7	230.909	233.604	234.892	234.895	0
2	22102707	73	Low	10.0	Precise	1	22	30	23	1.7	5.0	1.2	23	22	30	1.2	1.7	5.0	2	0.919	0.000	R	30	5.0	235.397	236.326	237.244	237.247	0
2	22102707	74	Low	10.0	Vague	2	35	25	5	2.1	3.7	1.1	25	5	35	3.7	1.1	2.1	2	0.620	0.000	L	25	3.7	237.750	238.592	239.212	239.215	0
2	22102707	75	Low	10.0	Vague	2	36	28	2	1.9	2.0	1.2	28	2	36	2.0	1.2	1.9	1	1.382	0.000	R	36	1.9	239.717	241.759	243.140	243.143	0
2	22102707	76	Low	10.0	Precise	1	35	25	34	2.1	3.7	1.7	34	35	25	1.7	2.1	3.7	2	0.588	0.000	R	25	3.7	243.645	246.600	247.188	247.191	0
2	22102707	77	Low	10.0	Precise	1	22	36	21	1.7	1.9	1.1	21	22	36	1.1	1.7	1.9	2	1.009	0.000	R	36	1.9	247.694	248.427	249.436	249.439	0
2	22102707	78	Low	10.0	Vague	2	36	35	7	1.9	2.1	1.2	7	36	35	1.2	1.9	2.1	1	0.998	0.000	D	36	1.9	249.942	250.671	251.669	251.671	0
2	22102707	79	Low	10.0	Precise	1	22	30	34	1.7	5.0	1.7	34	30	22	1.7	5.0	1.7	2	0.866	0.000	D	30	5.0	252.173	254.715	255.580	255.583	0
2	22102707	80	Low	10.0	Vague	2	28	30	5	2.0	5.0	1.1	30	28	5	5.0	2.0	1.1	1	0.611	0.000	D	28	2.0	256.086	257.674	258.284	258.287	0
2	22102707	81	Low	10.0	Vague	2	28	35	16	2.0	2.1	1.5	28	16	35	2.0	1.5	2.1	2	1.811	0.001	R	35	2.1	258.789	261.289	263.100	263.103	0
2	22102707	82	Low	10.0	Precise	1	22	28	34	1.7	2.0	1.7	28	34	22	2.0	1.7	1.7	1	1.016	0.000	R	22	1.7	263.605	266.196	267.212	267.215	0
2	22102707	83	Low	10.0	Precise	1	22	28	21	1.7	2.0	1.1	21	22	28	1.1	1.7	2.0	1	0.842	0.000	D	22	1.7	267.717	269.074	269.916	269.919	0
2	22102707	84	Low	10.0	Precise	1	28	25	27	2.0	3.7	1.4	25	28	27	3.7	2.0	1.4	2	0.568	0.000	L	25	3.7	270.421	272.396	272.964	272.967	0
2	22102707	85	Low	10.0	Precise	1	25	30	34	3.7	5.0	1.7	34	25	30	1.7	3.7	5.0	2	0.863	0.000	R	30	5.0	273.470	274.085	274.948	274.951	0
2	22102707	86	Low	10.0	Vague	2	22	25	7	1.7	3.7	1.2	22	7	25	1.7	1.2	3.7	2	0.524	0.001	R	25	3.7	275.453	276.256	276.780	276.783	0
2	22102707	87	Low	10.0	Vague	2	22	36	17	1.7	1.9	1.6	36	22	17	1.9	1.7	1.6	2	1.202	0.000	L	36	1.9	277.286	278.018	279.220	279.223	0
2	22102707	88	Low	10.0	Precise	1	36	28	23	1.9	2.0	1.2	36	28	23	1.9	2.0	1.2	1	1.435	0.000	L	36	1.9	279.725	281.337	282.772	282.775	0
2	22102707	89	Low	10.0	Precise	1	28	35	24	2.0	2.1	1.4	35	24	28	2.1	1.4	2.0	3	1.686	0.000	D	24	1.4	283.278	286.270	287.956	287.959	0
2	22102707	90	Low	10.0	Vague	2	22	35	7	1.7	2.1	1.2	7	22	35	1.2	1.7	2.1	1	1.867	0.000	D	22	1.7	288.462	290.290	292.156	292.159	0
2	22102707	91	Low	10.0	Vague	2	22	25	2	1.7	3.7	1.2	2	25	22	1.2	3.7	1.7	2	0.899	0.000	D	25	3.7	292.661	293.209	294.109	294.111	0
2	22102707	92	Low	10.0	Precise	1	36	35	32	1.9	2.1	1.6	32	36	35	1.6	1.9	2.1	1	0.598	0.001	D	36	1.9	294.614	295.431	296.029	296.031	0
2	22102707	93	Low	10.0	Precise	1	35	30	34	2.1	5.0	1.7	35	30	34	2.1	5.0	1.7	2	0.568	0.001	D	30	5.0	296.533	297.981	298.548	298.551	0
2	22102707	94	Low	10.0	Vague	2	28	35	5	2.0	2.1	1.1	28	35	5	2.0	2.1	1.1	2	1.732	0.001	D	35	2.1	299.053	301.073	302.805	302.807	0
2	22102707	95	Low	10.0	Precise	1	25	30	32	3.7	5.0	1.6	30	32	25	5.0	1.6	3.7	2	0.893	0.000	L	30	5.0	303.310	305.600	306.492	306.495	0
2	22102707	96	Low	10.0	Vague	2	25	30	5	3.7	5.0	1.1	30	25	5	5.0	3.7	1.1	2	0.640	0.001	L	30	5.0	306.997	308.517	309.156	309.159	0
2	22102707	97	Low	10.0	Precise	1	22	30	32	1.7	5.0	1.6	30	22	32	5.0	1.7	1.6	2	0.510	0.000	L	30	5.0	309.662	312.007	312.516	312.519	0
2	22102707	98	Low	10.0	Vague	2	28	30	16	2.0	5.0	1.5	28	30	16	2.0	5.0	1.5	2	0.898	0.000	D	30	5.0	313.021	314.331	315.229	315.231	0
2	22102707	99	Low	10.0	Vague	2	36	25	2	1.9	3.7	1.2	36	25	2	1.9	3.7	1.2	2	0.749	0.000	D	25	3.7	315.734	317.239	317.988	317.991	0
2	22102707	100	Low	10.0	Precise	1	36	28	21	1.9	2.0	1.1	21	36	28	1.1	1.9	2.0	1	0.851	0.000	D	36	1.9	318.493	319.433	320.284	320.287	0
2	22102707	101	Low	10.0	Precise	1	28	25	34	2.0	3.7	1.7	34	25	28	1.7	3.7	2.0	2	0.562	0.001	D	25	3.7	320.789	323.058	323.621	323.623	0
2	22102707	102	Low	10.0	Vague	2	35	30	2	2.1	5.0	1.2	2	35	30	1.2	2.1	5.0	2	1.031	0.000	R	30	5.0	324.126	326.013	327.044	327.047	0
2	22102707	103	Low	10.0	Vague	2	36	25	11	1.9	3.7	1.3	36	11	25	1.9	1.3	3.7	2	0.647	0.000	R	25	3.7	327.549	328.413	329.060	329.063	0
2	22102707	104	Low	10.0	Vague	2	28	25	11	2.0	3.7	1.3	11	28	25	1.3	2.0	3.7	2	0.715	0.000	R	25	3.7	329.566	330.289	331.004	331.007	0
2	22102707	105	Low	10.0	Precise	1	25	30	27	3.7	5.0	1.4	27	30	25	1.4	5.0	3.7	1	0.557	0.001	R	25	3.7	331.510	332.799	333.356	333.359	0
2	22102707	106	Low	10.0	Precise	1	36	25	34	1.9	3.7	1.7	34	25	36	1.7	3.7	1.9	2	0.547	0.000	D	25	3.7	333.862	336.042	336.588	336.591	0
2	22102707	107	Low	10.0	Precise	1	22	25	23	1.7	3.7	1.2	25	22	23	3.7	1.7	1.2	2	0.959	0.000	L	25	3.7	337.094	337.750	338.708	338.711	0
2	22102707	108	Low	10.0	Precise	1	36	30	21	1.9	5.0	1.1	30	36	21	5.0	1.9	1.1	2	0.618	0.000	L	30	5.0	339.213	340.434	341.052	341.055	0
2	22102707	109	Low	10.0	Precise	1	36	28	34	1.9	2.0	1.7	34	28	36	1.7	2.0	1.9	1	1.465	0.001	R	36	1.9	341.557	342.356	343.820	343.823	0
2	22102707	110	Low	10.0	Precise	1	22	25	21	1.7	3.7	1.1	22	21	25	1.7	1.1	3.7	2	0.646	0.000	R	25	3.7	344.326	344.846	345.492	345.495	0
2	22102707	111	Low	10.0	Precise	1	28	35	21	2.0	2.1	1.1	21	35	28	1.1	2.1	2.0	2	1.708	0.000	D	35	2.1	345.998	347.792	349.500	349.503	0
2	22102707	112	Low	10.0	Vague	2	28	25	7	2.0	3.7	1.2	25	7	28	3.7	1.2	2.0	2	0.528	0.000	L	25	3.7	350.005	350.820	351.348	351.351	0
2	22102707	113	Low	10.0	Vague	2	22	25	11	1.7	3.7	1.3	22	25	11	1.7	3.7	1.3	2	0.523	0.000	D	25	3.7	351.853	353.746	354.268	354.271	0
2	22102707	114	Low	10.0	Vague	2	28	35	17	2.0	2.1	1.6	28	17	35	2.0	1.6	2.1	2	2.293	0.001	R	35	2.1	354.774	356.015	358.308	358.311	0
2	22102707	115	Low	10.0	Vague	2	36	35	5	1.9	2.1	1.1	36	35	5	1.9	2.1	1.1	1	0.735	0.000	L	36	1.9	358.813	361.598	362.332	362.335	0
2	22102707	116	Low	10.0	Vague	2	28	30	7	2.0	5.0	1.2	28	7	30	2.0	1.2	5.0	2	0.551	0.001	R	30	5.0	362.837	363.501	364.052	364.055	0
2	22102707	117	Low	10.0	Vague	2	35	30	16	2.1	5.0	1.5	35	16	30	2.1	1.5	5.0	2	0.728	0.001	R	30	5.0	364.558	367.477	368.204	368.207	0
2	22102707	118	Low	10.0	Precise	1	22	35	34	1.7	2.1	1.7	22	35	34	1.7	2.1	1.7	2	0.839	0.000	D	35	2.1	368.710	371.021	371.860	371.862	0
2	22102707	119	Low	10.0	Precise	1	28	35	23	2.0	2.1	1.2	28	35	23	2.0	2.1	1.2	1	2.114	0.001	L	28	2.0	372.365	375.283	377.396	377.399	0
2	22102707	120	Low	10.0	Vague	2	36	30	17	1.9	5.0	1.6	30	36	17	5.0	1.9	1.6	2	0.644	0.001	L	30	5.0	377.902	378.480	379.124	379.127	0
2	22102707	121	Low	10.0	Vague	2	35	25	11	2.1	3.7	1.3	35	11	25	2.1	1.3	3.7	2	0.730	0.000	R	25	3.7	392.369	393.866	394.596	394.599	0
2	22102707	122	Low	10.0	Vague	2	36	30	11	1.9	5.0	1.3	11	30	36	1.3	5.0	1.9	2	0.688	0.000	D	30	5.0	395.101	396.468	397.156	397.159	0
2	22102707	123	Low	10.0	Vague	2	36	28	5	1.9	2.0	1.1	5	36	28	1.1	1.9	2.0	1	1.183	0.000	D	36	1.9	397.661	398.669	399.852	399.855	0
2	22102707	124	Low	10.0	Vague	2	35	30	17	2.1	5.0	1.6	30	35	17	5.0	2.1	1.6	2	0.927	0.001	L	30	5.0	400.357	401.534	402.460	402.463	0
2	22102707	125	Low	10.0	Vague	2	25	30	16	3.7	5.0	1.5	16	25	30	1.5	3.7	5.0	1	1.214	0.001	D	25	3.7	402.966	404.103	405.316	405.319	0
2	22102707	126	Low	10.0	Precise	1	28	30	21	2.0	5.0	1.1	28	30	21	2.0	5.0	1.1	2	0.606	0.000	D	30	5.0	405.821	406.758	407.364	407.367	0
2	22102707	127	Low	10.0	Vague	2	28	30	2	2.0	5.0	1.2	30	2	28	5.0	1.2	2.0	2	0.909	0.000	L	30	5.0	407.870	410.103	411.012	411.015	0
2	22102707	128	Low	10.0	Precise	1	22	36	27	1.7	1.9	1.4	36	27	22	1.9	1.4	1.7	2	1.435	0.000	L	36	1.9	411.517	413.009	414.444	414.446	0
2	22102707	129	Low	10.0	Vague	2	36	25	7	1.9	3.7	1.2	36	25	7	1.9	3.7	1.2	1	0.671	0.000	L	36	1.9	414.949	416.045	416.716	416.719	0
2	22102707	130	Low	10.0	Precise	1	28	30	27	2.0	5.0	1.4	30	28	27	5.0	2.0	1.4	2	0.522	0.001	L	30	5.0	417.221	418.562	419.084	419.087	0
2	22102707	131	Low	10.0	Precise	1	36	35	27	1.9	2.1	1.4	36	27	35	1.9	1.4	2.1	1	0.540	0.001	L	36	1.9	419.589	422.528	423.068	423.071	0
2	22102707	132	Low	10.0	Precise	1	36	35	24	1.9	2.1	1.4	35	24	36	2.1	1.4	1.9	1	0.674	0.000	R	36	1.9	423.573	425.578	426.252	426.255	0
2	22102707	133	Low	10.0	Precise	1	22	25	32	1.7	3.7	1.6	32	22	25	1.6	1.7	3.7	2	0.463	0.000	R	25	3.7	426.757	429.406	429.868	429.871	0
2	22102707	134	Low	10.0	Vague	2	22	35	17	1.7	2.1	1.6	17	35	22	1.6	2.1	1.7	1	0.581	0.001	R	22	1.7	430.373	431.831	432.412	432.415	0
2	22102707	135	Low	10.0	Precise	1	22	25	27	1.7	3.7	1.4	25	22	27	3.7	1.7	1.4	2	0.727	0.000	L	25	3.7	432.917	435.197	435.924	435.927	0
2	22102707	136	Low	10.0	Precise	1	35	25	32	2.1	3.7	1.6	32	35	25	1.6	2.1	3.7	2	0.538	0.001	R	25	3.7	436.430	438.146	438.684	438.686	0
2	22102707	137	Low	10.0	Vague	2	22	36	7	1.7	1.9	1.2	22	36	7	1.7	1.9	1.2	2	1.513	0.001	D	36	1.9	439.190	440.707	442.220	442.223	0
2	22102707	138	Low	10.0	Vague	2	22	36	5	1.7	1.9	1.1	36	22	5	1.9	1.7	1.1	2	1.360	0.001	L	36	1.9	442.725	445.501	446.860	446.864	0
2	22102707	139	Low	10.0	Vague	2	25	30	2	3.7	5.0	1.2	2	25	30	1.2	3.7	5.0	2	0.711	0.000	R	30	5.0	447.366	449.045	449.756	449.759	0
2	22102707	140	Low	10.0	Vague	2	28	35	2	2.0	2.1	1.2	35	28	2	2.1	2.0	1.2	1	1.268	0.001	D	28	2.0	450.261	452.784	454.052	454.056	0
2	22102707	141	Low	10.0	Precise	1	36	35	21	1.9	2.1	1.1	21	36	35	1.1	1.9	2.1	1	0.835	0.000	D	36	1.9	454.558	456.385	457.220	457.222	0
2	22102707	142	Low	10.0	Precise	1	22	36	32	1.7	1.9	1.6	22	36	32	1.7	1.9	1.6	2	0.859	0.001	D	36	1.9	457.725	459.697	460.556	460.559	0
2	22102707	143	Low	10.0	Vague	2	22	30	7	1.7	5.0	1.2	7	22	30	1.2	1.7	5.0	1	0.497	0.001	D	22	1.7	461.061	463.451	463.948	463.951	0
2	22102707	144	Low	10.0	Precise	1	28	30	34	2.0	5.0	1.7	34	28	30	1.7	2.0	5.0	2	0.559	0.001	R	30	5.0	464.454	465.221	465.780	465.783	0
2	22102707	145	Low	10.0	Vague	2	28	35	7	2.0	2.1	1.2	7	28	35	1.2	2.0	2.1	1	1.580	0.001	D	28	2.0	466.285	466.953	468.533	468.535	0
2	22102707	146	Low	10.0	Vague	2	22	30	5	1.7	5.0	1.1	5	22	30	1.1	1.7	5.0	2	0.529	0.001	R	30	5.0	469.038	470.507	471.036	471.039	0
2	22102707	147	Low	10.0	Vague	2	36	30	2	1.9	5.0	1.2	2	30	36	1.2	5.0	1.9	2	0.693	0.000	D	30	5.0	471.541	473.560	474.252	474.255	0
2	22102707	148	Low	10.0	Vague	2	22	35	16	1.7	2.1	1.5	22	16	35	1.7	1.5	2.1	1	1.687	0.001	L	22	1.7	474.757	476.598	478.284	478.287	0
2	22102707	149	Low	10.0	Vague	2	36	35	16	1.9	2.1	1.5	36	35	16	1.9	2.1	1.5	1	0.879	0.001	L	36	1.9	478.790	480.909	481.788	481.791	0
2	22102707	150	Low	10.0	Precise	1	36	25	23	1.9	3.7	1.2	36	25	23	1.9	3.7	1.2	2	0.645	0.000	D	25	3.7	482.293	483.471	484.116	484.119	0
2	22102707	151	Low	10.0	Precise	1	22	35	21	1.7	2.1	1.1	21	22	35	1.1	1.7	2.1	1	1.134	0.000	D	22	1.7	484.621	487.598	488.732	488.735	0
2	22102707	152	Low	10.0	Precise	1	36	28	32	1.9	2.0	1.6	36	28	32	1.9	2.0	1.6	1	1.696	0.000	L	36	1.9	489.237	490.620	492.316	492.319	0
2	22102707	153	Low	10.0	Precise	1	35	30	24	2.1	5.0	1.4	30	35	24	5.0	2.1	1.4	2	0.658	0.000	L	30	5.0	492.822	495.473	496.132	496.134	0
2	22102707	154	Low	10.0	Vague	2	22	28	7	1.7	2.0	1.2	22	7	28	1.7	1.2	2.0	1	0.953	0.000	L	22	1.7	496.638	497.467	498.420	498.422	0
2	22102707	155	Low	10.0	Vague	2	35	30	11	2.1	5.0	1.3	30	11	35	5.0	1.3	2.1	2	0.565	0.000	L	30	5.0	498.925	500.183	500.748	500.750	0
2	22102707	156	Low	10.0	Vague	2	22	36	11	1.7	1.9	1.3	11	36	22	1.3	1.9	1.7	2	1.275	0.001	D	36	1.9	501.253	504.033	505.308	505.311	0
2	22102707	157	Low	10.0	Vague	2	22	28	16	1.7	2.0	1.5	16	22	28	1.5	1.7	2.0	1	0.621	0.001	D	22	1.7	505.813	508.327	508.948	508.951	0
2	22102707	158	Low	10.0	Precise	1	22	35	24	1.7	2.1	1.4	35	24	22	2.1	1.4	1.7	3	0.971	0.000	D	24	1.4	509.454	512.265	513.236	513.239	0
2	22102707	159	Low	10.0	Precise	1	22	36	34	1.7	1.9	1.7	34	36	22	1.7	1.9	1.7	2	1.014	0.000	D	36	1.9	513.741	514.350	515.364	515.366	0
2	22102707	160	Low	10.0	Vague	2	36	30	16	1.9	5.0	1.5	30	36	16	5.0	1.9	1.5	1	0.461	0.000	D	36	1.9	515.869	516.631	517.092	517.094	0
2	22102707	161	Low	10.0	Vague	2	36	25	5	1.9	3.7	1.1	25	36	5	3.7	1.9	1.1	2	0.786	0.001	L	25	3.7	517.597	519.115	519.900	519.903	0
2	22102707	162	Low	10.0	Vague	2	35	25	16	2.1	3.7	1.5	25	16	35	3.7	1.5	2.1	2	0.474	0.001	L	25	3.7	520.406	523.090	523.564	523.566	0
2	22102707	163	Low	10.0	Vague	2	25	30	7	3.7	5.0	1.2	7	25	30	1.2	3.7	5.0	2	1.228	0.000	R	30	5.0	524.069	526.968	528.196	528.199	0
2	22102707	164	Low	10.0	Precise	1	22	36	23	1.7	1.9	1.2	23	22	36	1.2	1.7	1.9	1	0.952	0.000	D	22	1.7	528.701	530.516	531.468	531.470	0
2	22102707	165	Low	10.0	Vague	2	22	28	11	1.7	2.0	1.3	22	28	11	1.7	2.0	1.3	3	1.264	0.001	R	11	1.3	531.973	534.132	535.396	535.399	0
2	22102707	166	Low	10.0	Vague	2	35	30	7	2.1	5.0	1.2	30	35	7	5.0	2.1	1.2	2	0.748	0.001	L	30	5.0	535.901	538.368	539.116	539.118	0
2	22102707	167	Low	10.0	Vague	2	36	28	16	1.9	2.0	1.5	16	36	28	1.5	1.9	2.0	1	0.927	0.001	D	36	1.9	539.621	541.453	542.380	542.383	0
2	22102707	168	Low	10.0	Vague	2	28	30	17	2.0	5.0	1.6	28	30	17	2.0	5.0	1.6	2	0.587	0.000	D	30	5.0	542.885	544.361	544.948	544.951	0
2	22102707	169	Low	10.0	Vague	2	28	25	17	2.0	3.7	1.6	17	28	25	1.6	2.0	3.7	2	0.548	0.001	R	25	3.7	545.454	547.601	548.148	548.151	0
2	22102707	170	Low	10.0	Vague	2	35	25	2	2.1	3.7	1.2	35	25	2	2.1	3.7	1.2	2	0.601	0.000	D	25	3.7	548.654	551.131	551.732	551.735	0
2	22102707	171	Low	10.0	Vague	2	36	28	17	1.9	2.0	1.6	36	17	28	1.9	1.6	2.0	1	0.990	0.000	L	36	1.9	552.237	554.782	555.772	555.774	0
2	22102707	172	Low	10.0	Precise	1	22	30	21	1.7	5.0	1.1	22	30	21	1.7	5.0	1.1	2	0.629	0.001	D	30	5.0	556.278	558.823	559.452	559.455	0
2	22102707	173	Low	10.0	Vague	2	36	35	17	1.9	2.1	1.6	35	17	36	2.1	1.6	1.9	1	1.240	0.000	R	36	1.9	559.957	560.596	561.836	561.838	0
2	22102707	174	Low	10.0	Vague	2	22	30	2	1.7	5.0	1.2	30	22	2	5.0	1.7	1.2	2	0.552	0.001	L	30	5.0	562.341	565.100	565.652	565.654	0
2	22102707	175	Low	10.0	Precise	1	22	35	32	1.7	2.1	1.6	22	32	35	1.7	1.6	2.1	1	2.020	0.001	L	22	1.7	566.158	568.264	570.284	570.287	0
2	22102707	176	Low	10.0	Vague	2	36	25	17	1.9	3.7	1.6	17	25	36	1.6	3.7	1.9	2	0.750	0.001	D	25	3.7	570.789	571.718	572.468	572.471	0
2	22102707	177	Low	10.0	Vague	2	22	30	11	1.7	5.0	1.3	22	11	30	1.7	1.3	5.0	2	0.571	0.001	R	30	5.0	572.973	575.377	575.948	575.951	0
2	22102707	178	Low	10.0	Vague	2	22	25	5	1.7	3.7	1.1	22	5	25	1.7	1.1	3.7	2	0.482	0.001	R	25	3.7	576.454	578.666	579.148	579.150	0
2	22102707	179	Low	10.0	Precise	1	22	28	24	1.7	2.0	1.4	24	28	22	1.4	2.0	1.7	1	0.597	0.001	R	22	1.7	579.653	581.591	582.188	582.190	0
2	22102707	180	Low	10.0	Vague	2	35	25	7	2.1	3.7	1.2	35	25	7	2.1	3.7	1.2	2	0.913	0.000	D	25	3.7	582.693	584.779	585.692	585.694	0
2	22102707	181	High	1.5	Precise	1	22	35	26	1.7	2.1	1.1	35	22	26	2.1	1.7	1.1	1	1.001	0.000	D	22	1.7	603.169	606.083	607.084	607.086	0
2	22102707	182	High	1.5	Vague	2	36	28	3	1.9	2.0	1.1	3	36	28	1.1	1.9	2.0	NaN	NaN	NaN	NaN	NaN	NaN	607.589	609.236	NaN	610.727	1
2	22102707	183	High	1.5	Vague	2	28	25	6	2.0	3.7	1.4	28	25	6	2.0	3.7	1.4	2	0.607	0.000	D	25	3.7	612.731	613.269	613.876	613.880	0
2	22102707	184	High	1.5	Vague	2	25	30	9	3.7	5.0	1.6	9	30	25	1.6	5.0	3.7	1	0.526	0.001	R	25	3.7	614.383	616.038	616.564	616.567	0
2	22102707	185	High	1.5	Vague	2	28	25	3	2.0	3.7	1.1	25	28	3	3.7	2.0	1.1	2	0.626	0.000	L	25	3.7	617.070	618.395	619.020	619.023	0
2	22102707	186	High	1.5	Vague	2	22	25	3	1.7	3.7	1.1	22	3	25	1.7	1.1	3.7	2	0.454	0.001	R	25	3.7	619.525	621.638	622.092	622.095	0
2	22102707	187	High	1.5	Precise	1	22	25	20	1.7	3.7	1.5	22	25	20	1.7	3.7	1.5	2	0.651	0.001	D	25	3.7	622.599	624.482	625.132	625.134	0
2	22102707	188	High	1.5	Precise	1	22	25	31	1.7	3.7	1.4	22	31	25	1.7	1.4	3.7	2	0.472	0.001	R	25	3.7	625.637	627.429	627.900	627.902	0
2	22102707	189	High	1.5	Precise	1	22	36	20	1.7	1.9	1.5	36	22	20	1.9	1.7	1.5	3	0.549	0.000	R	20	1.5	628.405	629.007	629.556	629.558	0
2	22102707	190	High	1.5	Precise	1	22	30	31	1.7	5.0	1.4	31	22	30	1.4	1.7	5.0	2	0.710	0.001	R	30	5.0	630.061	630.710	631.420	631.422	0
2	22102707	191	High	1.5	Vague	2	22	25	1	1.7	3.7	1.2	25	22	1	3.7	1.7	1.2	2	0.535	0.001	L	25	3.7	631.925	634.301	634.836	634.838	0
2	22102707	192	High	1.5	Precise	1	36	30	33	1.9	5.0	1.7	36	33	30	1.9	1.7	5.0	2	0.573	0.000	R	30	5.0	635.342	637.334	637.908	637.910	0
2	22102707	193	High	1.5	Vague	2	35	25	6	2.1	3.7	1.4	6	35	25	1.4	2.1	3.7	2	0.648	0.000	R	25	3.7	638.413	638.964	639.612	639.614	0
2	22102707	194	High	1.5	Precise	1	22	35	33	1.7	2.1	1.7	35	33	22	2.1	1.7	1.7	1	0.649	0.001	R	22	1.7	640.117	642.411	643.060	643.062	0
2	22102707	195	High	1.5	Precise	1	22	30	29	1.7	5.0	1.2	30	22	29	5.0	1.7	1.2	2	0.559	0.001	L	30	5.0	643.565	646.445	647.004	647.006	0
2	22102707	196	High	1.5	Precise	1	28	25	26	2.0	3.7	1.1	25	28	26	3.7	2.0	1.1	2	0.551	0.001	L	25	3.7	647.509	648.981	649.532	649.534	0
2	22102707	197	High	1.5	Precise	1	35	25	33	2.1	3.7	1.7	33	25	35	1.7	3.7	2.1	2	0.601	0.000	D	25	3.7	650.037	652.219	652.820	652.822	0
2	22102707	198	High	1.5	Vague	2	22	30	3	1.7	5.0	1.1	3	30	22	1.1	5.0	1.7	2	0.632	0.001	D	30	5.0	653.325	656.068	656.700	656.703	0
2	22102707	199	High	1.5	Precise	1	22	35	29	1.7	2.1	1.2	35	29	22	2.1	1.2	1.7	1	0.829	0.000	R	22	1.7	657.206	660.167	660.996	660.998	0
2	22102707	200	High	1.5	Vague	2	22	28	1	1.7	2.0	1.2	22	1	28	1.7	1.2	2.0	1	0.890	0.001	L	22	1.7	661.501	664.194	665.084	665.087	0
2	22102707	201	High	1.5	Precise	1	28	30	33	2.0	5.0	1.7	28	33	30	2.0	1.7	5.0	2	0.519	0.001	R	30	5.0	665.589	666.773	667.292	667.294	0
2	22102707	202	High	1.5	Vague	2	22	35	18	1.7	2.1	1.2	35	22	18	2.1	1.7	1.2	1	0.674	0.000	D	22	1.7	667.797	668.714	669.388	669.390	0
2	22102707	203	High	1.5	Precise	1	22	36	33	1.7	1.9	1.7	33	36	22	1.7	1.9	1.7	1	0.677	0.001	R	22	1.7	669.893	672.607	673.284	673.287	0
2	22102707	204	High	1.5	Vague	2	36	30	9	1.9	5.0	1.6	9	30	36	1.6	5.0	1.9	2	0.468	0.001	D	30	5.0	673.790	675.416	675.884	675.886	0
2	22102707	205	High	1.5	Precise	1	25	30	19	3.7	5.0	1.1	25	30	19	3.7	5.0	1.1	2	0.527	0.000	D	30	5.0	676.389	677.853	678.380	678.382	0
2	22102707	206	High	1.5	Precise	1	35	30	31	2.1	5.0	1.4	30	31	35	5.0	1.4	2.1	2	0.463	0.000	L	30	5.0	678.885	681.829	682.292	682.294	0
2	22102707	207	High	1.5	Vague	2	28	25	18	2.0	3.7	1.2	28	18	25	2.0	1.2	3.7	2	0.599	0.000	R	25	3.7	682.797	684.837	685.436	685.438	0
2	22102707	208	High	1.5	Vague	2	28	25	1	2.0	3.7	1.2	28	1	25	2.0	1.2	3.7	2	0.460	0.000	R	25	3.7	685.941	688.616	689.076	689.078	0
2	22102707	209	High	1.5	Precise	1	22	35	20	1.7	2.1	1.5	22	20	35	1.7	1.5	2.1	1	0.846	0.000	L	22	1.7	689.581	690.693	691.540	691.542	0
2	22102707	210	High	1.5	Precise	1	36	25	19	1.9	3.7	1.1	19	36	25	1.1	1.9	3.7	2	0.422	0.000	R	25	3.7	692.045	694.861	695.284	695.286	0
2	22102707	211	High	1.5	Precise	1	22	25	26	1.7	3.7	1.1	22	25	26	1.7	3.7	1.1	1	0.613	0.000	L	22	1.7	695.789	696.959	697.572	697.574	0
2	22102707	212	High	1.5	Precise	1	36	25	29	1.9	3.7	1.2	25	36	29	3.7	1.9	1.2	2	0.602	0.001	L	25	3.7	698.077	699.169	699.772	699.774	0
2	22102707	213	High	1.5	Precise	1	22	36	31	1.7	1.9	1.4	36	22	31	1.9	1.7	1.4	1	0.547	0.000	D	22	1.7	700.277	702.441	702.988	702.990	0
2	22102707	214	High	1.5	Precise	1	36	30	31	1.9	5.0	1.4	31	30	36	1.4	5.0	1.9	2	0.591	0.000	D	30	5.0	703.493	706.085	706.676	706.678	0
2	22102707	215	High	1.5	Vague	2	28	35	9	2.0	2.1	1.6	9	35	28	1.6	2.1	2.0	2	0.897	0.000	D	35	2.1	707.181	709.355	710.252	710.255	0
2	22102707	216	High	1.5	Precise	1	35	30	29	2.1	5.0	1.2	35	29	30	2.1	1.2	5.0	2	0.561	0.001	R	30	5.0	710.757	711.699	712.260	712.262	0
2	22102707	217	High	1.5	Vague	2	36	30	3	1.9	5.0	1.1	30	3	36	5.0	1.1	1.9	2	0.557	0.001	L	30	5.0	712.765	713.767	714.324	714.326	0
2	22102707	218	High	1.5	Precise	1	22	36	29	1.7	1.9	1.2	29	22	36	1.2	1.7	1.9	2	0.576	0.001	R	36	1.9	714.829	715.668	716.244	716.246	0
2	22102707	219	High	1.5	Precise	1	35	25	20	2.1	3.7	1.5	35	20	25	2.1	1.5	3.7	2	0.459	0.001	R	25	3.7	716.748	717.777	718.236	718.238	0
2	22102707	220	High	1.5	Precise	1	22	36	26	1.7	1.9	1.1	36	26	22	1.9	1.1	1.7	1	0.586	0.001	R	22	1.7	718.741	721.682	722.268	722.270	0
2	22102707	221	High	1.5	Precise	1	28	30	26	2.0	5.0	1.1	28	26	30	2.0	1.1	5.0	2	0.563	0.001	R	30	5.0	722.773	725.369	725.932	725.934	0
2	22102707	222	High	1.5	Vague	2	36	35	13	1.9	2.1	1.2	13	36	35	1.2	1.9	2.1	1	0.757	0.000	D	36	1.9	726.437	729.167	729.924	729.926	0
2	22102707	223	High	1.5	Vague	2	25	30	6	3.7	5.0	1.4	6	30	25	1.4	5.0	3.7	1	0.519	0.000	R	25	3.7	730.429	733.317	733.836	733.838	0
2	22102707	224	High	1.5	Precise	1	36	30	20	1.9	5.0	1.5	20	30	36	1.5	5.0	1.9	2	0.557	0.000	D	30	5.0	734.341	737.263	737.820	737.822	0
2	22102707	225	High	1.5	Vague	2	36	35	6	1.9	2.1	1.4	35	6	36	2.1	1.4	1.9	1	0.809	0.000	R	36	1.9	738.325	738.939	739.748	739.750	0
2	22102707	226	High	1.5	Precise	1	35	30	19	2.1	5.0	1.1	19	30	35	1.1	5.0	2.1	2	0.704	0.001	D	30	5.0	740.253	742.940	743.644	743.647	0
2	22102707	227	High	1.5	Precise	1	36	28	31	1.9	2.0	1.4	28	31	36	2.0	1.4	1.9	3	0.469	0.000	D	31	1.4	744.150	745.591	746.060	746.062	0
2	22102707	228	High	1.5	Precise	1	28	30	29	2.0	5.0	1.2	30	29	28	5.0	1.2	2.0	2	0.619	0.000	L	30	5.0	746.565	748.953	749.572	749.574	0
2	22102707	229	High	1.5	Precise	1	35	25	26	2.1	3.7	1.1	25	26	35	3.7	1.1	2.1	2	0.515	0.000	L	25	3.7	750.078	752.497	753.012	753.014	0
2	22102707	230	High	1.5	Vague	2	36	25	13	1.9	3.7	1.2	25	13	36	3.7	1.2	1.9	2	0.392	0.000	L	25	3.7	753.517	755.372	755.764	755.766	0
2	22102707	231	High	1.5	Precise	1	36	35	31	1.9	2.1	1.4	35	36	31	2.1	1.9	1.4	1	0.892	0.000	D	36	1.9	756.269	759.136	760.028	760.030	0
2	22102707	232	High	1.5	Vague	2	35	25	9	2.1	3.7	1.6	35	9	25	2.1	1.6	3.7	2	0.501	0.000	R	25	3.7	760.533	761.911	762.412	762.414	0
2	22102707	233	High	1.5	Precise	1	22	28	20	1.7	2.0	1.5	20	22	28	1.5	1.7	2.0	3	0.651	0.001	L	20	1.5	762.917	765.497	766.148	766.151	0
2	22102707	234	High	1.5	Vague	2	35	30	13	2.1	5.0	1.2	30	13	35	5.0	1.2	2.1	2	0.610	0.000	L	30	5.0	766.654	769.506	770.115	770.118	0
2	22102707	235	High	1.5	Vague	2	28	30	13	2.0	5.0	1.2	28	30	13	2.0	5.0	1.2	2	0.498	0.000	D	30	5.0	770.621	771.553	772.052	772.055	0
2	22102707	236	High	1.5	Vague	2	22	36	3	1.7	1.9	1.1	22	3	36	1.7	1.1	1.9	1	0.853	0.001	L	22	1.7	772.558	773.679	774.532	774.534	0
2	22102707	237	High	1.5	Precise	1	22	28	19	1.7	2.0	1.1	28	22	19	2.0	1.7	1.1	1	0.713	0.000	D	22	1.7	775.037	776.507	777.220	777.223	0
2	22102707	238	High	1.5	Vague	2	28	35	1	2.0	2.1	1.2	35	28	1	2.1	2.0	1.2	1	0.837	0.001	D	28	2.0	777.725	779.151	779.988	779.990	0
2	22102707	239	High	1.5	Precise	1	36	35	33	1.9	2.1	1.7	36	33	35	1.9	1.7	2.1	1	0.664	0.000	L	36	1.9	780.493	781.203	781.868	781.870	0
2	22102707	240	High	1.5	Vague	2	36	28	18	1.9	2.0	1.2	28	36	18	2.0	1.9	1.2	1	0.604	0.000	D	36	1.9	782.373	783.488	784.092	784.094	0
2	22102707	241	High	1.5	Vague	2	36	25	3	1.9	3.7	1.1	36	3	25	1.9	1.1	3.7	2	0.546	0.000	R	25	3.7	795.598	797.114	797.660	797.662	0
2	22102707	242	High	1.5	Vague	2	22	30	9	1.7	5.0	1.6	22	30	9	1.7	5.0	1.6	2	0.587	0.000	D	30	5.0	798.165	800.857	801.444	801.446	0
2	22102707	243	High	1.5	Vague	2	36	35	18	1.9	2.1	1.2	35	18	36	2.1	1.2	1.9	1	0.737	0.001	R	36	1.9	801.949	804.859	805.596	805.598	0
2	22102707	244	High	1.5	Precise	1	36	35	29	1.9	2.1	1.2	29	35	36	1.2	2.1	1.9	1	0.743	0.001	R	36	1.9	806.101	806.950	807.692	807.695	0
2	22102707	245	High	1.5	Vague	2	22	28	13	1.7	2.0	1.2	28	22	13	2.0	1.7	1.2	1	0.566	0.000	D	22	1.7	808.198	810.750	811.316	811.318	0
2	22102707	246	High	1.5	Vague	2	25	30	3	3.7	5.0	1.1	30	3	25	5.0	1.1	3.7	1	0.403	0.001	R	25	3.7	811.821	813.849	814.252	814.254	0
2	22102707	247	High	1.5	Precise	1	22	30	20	1.7	5.0	1.5	20	30	22	1.5	5.0	1.7	2	0.562	0.000	D	30	5.0	814.757	815.954	816.516	816.518	0
2	22102707	248	High	1.5	Precise	1	28	35	19	2.0	2.1	1.1	35	28	19	2.1	2.0	1.1	2	0.895	0.000	L	35	2.1	817.021	819.620	820.516	820.518	0
2	22102707	249	High	1.5	Precise	1	36	30	29	1.9	5.0	1.2	30	36	29	5.0	1.9	1.2	2	0.599	0.000	L	30	5.0	821.020	822.245	822.844	822.846	0
2	22102707	250	High	1.5	Vague	2	28	30	3	2.0	5.0	1.1	30	3	28	5.0	1.1	2.0	2	0.526	0.000	L	30	5.0	823.349	825.222	825.748	825.750	0
2	22102707	251	High	1.5	Vague	2	22	30	13	1.7	5.0	1.2	13	30	22	1.2	5.0	1.7	2	0.459	0.001	D	30	5.0	826.253	827.753	828.212	828.214	0
2	22102707	252	High	1.5	Precise	1	22	35	31	1.7	2.1	1.4	31	22	35	1.4	1.7	2.1	1	0.622	0.000	D	22	1.7	828.717	829.542	830.164	830.167	0
2	22102707	253	High	1.5	Vague	2	22	36	1	1.7	1.9	1.2	22	1	36	1.7	1.2	1.9	1	0.660	0.000	L	22	1.7	830.669	832.495	833.156	833.158	0
2	22102707	254	High	1.5	Precise	1	35	30	20	2.1	5.0	1.5	30	20	35	5.0	1.5	2.1	2	0.513	0.001	L	30	5.0	833.661	835.707	836.220	836.222	0
2	22102707	255	High	1.5	Precise	1	22	28	29	1.7	2.0	1.2	29	22	28	1.2	1.7	2.0	1	0.732	0.000	D	22	1.7	836.725	838.856	839.588	839.590	0
2	22102707	256	High	1.5	Vague	2	36	28	1	1.9	2.0	1.2	36	28	1	1.9	2.0	1.2	1	0.725	0.001	L	36	1.9	840.094	840.959	841.684	841.686	0
2	22102707	257	High	1.5	Vague	2	35	30	3	2.1	5.0	1.1	30	35	3	5.0	2.1	1.1	2	0.510	0.000	L	30	5.0	842.189	843.965	844.476	844.478	0
2	22102707	258	High	1.5	Vague	2	36	30	18	1.9	5.0	1.2	30	18	36	5.0	1.2	1.9	2	0.393	0.000	L	30	5.0	844.981	847.699	848.091	848.094	0
2	22102707	259	High	1.5	Precise	1	28	25	29	2.0	3.7	1.2	29	25	28	1.2	3.7	2.0	2	0.582	0.001	D	25	3.7	848.597	849.166	849.748	849.750	0
2	22102707	260	High	1.5	Precise	1	35	25	19	2.1	3.7	1.1	25	19	35	3.7	1.1	2.1	2	0.402	0.000	L	25	3.7	850.253	853.097	853.500	853.502	0
2	22102707	261	High	1.5	Vague	2	35	25	3	2.1	3.7	1.1	25	3	35	3.7	1.1	2.1	2	0.376	0.000	L	25	3.7	854.005	856.571	856.947	856.950	0
2	22102707	262	High	1.5	Vague	2	22	28	3	1.7	2.0	1.1	28	3	22	2.0	1.1	1.7	1	0.727	0.000	R	22	1.7	857.453	859.124	859.852	859.854	0
2	22102707	263	High	1.5	Vague	2	22	25	18	1.7	3.7	1.2	25	22	18	3.7	1.7	1.2	2	0.459	0.001	L	25	3.7	860.356	861.073	861.532	861.534	0
2	22102707	264	High	1.5	Precise	1	25	30	26	3.7	5.0	1.1	30	26	25	5.0	1.1	3.7	1	0.435	0.001	R	25	3.7	862.037	864.217	864.652	864.654	0
2	22102707	265	High	1.5	Precise	1	28	35	29	2.0	2.1	1.2	35	29	28	2.1	1.2	2.0	3	0.711	0.001	D	29	1.2	865.156	865.989	866.700	866.702	0
2	22102707	266	High	1.5	Vague	2	36	28	6	1.9	2.0	1.4	28	6	36	2.0	1.4	1.9	1	0.895	0.000	R	36	1.9	867.205	868.524	869.420	869.422	0
2	22102707	267	High	1.5	Vague	2	28	30	1	2.0	5.0	1.2	30	1	28	5.0	1.2	2.0	2	0.497	0.001	L	30	5.0	869.924	872.531	873.028	873.030	0
2	22102707	268	High	1.5	Precise	1	28	35	26	2.0	2.1	1.1	35	28	26	2.1	2.0	1.1	1	1.139	0.001	D	28	2.0	873.533	876.113	877.252	877.254	0
2	22102707	269	High	1.5	Precise	1	25	30	33	3.7	5.0	1.7	30	25	33	5.0	3.7	1.7	2	0.466	0.000	L	30	5.0	877.757	878.538	879.004	879.006	0
2	22102707	270	High	1.5	Vague	2	22	25	9	1.7	3.7	1.6	9	25	22	1.6	3.7	1.7	2	0.382	0.000	D	25	3.7	879.509	880.742	881.124	881.126	0
2	22102707	271	High	1.5	Precise	1	36	35	19	1.9	2.1	1.1	36	19	35	1.9	1.1	2.1	1	0.838	0.001	L	36	1.9	881.629	883.918	884.756	884.758	0
2	22102707	272	High	1.5	Vague	2	28	35	18	2.0	2.1	1.2	18	35	28	1.2	2.1	2.0	2	1.186	0.000	D	35	2.1	885.261	886.826	888.012	888.014	0
2	22102707	273	High	1.5	Vague	2	28	30	9	2.0	5.0	1.6	9	28	30	1.6	2.0	5.0	2	0.616	0.001	R	30	5.0	888.516	891.291	891.908	891.910	0
2	22102707	274	High	1.5	Vague	2	22	30	18	1.7	5.0	1.2	30	22	18	5.0	1.7	1.2	2	0.476	0.000	L	30	5.0	892.413	892.920	893.395	893.398	0
2	22102707	275	High	1.5	Vague	2	22	28	9	1.7	2.0	1.6	22	28	9	1.7	2.0	1.6	3	0.954	0.000	R	9	1.6	893.901	895.218	896.172	896.174	0
2	22102707	276	High	1.5	Precise	1	22	30	26	1.7	5.0	1.1	26	30	22	1.1	5.0	1.7	2	0.621	0.000	D	30	5.0	896.676	897.798	898.419	898.422	0
2	22102707	277	High	1.5	Vague	2	35	30	1	2.1	5.0	1.2	1	30	35	1.2	5.0	2.1	2	0.461	0.000	D	30	5.0	898.924	900.991	901.452	901.454	0
2	22102707	278	High	1.5	Vague	2	35	30	6	2.1	5.0	1.4	35	6	30	2.1	1.4	5.0	3	0.441	0.000	D	6	1.4	901.956	902.451	902.892	902.894	0
2	22102707	279	High	1.5	Vague	2	28	25	13	2.0	3.7	1.2	13	25	28	1.2	3.7	2.0	2	0.681	0.001	D	25	3.7	903.397	904.539	905.220	905.222	0
2	22102707	280	High	1.5	Vague	2	35	25	1	2.1	3.7	1.2	1	25	35	1.2	3.7	2.1	2	0.549	0.001	D	25	3.7	905.725	906.799	907.348	907.350	0
2	22102707	281	High	1.5	Precise	1	36	25	31	1.9	3.7	1.4	25	36	31	3.7	1.9	1.4	2	0.798	0.000	L	25	3.7	907.852	909.621	910.419	910.422	0
2	22102707	282	High	1.5	Precise	1	28	35	31	2.0	2.1	1.4	35	31	28	2.1	1.4	2.0	3	1.313	0.000	D	31	1.4	910.926	913.859	915.171	915.174	0
2	22102707	283	High	1.5	Precise	1	25	30	29	3.7	5.0	1.2	29	30	25	1.2	5.0	3.7	2	0.808	0.000	D	30	5.0	915.677	917.948	918.756	918.758	0
2	22102707	284	High	1.5	Precise	1	36	28	20	1.9	2.0	1.5	28	20	36	2.0	1.5	1.9	1	0.734	0.000	R	36	1.9	919.261	920.838	921.572	921.574	0
2	22102707	285	High	1.5	Precise	1	35	30	26	2.1	5.0	1.1	26	30	35	1.1	5.0	2.1	2	0.637	0.001	D	30	5.0	922.076	923.855	924.492	924.494	0
2	22102707	286	High	1.5	Vague	2	36	35	9	1.9	2.1	1.6	36	9	35	1.9	1.6	2.1	1	0.882	0.000	L	36	1.9	924.997	927.858	928.740	928.742	0
2	22102707	287	High	1.5	Vague	2	22	25	6	1.7	3.7	1.4	6	22	25	1.4	1.7	3.7	2	0.664	0.000	R	25	3.7	929.245	930.419	931.084	931.086	0
2	22102707	288	High	1.5	Vague	2	22	28	18	1.7	2.0	1.2	22	28	18	1.7	2.0	1.2	1	0.897	0.001	L	22	1.7	931.589	933.731	934.628	934.631	0
2	22102707	289	High	1.5	Vague	2	28	30	6	2.0	5.0	1.4	30	28	6	5.0	2.0	1.4	2	0.700	0.000	L	30	5.0	935.134	935.903	936.604	936.606	0
2	22102707	290	High	1.5	Vague	2	22	36	18	1.7	1.9	1.2	36	18	22	1.9	1.2	1.7	2	0.707	0.001	L	36	1.9	937.108	939.105	939.812	939.814	0
2	22102707	291	High	1.5	Vague	2	35	25	13	2.1	3.7	1.2	35	25	13	2.1	3.7	1.2	2	0.713	0.000	D	25	3.7	940.317	943.171	943.883	943.886	0
2	22102707	292	High	1.5	Precise	1	28	25	31	2.0	3.7	1.4	31	28	25	1.4	2.0	3.7	2	0.581	0.000	R	25	3.7	944.388	945.014	945.595	945.598	0
2	22102707	293	High	1.5	Vague	2	22	36	13	1.7	1.9	1.2	36	22	13	1.9	1.7	1.2	2	0.673	0.001	L	36	1.9	946.100	946.746	947.420	947.422	0
2	22102707	294	High	1.5	Precise	1	25	30	20	3.7	5.0	1.5	30	25	20	5.0	3.7	1.5	2	0.548	0.000	L	30	5.0	947.925	948.864	949.412	949.414	0
2	22102707	295	High	1.5	Precise	1	35	25	31	2.1	3.7	1.4	31	35	25	1.4	2.1	3.7	2	0.716	0.001	R	25	3.7	949.917	952.880	953.596	953.598	0
2	22102707	296	High	1.5	Precise	1	36	28	19	1.9	2.0	1.1	28	19	36	2.0	1.1	1.9	1	0.794	0.001	R	36	1.9	954.101	955.681	956.476	956.478	0
2	22102707	297	High	1.5	Vague	2	22	36	9	1.7	1.9	1.6	36	22	9	1.9	1.7	1.6	2	0.737	0.000	L	36	1.9	956.981	958.243	958.980	958.982	0
2	22102707	298	High	1.5	Vague	2	25	30	13	3.7	5.0	1.2	13	25	30	1.2	3.7	5.0	2	0.536	0.000	R	30	5.0	959.485	960.291	960.827	960.830	0
2	22102707	299	High	1.5	Precise	1	36	28	26	1.9	2.0	1.1	28	36	26	2.0	1.9	1.1	3	0.874	0.001	R	26	1.1	961.332	962.257	963.132	963.134	0
2	22102707	300	High	1.5	Vague	2	28	25	9	2.0	3.7	1.6	28	9	25	2.0	1.6	3.7	2	0.574	0.001	R	25	3.7	963.637	965.566	966.140	966.142	0
2	22102707	301	High	1.5	Precise	1	35	30	33	2.1	5.0	1.7	30	33	35	5.0	1.7	2.1	2	0.541	0.001	L	30	5.0	976.125	976.783	977.324	977.326	0
2	22102707	302	High	1.5	Precise	1	22	28	26	1.7	2.0	1.1	22	28	26	1.7	2.0	1.1	1	0.712	0.000	L	22	1.7	977.829	979.868	980.580	980.582	0
2	22102707	303	High	1.5	Vague	2	36	25	9	1.9	3.7	1.6	36	9	25	1.9	1.6	3.7	1	0.632	0.000	L	36	1.9	981.085	982.540	983.172	983.174	0
2	22102707	304	High	1.5	Vague	2	22	25	13	1.7	3.7	1.2	22	25	13	1.7	3.7	1.2	1	0.618	0.001	L	22	1.7	983.677	986.282	986.900	986.902	0
2	22102707	305	High	1.5	Precise	1	36	28	29	1.9	2.0	1.2	29	28	36	1.2	2.0	1.9	1	0.693	0.000	R	36	1.9	987.405	988.022	988.716	988.718	0
2	22102707	306	High	1.5	Vague	2	36	30	6	1.9	5.0	1.4	36	30	6	1.9	5.0	1.4	2	0.662	0.000	D	30	5.0	989.221	991.853	992.516	992.518	0
2	22102707	307	High	1.5	Precise	1	36	35	26	1.9	2.1	1.1	26	36	35	1.1	1.9	2.1	1	0.638	0.000	D	36	1.9	993.020	994.997	995.635	995.638	0
2	22102707	308	High	1.5	Vague	2	22	30	1	1.7	5.0	1.2	30	1	22	5.0	1.2	1.7	2	0.580	0.001	L	30	5.0	996.141	998.607	999.188	999.190	0
2	22102707	309	High	1.5	Precise	1	28	25	20	2.0	3.7	1.5	20	25	28	1.5	3.7	2.0	2	0.619	0.001	D	25	3.7	999.693	1001.689	1002.308	1002.310	0
2	22102707	310	High	1.5	Vague	2	36	35	3	1.9	2.1	1.1	3	35	36	1.1	2.1	1.9	1	0.941	0.000	R	36	1.9	1002.812	1005.703	1006.643	1006.646	0
2	22102707	311	High	1.5	Precise	1	36	25	33	1.9	3.7	1.7	36	33	25	1.9	1.7	3.7	2	0.562	0.001	R	25	3.7	1007.148	1009.801	1010.364	1010.366	0
2	22102707	312	High	1.5	Precise	1	22	25	33	1.7	3.7	1.7	33	25	22	1.7	3.7	1.7	2	0.538	0.001	D	25	3.7	1010.869	1011.826	1012.364	1012.366	0
2	22102707	313	High	1.5	Vague	2	28	30	18	2.0	5.0	1.2	18	28	30	1.2	2.0	5.0	2	0.458	0.000	R	30	5.0	1012.869	1013.658	1014.116	1014.118	0
2	22102707	314	High	1.5	Precise	1	36	25	20	1.9	3.7	1.5	20	36	25	1.5	1.9	3.7	2	0.601	0.000	R	25	3.7	1014.621	1015.162	1015.764	1015.766	0
2	22102707	315	High	1.5	Vague	2	28	35	6	2.0	2.1	1.4	6	35	28	1.4	2.1	2.0	3	0.615	0.000	L	6	1.4	1016.268	1019.117	1019.731	1019.734	0
2	22102707	316	High	1.5	Vague	2	36	28	13	1.9	2.0	1.2	28	13	36	2.0	1.2	1.9	1	0.627	0.001	R	36	1.9	1020.236	1021.385	1022.012	1022.014	0
2	22102707	317	High	1.5	Vague	2	22	35	1	1.7	2.1	1.2	22	35	1	1.7	2.1	1.2	1	0.715	0.001	L	22	1.7	1022.517	1023.577	1024.292	1024.294	0
2	22102707	318	High	1.5	Vague	2	36	30	13	1.9	5.0	1.2	36	30	13	1.9	5.0	1.2	2	0.566	0.000	D	30	5.0	1024.797	1025.854	1026.420	1026.422	0
2	22102707	319	High	1.5	Vague	2	22	36	6	1.7	1.9	1.4	6	36	22	1.4	1.9	1.7	1	0.912	0.000	R	22	1.7	1026.924	1029.003	1029.915	1029.918	0
2	22102707	320	High	1.5	Vague	2	22	35	3	1.7	2.1	1.1	22	3	35	1.7	1.1	2.1	1	0.746	0.000	L	22	1.7	1030.421	1033.162	1033.908	1033.910	0
2	22102707	321	High	1.5	Vague	2	36	25	6	1.9	3.7	1.4	25	6	36	3.7	1.4	1.9	2	0.931	0.001	L	25	3.7	1034.413	1036.625	1037.556	1037.558	0
2	22102707	322	High	1.5	Precise	1	28	25	33	2.0	3.7	1.7	33	25	28	1.7	3.7	2.0	2	0.746	0.001	D	25	3.7	1038.060	1040.929	1041.676	1041.678	0
2	22102707	323	High	1.5	Vague	2	25	30	18	3.7	5.0	1.2	18	30	25	1.2	5.0	3.7	1	0.706	0.000	R	25	3.7	1042.181	1045.082	1045.788	1045.790	0
2	22102707	324	High	1.5	Precise	1	28	30	31	2.0	5.0	1.4	28	30	31	2.0	5.0	1.4	2	0.433	0.001	D	30	5.0	1046.293	1049.202	1049.636	1049.638	0
2	22102707	325	High	1.5	Precise	1	36	30	26	1.9	5.0	1.1	30	26	36	5.0	1.1	1.9	2	0.490	0.000	L	30	5.0	1050.141	1052.969	1053.459	1053.462	0
2	22102707	326	High	1.5	Precise	1	25	30	31	3.7	5.0	1.4	31	25	30	1.4	3.7	5.0	2	0.631	0.000	R	30	5.0	1053.965	1056.309	1056.940	1056.942	0
2	22102707	327	High	1.5	Vague	2	22	35	13	1.7	2.1	1.2	22	35	13	1.7	2.1	1.2	1	0.656	0.001	L	22	1.7	1057.445	1060.332	1060.988	1060.990	0
2	22102707	328	High	1.5	Precise	1	28	30	20	2.0	5.0	1.5	28	20	30	2.0	1.5	5.0	2	0.599	0.000	R	30	5.0	1061.493	1062.692	1063.291	1063.294	0
2	22102707	329	High	1.5	Precise	1	36	28	33	1.9	2.0	1.7	33	36	28	1.7	1.9	2.0	3	0.805	0.000	L	33	1.7	1063.796	1065.991	1066.796	1066.798	0
2	22102707	330	High	1.5	Precise	1	22	28	33	1.7	2.0	1.7	33	28	22	1.7	2.0	1.7	1	1.091	0.000	R	22	1.7	1067.301	1069.408	1070.499	1070.503	0
2	22102707	331	High	1.5	Vague	2	28	35	13	2.0	2.1	1.2	28	13	35	2.0	1.2	2.1	3	1.375	0.001	D	13	1.2	1071.005	1073.876	1075.252	1075.254	0
2	22102707	332	High	1.5	Precise	1	36	25	26	1.9	3.7	1.1	26	25	36	1.1	3.7	1.9	1	0.652	0.000	R	36	1.9	1075.756	1078.048	1078.700	1078.702	0
2	22102707	333	High	1.5	Precise	1	28	30	19	2.0	5.0	1.1	19	30	28	1.1	5.0	2.0	2	0.687	0.001	D	30	5.0	1079.204	1081.741	1082.428	1082.430	0
2	22102707	334	High	1.5	Vague	2	25	30	1	3.7	5.0	1.2	25	1	30	3.7	1.2	5.0	2	0.664	0.001	R	30	5.0	1082.933	1084.491	1085.156	1085.158	0
2	22102707	335	High	1.5	Precise	1	22	28	31	1.7	2.0	1.4	31	22	28	1.4	1.7	2.0	1	1.347	0.000	D	22	1.7	1085.661	1088.136	1089.483	1089.486	0
2	22102707	336	High	1.5	Precise	1	35	25	29	2.1	3.7	1.2	35	29	25	2.1	1.2	3.7	2	0.548	0.001	R	25	3.7	1089.988	1092.040	1092.588	1092.590	0
2	22102707	337	High	1.5	Precise	1	22	25	19	1.7	3.7	1.1	19	22	25	1.1	1.7	3.7	2	0.477	0.000	R	25	3.7	1093.093	1094.390	1094.867	1094.870	0
2	22102707	338	High	1.5	Vague	2	36	25	18	1.9	3.7	1.2	18	36	25	1.2	1.9	3.7	2	0.479	0.001	R	25	3.7	1095.373	1097.765	1098.244	1098.246	0
2	22102707	339	High	1.5	Vague	2	36	28	9	1.9	2.0	1.6	36	9	28	1.9	1.6	2.0	1	0.960	0.000	L	36	1.9	1098.749	1100.068	1101.028	1101.030	0
2	22102707	340	High	1.5	Vague	2	36	25	1	1.9	3.7	1.2	25	36	1	3.7	1.9	1.2	2	0.863	0.001	L	25	3.7	1101.533	1102.780	1103.644	1103.646	0
2	22102707	341	High	1.5	Vague	2	22	28	6	1.7	2.0	1.4	6	28	22	1.4	2.0	1.7	1	0.661	0.000	R	22	1.7	1104.149	1106.663	1107.323	1107.326	0
2	22102707	342	High	1.5	Vague	2	36	30	1	1.9	5.0	1.2	36	1	30	1.9	1.2	5.0	2	0.525	0.000	R	30	5.0	1107.829	1109.134	1109.659	1109.662	0
2	22102707	343	High	1.5	Precise	1	22	30	19	1.7	5.0	1.1	22	30	19	1.7	5.0	1.1	2	0.674	0.001	D	30	5.0	1110.164	1111.977	1112.652	1112.654	0
2	22102707	344	High	1.5	Vague	2	35	25	18	2.1	3.7	1.2	35	18	25	2.1	1.2	3.7	2	0.645	0.000	R	25	3.7	1113.157	1116.118	1116.764	1116.766	0
2	22102707	345	High	1.5	Vague	2	35	30	18	2.1	5.0	1.2	18	35	30	1.2	2.1	5.0	2	0.507	0.000	R	30	5.0	1117.269	1119.073	1119.580	1119.582	0
2	22102707	346	High	1.5	Vague	2	35	30	9	2.1	5.0	1.6	9	35	30	1.6	2.1	5.0	2	0.464	0.000	R	30	5.0	1120.084	1122.684	1123.147	1123.150	0
2	22102707	347	High	1.5	Precise	1	28	35	33	2.0	2.1	1.7	35	33	28	2.1	1.7	2.0	3	0.994	0.000	D	33	1.7	1123.652	1124.338	1125.332	1125.334	0
2	22102707	348	High	1.5	Precise	1	22	30	33	1.7	5.0	1.7	33	30	22	1.7	5.0	1.7	2	0.720	0.001	D	30	5.0	1125.836	1126.571	1127.292	1127.294	0
2	22102707	349	High	1.5	Precise	1	22	25	29	1.7	3.7	1.2	22	25	29	1.7	3.7	1.2	2	0.511	0.000	D	25	3.7	1127.797	1128.988	1129.499	1129.502	0
2	22102707	350	High	1.5	Precise	1	36	30	19	1.9	5.0	1.1	36	30	19	1.9	5.0	1.1	2	0.417	0.001	D	30	5.0	1130.005	1131.691	1132.108	1132.110	0
2	22102707	351	High	1.5	Precise	1	28	35	20	2.0	2.1	1.5	28	35	20	2.0	2.1	1.5	2	1.246	0.000	D	35	2.1	1132.612	1135.502	1136.748	1136.750	0
2	22102707	352	High	1.5	Precise	1	28	25	19	2.0	3.7	1.1	19	25	28	1.1	3.7	2.0	2	0.561	0.000	D	25	3.7	1137.253	1138.675	1139.236	1139.238	0
2	22102707	353	High	1.5	Vague	2	22	35	9	1.7	2.1	1.6	35	22	9	2.1	1.7	1.6	NaN	NaN	NaN	NaN	NaN	NaN	1139.741	1142.568	NaN	1144.058	1
2	22102707	354	High	1.5	Vague	2	28	35	3	2.0	2.1	1.1	28	3	35	2.0	1.1	2.1	3	0.453	0.000	D	3	1.1	1146.062	1148.879	1149.332	1149.334	0
2	22102707	355	High	1.5	Vague	2	36	35	1	1.9	2.1	1.2	1	35	36	1.2	2.1	1.9	1	0.659	0.001	R	36	1.9	1149.837	1150.953	1151.612	1151.614	0
2	22102707	356	High	1.5	Vague	2	22	35	6	1.7	2.1	1.4	6	22	35	1.4	1.7	2.1	1	0.764	0.000	D	22	1.7	1152.117	1154.559	1155.324	1155.326	0
2	22102707	357	High	1.5	Precise	1	22	35	19	1.7	2.1	1.1	19	22	35	1.1	1.7	2.1	1	0.693	0.000	D	22	1.7	1155.828	1157.855	1158.548	1158.550	0
2	22102707	358	High	1.5	Precise	1	22	36	19	1.7	1.9	1.1	19	36	22	1.1	1.9	1.7	2	0.768	0.000	D	36	1.9	1159.052	1161.539	1162.307	1162.310	0
2	22102707	359	High	1.5	Vague	2	22	30	6	1.7	5.0	1.4	30	6	22	5.0	1.4	1.7	3	0.455	0.000	D	6	1.4	1162.812	1164.349	1164.804	1164.806	0
2	22102707	360	High	1.5	Precise	1	36	35	20	1.9	2.1	1.5	20	35	36	1.5	2.1	1.9	1	0.754	0.001	R	36	1.9	1165.308	1166.401	1167.155	1167.158	0
