Group	subID	trial	TimePressure	TimeConstraint	Vagueness	Vaguenesscode	ID1	ID2	ID3	V1	V2	V3	ID_left	ID_middle	ID_right	Bid_left	Bid_middle	Bid_right	chosenItem	RT	RTvariance	chosenPosition	chosenID	chosenValue	fixation_time	option_time	choice_time	feedback_time	timeout
1	22102410	1	High	1.5	Precise	1	15	17	7	13.4	15.1	0.0	17	7	15	15.1	0.0	13.4	2	0.549	0.000	L	17	15.1	4.663	6.897	7.446	7.449	0
1	22102410	2	High	1.5	Vague	2	4	12	23	5.0	10.0	0.0	12	23	4	10.0	0.0	5.0	1	0.575	0.000	R	4	5.0	7.954	9.775	10.350	10.353	0
1	22102410	3	High	1.5	Precise	1	4	10	2	5.0	8.4	0.0	4	10	2	5.0	8.4	0.0	1	0.619	0.001	L	4	5.0	10.857	12.483	13.102	13.105	0
1	22102410	4	High	1.5	Vague	2	14	17	27	8.1	15.1	0.0	27	17	14	0.0	15.1	8.1	1	0.769	0.000	R	14	8.1	13.609	15.333	16.102	16.105	0
1	22102410	5	High	1.5	Vague	2	12	15	23	10.0	13.4	0.0	23	12	15	0.0	10.0	13.4	1	0.990	0.000	D	12	10.0	16.608	17.808	18.798	18.802	0
1	22102410	6	High	1.5	Precise	1	12	15	11	10.0	13.4	1.7	15	11	12	13.4	1.7	10.0	2	0.829	0.000	L	15	13.4	19.308	21.552	22.382	22.384	0
1	22102410	7	High	1.5	Vague	2	10	15	23	8.4	13.4	0.0	23	10	15	0.0	8.4	13.4	1	0.791	0.001	D	10	8.4	22.887	25.247	26.038	26.042	0
1	22102410	8	High	1.5	Vague	2	4	14	21	5.0	8.1	1.3	14	21	4	8.1	1.3	5.0	2	0.788	0.001	L	14	8.1	26.544	27.658	28.446	28.448	0
1	22102410	9	High	1.5	Vague	2	4	15	21	5.0	13.4	1.3	21	4	15	1.3	5.0	13.4	1	1.047	0.000	D	4	5.0	28.950	31.375	32.422	32.425	0
1	22102410	10	High	1.5	Precise	1	12	17	9	10.0	15.1	3.0	12	9	17	10.0	3.0	15.1	2	0.678	0.000	R	17	15.1	32.927	35.024	35.702	35.704	0
1	22102410	11	High	1.5	Precise	1	4	14	13	5.0	8.1	0.0	4	13	14	5.0	0.0	8.1	3	0.905	0.000	D	13	0.0	36.207	37.781	38.686	38.688	0
1	22102410	12	High	1.5	Precise	1	4	10	7	5.0	8.4	0.0	10	7	4	8.4	0.0	5.0	2	0.790	0.001	L	10	8.4	39.190	40.008	40.798	40.801	0
1	22102410	13	High	1.5	Precise	1	4	15	11	5.0	13.4	1.7	4	15	11	5.0	13.4	1.7	2	1.235	0.001	D	15	13.4	41.303	43.091	44.326	44.328	0
1	22102410	14	High	1.5	Vague	2	12	17	22	10.0	15.1	1.4	22	17	12	1.4	15.1	10.0	1	0.862	0.000	R	12	10.0	44.831	47.160	48.022	48.025	0
1	22102410	15	High	1.5	Precise	1	10	12	2	8.4	10.0	0.0	2	12	10	0.0	10.0	8.4	2	0.775	0.001	D	12	10.0	48.527	50.791	51.566	51.568	0
1	22102410	16	High	1.5	Precise	1	4	17	18	5.0	15.1	3.4	17	18	4	15.1	3.4	5.0	2	0.935	0.001	L	17	15.1	52.070	54.463	55.398	55.400	0
1	22102410	17	High	1.5	Vague	2	4	17	22	5.0	15.1	1.4	22	4	17	1.4	5.0	15.1	2	0.823	0.000	R	17	15.1	55.903	56.927	57.750	57.752	0
1	22102410	18	High	1.5	Vague	2	10	17	25	8.4	15.1	0.0	17	25	10	15.1	0.0	8.4	2	0.522	0.000	L	17	15.1	58.255	60.516	61.038	61.040	0
1	22102410	19	High	1.5	Precise	1	14	12	18	8.1	10.0	3.4	18	12	14	3.4	10.0	8.1	1	1.303	0.001	R	14	8.1	61.542	64.096	65.398	65.401	0
1	22102410	20	High	1.5	Vague	2	10	12	23	8.4	10.0	0.0	10	23	12	8.4	0.0	10.0	1	0.842	0.000	L	10	8.4	65.903	67.315	68.158	68.160	0
1	22102410	21	High	1.5	Precise	1	4	15	9	5.0	13.4	3.0	9	4	15	3.0	5.0	13.4	3	1.081	0.000	L	9	3.0	68.662	71.173	72.254	72.256	0
1	22102410	22	High	1.5	Vague	2	10	17	36	8.4	15.1	0.7	17	36	10	15.1	0.7	8.4	2	0.759	0.000	L	17	15.1	72.759	74.079	74.838	74.840	0
1	22102410	23	High	1.5	Vague	2	14	10	22	8.1	8.4	1.4	22	14	10	1.4	8.1	8.4	2	0.973	0.001	R	10	8.4	75.342	76.513	77.486	77.488	0
1	22102410	24	High	1.5	Precise	1	4	15	13	5.0	13.4	0.0	15	13	4	13.4	0.0	5.0	1	0.850	0.001	R	4	5.0	77.991	79.492	80.342	80.344	0
1	22102410	25	High	1.5	Precise	1	10	12	11	8.4	10.0	1.7	12	11	10	10.0	1.7	8.4	2	0.657	0.001	L	12	10.0	80.847	82.197	82.854	82.856	0
1	22102410	26	High	1.5	Vague	2	14	12	22	8.1	10.0	1.4	22	12	14	1.4	10.0	8.1	1	0.936	0.001	R	14	8.1	83.359	84.886	85.822	85.825	0
1	22102410	27	High	1.5	Vague	2	10	12	25	8.4	10.0	0.0	12	10	25	10.0	8.4	0.0	1	1.332	0.001	D	10	8.4	86.327	88.050	89.382	89.384	0
1	22102410	28	High	1.5	Precise	1	4	14	7	5.0	8.1	0.0	4	7	14	5.0	0.0	8.1	2	0.944	0.000	R	14	8.1	89.886	92.222	93.166	93.168	0
1	22102410	29	High	1.5	Precise	1	12	15	7	10.0	13.4	0.0	7	12	15	0.0	10.0	13.4	1	1.297	0.001	D	12	10.0	93.670	96.421	97.718	97.720	0
1	22102410	30	High	1.5	Vague	2	4	15	36	5.0	13.4	0.7	15	36	4	13.4	0.7	5.0	3	1.395	0.000	D	36	0.7	98.223	99.516	100.910	100.913	0
1	22102410	31	High	1.5	Precise	1	15	17	18	13.4	15.1	3.4	18	15	17	3.4	13.4	15.1	2	0.631	0.000	R	17	15.1	101.415	104.047	104.678	104.680	0
1	22102410	32	High	1.5	Precise	1	12	15	9	10.0	13.4	3.0	15	12	9	13.4	10.0	3.0	NaN	NaN	NaN	NaN	NaN	NaN	105.182	107.575	NaN	109.066	1
1	22102410	33	High	1.5	Precise	1	14	17	2	8.1	15.1	0.0	14	2	17	8.1	0.0	15.1	2	0.603	0.000	R	17	15.1	111.070	112.395	112.998	113.002	0
1	22102410	34	High	1.5	Vague	2	4	12	36	5.0	10.0	0.7	4	36	12	5.0	0.7	10.0	3	1.051	0.000	D	36	0.7	113.504	115.035	116.086	116.088	0
1	22102410	35	High	1.5	Vague	2	4	14	36	5.0	8.1	0.7	14	4	36	8.1	5.0	0.7	2	1.067	0.001	L	14	8.1	116.590	117.403	118.470	118.473	0
1	22102410	36	High	1.5	Precise	1	10	12	7	8.4	10.0	0.0	12	10	7	10.0	8.4	0.0	2	0.764	0.000	L	12	10.0	118.976	121.098	121.862	121.864	0
1	22102410	37	High	1.5	Precise	1	4	12	11	5.0	10.0	1.7	12	11	4	10.0	1.7	5.0	2	1.097	0.001	L	12	10.0	122.367	125.086	126.182	126.184	0
1	22102410	38	High	1.5	Vague	2	4	15	22	5.0	13.4	1.4	22	4	15	1.4	5.0	13.4	2	1.185	0.000	R	15	13.4	126.687	129.325	130.510	130.512	0
1	22102410	39	High	1.5	Precise	1	10	15	18	8.4	13.4	3.4	18	10	15	3.4	8.4	13.4	1	0.765	0.001	D	10	8.4	131.014	131.977	132.742	132.744	0
1	22102410	40	High	1.5	Vague	2	15	17	25	13.4	15.1	0.0	15	25	17	13.4	0.0	15.1	2	0.531	0.000	R	17	15.1	133.247	135.299	135.830	135.832	0
1	22102410	41	High	1.5	Precise	1	4	15	18	5.0	13.4	3.4	4	15	18	5.0	13.4	3.4	1	0.691	0.000	L	4	5.0	136.335	139.307	139.998	140.000	0
1	22102410	42	High	1.5	Vague	2	12	15	22	10.0	13.4	1.4	22	12	15	1.4	10.0	13.4	1	0.901	0.000	D	12	10.0	140.503	142.201	143.102	143.104	0
1	22102410	43	High	1.5	Vague	2	10	17	22	8.4	15.1	1.4	22	17	10	1.4	15.1	8.4	1	0.691	0.000	R	10	8.4	143.606	145.459	146.150	146.152	0
1	22102410	44	High	1.5	Vague	2	4	15	27	5.0	13.4	0.0	27	15	4	0.0	13.4	5.0	2	0.802	0.001	D	15	13.4	146.655	148.692	149.494	149.496	0
1	22102410	45	High	1.5	Precise	1	10	15	11	8.4	13.4	1.7	11	10	15	1.7	8.4	13.4	2	0.665	0.000	R	15	13.4	149.999	152.277	152.942	152.944	0
1	22102410	46	High	1.5	Precise	1	10	15	7	8.4	13.4	0.0	15	7	10	13.4	0.0	8.4	1	0.742	0.001	R	10	8.4	153.447	155.072	155.814	155.816	0
1	22102410	47	High	1.5	Vague	2	4	12	21	5.0	10.0	1.3	21	4	12	1.3	5.0	10.0	2	0.736	0.000	R	12	10.0	156.319	158.198	158.934	158.936	0
1	22102410	48	High	1.5	Precise	1	14	15	18	8.1	13.4	3.4	14	18	15	8.1	3.4	13.4	2	0.739	0.000	R	15	13.4	159.439	162.067	162.806	162.808	0
1	22102410	49	High	1.5	Precise	1	4	17	13	5.0	15.1	0.0	17	4	13	15.1	5.0	0.0	2	1.071	0.000	L	17	15.1	163.311	166.055	167.126	167.128	0
1	22102410	50	High	1.5	Vague	2	12	15	21	10.0	13.4	1.3	12	21	15	10.0	1.3	13.4	2	0.774	0.001	R	15	13.4	167.631	170.264	171.038	171.040	0
1	22102410	51	High	1.5	Vague	2	14	17	25	8.1	15.1	0.0	17	14	25	15.1	8.1	0.0	2	0.585	0.001	L	17	15.1	171.543	174.510	175.094	175.097	0
1	22102410	52	High	1.5	Precise	1	14	10	2	8.1	8.4	0.0	10	14	2	8.4	8.1	0.0	2	0.780	0.000	L	10	8.4	175.599	176.858	177.638	177.640	0
1	22102410	53	High	1.5	Precise	1	12	15	2	10.0	13.4	0.0	2	15	12	0.0	13.4	10.0	1	0.635	0.000	R	12	10.0	178.143	179.650	180.286	180.288	0
1	22102410	54	High	1.5	Vague	2	14	12	23	8.1	10.0	0.0	14	12	23	8.1	10.0	0.0	1	0.817	0.000	L	14	8.1	180.790	183.172	183.990	183.992	0
1	22102410	55	High	1.5	Vague	2	10	12	21	8.4	10.0	1.3	10	21	12	8.4	1.3	10.0	2	0.550	0.000	R	12	10.0	184.495	186.416	186.966	186.968	0
1	22102410	56	High	1.5	Vague	2	4	10	21	5.0	8.4	1.3	10	21	4	8.4	1.3	5.0	2	0.558	0.000	L	10	8.4	187.470	188.143	188.702	188.704	0
1	22102410	57	High	1.5	Precise	1	4	14	9	5.0	8.1	3.0	14	4	9	8.1	5.0	3.0	3	0.868	0.000	R	9	3.0	189.206	190.650	191.518	191.520	0
1	22102410	58	High	1.5	Vague	2	10	12	22	8.4	10.0	1.4	10	12	22	8.4	10.0	1.4	1	0.510	0.000	L	10	8.4	192.022	194.944	195.454	195.456	0
1	22102410	59	High	1.5	Vague	2	4	14	22	5.0	8.1	1.4	4	14	22	5.0	8.1	1.4	1	0.574	0.001	L	4	5.0	195.959	198.144	198.718	198.720	0
1	22102410	60	High	1.5	Vague	2	4	10	22	5.0	8.4	1.4	10	4	22	8.4	5.0	1.4	2	0.713	0.000	L	10	8.4	199.223	200.925	201.638	201.640	0
1	22102410	61	High	1.5	Vague	2	4	17	25	5.0	15.1	0.0	25	17	4	0.0	15.1	5.0	1	0.776	0.001	R	4	5.0	212.458	213.846	214.622	214.625	0
1	22102410	62	High	1.5	Vague	2	12	17	21	10.0	15.1	1.3	21	17	12	1.3	15.1	10.0	1	1.014	0.000	R	12	10.0	215.128	216.848	217.862	217.864	0
1	22102410	63	High	1.5	Precise	1	10	12	18	8.4	10.0	3.4	12	10	18	10.0	8.4	3.4	1	1.146	0.001	D	10	8.4	218.367	219.660	220.806	220.808	0
1	22102410	64	High	1.5	Precise	1	14	15	9	8.1	13.4	3.0	14	15	9	8.1	13.4	3.0	1	0.842	0.001	L	14	8.1	221.311	224.156	224.998	225.001	0
1	22102410	65	High	1.5	Vague	2	4	17	23	5.0	15.1	0.0	4	17	23	5.0	15.1	0.0	2	0.894	0.000	D	17	15.1	225.503	227.256	228.150	228.152	0
1	22102410	66	High	1.5	Vague	2	14	10	23	8.1	8.4	0.0	23	14	10	0.0	8.1	8.4	2	0.662	0.001	R	10	8.4	228.655	230.736	231.398	231.400	0
1	22102410	67	High	1.5	Precise	1	10	15	9	8.4	13.4	3.0	15	10	9	13.4	8.4	3.0	1	0.867	0.000	D	10	8.4	231.902	234.452	235.318	235.320	0
1	22102410	68	High	1.5	Vague	2	10	15	25	8.4	13.4	0.0	15	10	25	13.4	8.4	0.0	1	0.654	0.000	D	10	8.4	235.823	237.096	237.750	237.752	0
1	22102410	69	High	1.5	Precise	1	14	12	13	8.1	10.0	0.0	12	14	13	10.0	8.1	0.0	1	1.013	0.000	D	14	8.1	238.255	240.153	241.166	241.168	0
1	22102410	70	High	1.5	Vague	2	15	17	23	13.4	15.1	0.0	23	15	17	0.0	13.4	15.1	2	0.689	0.000	R	17	15.1	241.670	242.725	243.414	243.416	0
1	22102410	71	High	1.5	Vague	2	4	10	25	5.0	8.4	0.0	25	4	10	0.0	5.0	8.4	2	0.727	0.001	R	10	8.4	243.918	244.463	245.190	245.192	0
1	22102410	72	High	1.5	Precise	1	10	17	13	8.4	15.1	0.0	13	10	17	0.0	8.4	15.1	2	0.560	0.001	R	17	15.1	245.695	248.678	249.238	249.240	0
1	22102410	73	High	1.5	Vague	2	4	10	23	5.0	8.4	0.0	10	4	23	8.4	5.0	0.0	2	0.781	0.000	L	10	8.4	249.743	252.113	252.894	252.896	0
1	22102410	74	High	1.5	Precise	1	15	17	2	13.4	15.1	0.0	15	2	17	13.4	0.0	15.1	2	0.562	0.000	R	17	15.1	253.398	256.340	256.902	256.904	0
1	22102410	75	High	1.5	Precise	1	4	10	13	5.0	8.4	0.0	4	13	10	5.0	0.0	8.4	2	0.582	0.000	R	10	8.4	257.407	259.616	260.198	260.200	0
1	22102410	76	High	1.5	Precise	1	4	12	18	5.0	10.0	3.4	12	4	18	10.0	5.0	3.4	2	1.113	0.000	L	12	10.0	260.703	262.717	263.830	263.832	0
1	22102410	77	High	1.5	Vague	2	4	15	25	5.0	13.4	0.0	25	4	15	0.0	5.0	13.4	NaN	NaN	NaN	NaN	NaN	NaN	264.335	265.037	NaN	266.526	1
1	22102410	78	High	1.5	Vague	2	4	14	25	5.0	8.1	0.0	14	4	25	8.1	5.0	0.0	2	0.727	0.001	L	14	8.1	268.529	271.111	271.838	271.841	0
1	22102410	79	High	1.5	Precise	1	4	17	2	5.0	15.1	0.0	2	17	4	0.0	15.1	5.0	1	0.550	0.000	R	4	5.0	272.344	274.567	275.118	275.120	0
1	22102410	80	High	1.5	Vague	2	10	12	27	8.4	10.0	0.0	10	12	27	8.4	10.0	0.0	1	0.841	0.000	L	10	8.4	275.622	278.549	279.390	279.392	0
1	22102410	81	High	1.5	Precise	1	10	17	11	8.4	15.1	1.7	17	10	11	15.1	8.4	1.7	2	0.708	0.001	L	17	15.1	279.895	280.426	281.134	281.136	0
1	22102410	82	High	1.5	Precise	1	4	12	9	5.0	10.0	3.0	4	9	12	5.0	3.0	10.0	2	1.073	0.001	R	12	10.0	281.639	283.285	284.358	284.361	0
1	22102410	83	High	1.5	Precise	1	12	17	7	10.0	15.1	0.0	12	7	17	10.0	0.0	15.1	2	0.502	0.000	R	17	15.1	284.863	287.448	287.950	287.952	0
1	22102410	84	High	1.5	Vague	2	4	15	23	5.0	13.4	0.0	15	23	4	13.4	0.0	5.0	1	1.174	0.000	R	4	5.0	288.455	289.936	291.110	291.112	0
1	22102410	85	High	1.5	Vague	2	10	15	36	8.4	13.4	0.7	15	10	36	13.4	8.4	0.7	3	0.557	0.000	R	36	0.7	291.614	293.489	294.046	294.048	0
1	22102410	86	High	1.5	Precise	1	12	15	13	10.0	13.4	0.0	13	15	12	0.0	13.4	10.0	2	0.636	0.001	D	15	13.4	294.551	296.715	297.350	297.353	0
1	22102410	87	High	1.5	Precise	1	10	12	9	8.4	10.0	3.0	10	12	9	8.4	10.0	3.0	1	0.707	0.000	L	10	8.4	297.855	299.171	299.878	299.880	0
1	22102410	88	High	1.5	Vague	2	14	15	21	8.1	13.4	1.3	14	15	21	8.1	13.4	1.3	1	0.867	0.000	L	14	8.1	300.383	302.419	303.286	303.288	0
1	22102410	89	High	1.5	Precise	1	4	17	7	5.0	15.1	0.0	7	17	4	0.0	15.1	5.0	1	0.608	0.000	R	4	5.0	303.791	305.669	306.278	306.280	0
1	22102410	90	High	1.5	Precise	1	14	17	7	8.1	15.1	0.0	7	17	14	0.0	15.1	8.1	2	0.523	0.001	D	17	15.1	306.783	308.267	308.790	308.792	0
1	22102410	91	High	1.5	Precise	1	14	12	2	8.1	10.0	0.0	2	12	14	0.0	10.0	8.1	1	0.778	0.001	R	14	8.1	309.295	309.844	310.622	310.626	0
1	22102410	92	High	1.5	Precise	1	4	10	9	5.0	8.4	3.0	10	4	9	8.4	5.0	3.0	2	0.612	0.000	L	10	8.4	311.128	312.034	312.646	312.648	0
1	22102410	93	High	1.5	Precise	1	10	17	2	8.4	15.1	0.0	17	2	10	15.1	0.0	8.4	2	0.561	0.000	L	17	15.1	313.151	314.318	314.878	314.880	0
1	22102410	94	High	1.5	Vague	2	14	15	36	8.1	13.4	0.7	15	14	36	13.4	8.1	0.7	3	0.706	0.001	R	36	0.7	315.383	316.716	317.422	317.425	0
1	22102410	95	High	1.5	Precise	1	4	15	2	5.0	13.4	0.0	15	4	2	13.4	5.0	0.0	1	0.931	0.000	D	4	5.0	317.928	319.786	320.718	320.720	0
1	22102410	96	High	1.5	Precise	1	4	12	7	5.0	10.0	0.0	7	12	4	0.0	10.0	5.0	1	0.575	0.001	R	4	5.0	321.223	322.767	323.342	323.344	0
1	22102410	97	High	1.5	Precise	1	14	17	9	8.1	15.1	3.0	14	17	9	8.1	15.1	3.0	1	0.678	0.001	L	14	8.1	323.847	326.424	327.102	327.104	0
1	22102410	98	High	1.5	Precise	1	4	12	13	5.0	10.0	0.0	13	12	4	0.0	10.0	5.0	2	0.611	0.001	D	12	10.0	327.607	330.075	330.686	330.688	0
1	22102410	99	High	1.5	Precise	1	10	12	13	8.4	10.0	0.0	10	13	12	8.4	0.0	10.0	2	0.743	0.000	R	12	10.0	331.192	333.175	333.918	333.920	0
1	22102410	100	High	1.5	Vague	2	14	15	25	8.1	13.4	0.0	14	15	25	8.1	13.4	0.0	1	0.587	0.001	L	14	8.1	334.423	336.251	336.838	336.840	0
1	22102410	101	High	1.5	Vague	2	15	17	36	13.4	15.1	0.7	36	15	17	0.7	13.4	15.1	2	0.691	0.001	R	17	15.1	337.343	338.003	338.694	338.696	0
1	22102410	102	High	1.5	Precise	1	14	15	13	8.1	13.4	0.0	13	14	15	0.0	8.1	13.4	2	0.794	0.000	R	15	13.4	339.199	341.212	342.006	342.009	0
1	22102410	103	High	1.5	Vague	2	4	12	27	5.0	10.0	0.0	4	12	27	5.0	10.0	0.0	1	0.683	0.001	L	4	5.0	342.511	343.339	344.022	344.025	0
1	22102410	104	High	1.5	Precise	1	4	14	11	5.0	8.1	1.7	4	14	11	5.0	8.1	1.7	2	0.803	0.000	D	14	8.1	344.528	345.179	345.982	345.985	0
1	22102410	105	High	1.5	Vague	2	10	17	23	8.4	15.1	0.0	10	17	23	8.4	15.1	0.0	1	0.680	0.000	L	10	8.4	346.487	348.614	349.294	349.296	0
1	22102410	106	High	1.5	Vague	2	10	17	27	8.4	15.1	0.0	10	27	17	8.4	0.0	15.1	2	0.588	0.000	R	17	15.1	349.799	352.410	352.998	353.000	0
1	22102410	107	High	1.5	Precise	1	12	17	13	10.0	15.1	0.0	13	17	12	0.0	15.1	10.0	2	0.871	0.001	D	17	15.1	353.503	355.535	356.406	356.409	0
1	22102410	108	High	1.5	Vague	2	10	15	27	8.4	13.4	0.0	27	10	15	0.0	8.4	13.4	1	0.639	0.000	D	10	8.4	356.911	358.623	359.262	359.264	0
1	22102410	109	High	1.5	Precise	1	14	17	11	8.1	15.1	1.7	11	14	17	1.7	8.1	15.1	2	0.464	0.001	R	17	15.1	359.767	361.855	362.318	362.320	0
1	22102410	110	High	1.5	Precise	1	4	14	2	5.0	8.1	0.0	2	14	4	0.0	8.1	5.0	2	0.654	0.001	D	14	8.1	362.823	365.776	366.430	366.433	0
1	22102410	111	High	1.5	Precise	1	14	17	18	8.1	15.1	3.4	18	17	14	3.4	15.1	8.1	1	0.643	0.000	R	14	8.1	366.935	368.835	369.478	369.481	0
1	22102410	112	High	1.5	Vague	2	14	10	25	8.1	8.4	0.0	25	10	14	0.0	8.4	8.1	2	0.558	0.001	D	10	8.4	369.983	371.840	372.398	372.400	0
1	22102410	113	High	1.5	Precise	1	12	15	18	10.0	13.4	3.4	15	18	12	13.4	3.4	10.0	3	0.609	0.000	D	18	3.4	372.903	373.877	374.486	374.488	0
1	22102410	114	High	1.5	Vague	2	14	17	36	8.1	15.1	0.7	14	36	17	8.1	0.7	15.1	2	0.514	0.000	R	17	15.1	374.991	376.084	376.598	376.600	0
1	22102410	115	High	1.5	Vague	2	14	10	21	8.1	8.4	1.3	10	14	21	8.4	8.1	1.3	2	0.777	0.000	L	10	8.4	377.102	380.069	380.846	380.848	0
1	22102410	116	High	1.5	Vague	2	14	17	21	8.1	15.1	1.3	21	17	14	1.3	15.1	8.1	2	0.742	0.001	D	17	15.1	381.351	382.712	383.454	383.456	0
1	22102410	117	High	1.5	Precise	1	10	15	2	8.4	13.4	0.0	15	2	10	13.4	0.0	8.4	1	0.715	0.000	R	10	8.4	383.959	384.772	385.486	385.488	0
1	22102410	118	High	1.5	Vague	2	14	15	22	8.1	13.4	1.4	22	14	15	1.4	8.1	13.4	1	0.856	0.000	D	14	8.1	385.991	387.734	388.590	388.592	0
1	22102410	119	High	1.5	Vague	2	12	17	27	10.0	15.1	0.0	17	12	27	15.1	10.0	0.0	2	0.756	0.001	L	17	15.1	389.095	391.618	392.374	392.377	0
1	22102410	120	High	1.5	Vague	2	14	10	27	8.1	8.4	0.0	14	10	27	8.1	8.4	0.0	2	0.928	0.001	D	10	8.4	392.879	393.534	394.462	394.465	0
1	22102410	121	High	1.5	Precise	1	14	17	13	8.1	15.1	0.0	14	17	13	8.1	15.1	0.0	2	0.680	0.001	D	17	15.1	406.195	407.286	407.966	407.969	0
1	22102410	122	High	1.5	Vague	2	14	17	23	8.1	15.1	0.0	17	14	23	15.1	8.1	0.0	2	0.519	0.000	L	17	15.1	408.471	409.800	410.318	410.320	0
1	22102410	123	High	1.5	Vague	2	15	17	22	13.4	15.1	1.4	22	15	17	1.4	13.4	15.1	2	0.536	0.001	R	17	15.1	410.823	411.574	412.110	412.113	0
1	22102410	124	High	1.5	Precise	1	15	17	9	13.4	15.1	3.0	17	9	15	15.1	3.0	13.4	2	0.561	0.000	L	17	15.1	412.615	415.229	415.790	415.792	0
1	22102410	125	High	1.5	Precise	1	14	12	11	8.1	10.0	1.7	14	12	11	8.1	10.0	1.7	2	0.713	0.000	D	12	10.0	416.295	417.533	418.246	418.248	0
1	22102410	126	High	1.5	Vague	2	12	17	25	10.0	15.1	0.0	25	17	12	0.0	15.1	10.0	2	0.589	0.000	D	17	15.1	418.751	420.393	420.982	420.984	0
1	22102410	127	High	1.5	Vague	2	10	15	21	8.4	13.4	1.3	15	10	21	13.4	8.4	1.3	1	0.608	0.001	D	10	8.4	421.486	423.742	424.350	424.353	0
1	22102410	128	High	1.5	Vague	2	10	17	21	8.4	15.1	1.3	21	17	10	1.3	15.1	8.4	2	0.699	0.000	D	17	15.1	424.855	426.515	427.214	427.216	0
1	22102410	129	High	1.5	Vague	2	14	12	27	8.1	10.0	0.0	27	12	14	0.0	10.0	8.1	2	0.714	0.001	D	12	10.0	427.719	428.996	429.710	429.713	0
1	22102410	130	High	1.5	Vague	2	4	17	21	5.0	15.1	1.3	17	21	4	15.1	1.3	5.0	2	0.591	0.000	L	17	15.1	430.215	432.583	433.174	433.176	0
1	22102410	131	High	1.5	Vague	2	14	12	21	8.1	10.0	1.3	12	21	14	10.0	1.3	8.1	2	0.619	0.001	L	12	10.0	433.679	435.179	435.798	435.800	0
1	22102410	132	High	1.5	Precise	1	4	15	7	5.0	13.4	0.0	7	15	4	0.0	13.4	5.0	1	1.026	0.000	R	4	5.0	436.302	438.564	439.590	439.592	0
1	22102410	133	High	1.5	Precise	1	14	15	2	8.1	13.4	0.0	15	2	14	13.4	0.0	8.1	3	1.089	0.000	D	2	0.0	440.094	442.757	443.846	443.848	0
1	22102410	134	High	1.5	Precise	1	10	17	18	8.4	15.1	3.4	17	10	18	15.1	8.4	3.4	2	0.513	0.000	L	17	15.1	444.351	447.341	447.854	447.857	0
1	22102410	135	High	1.5	Precise	1	4	12	2	5.0	10.0	0.0	12	4	2	10.0	5.0	0.0	1	0.853	0.001	D	4	5.0	448.359	450.265	451.118	451.120	0
1	22102410	136	High	1.5	Precise	1	15	17	11	13.4	15.1	1.7	15	11	17	13.4	1.7	15.1	2	0.555	0.000	R	17	15.1	451.623	453.043	453.598	453.601	0
1	22102410	137	High	1.5	Vague	2	14	12	36	8.1	10.0	0.7	12	36	14	10.0	0.7	8.1	3	0.961	0.000	D	36	0.7	454.103	455.797	456.758	456.760	0
1	22102410	138	High	1.5	Precise	1	14	10	7	8.1	8.4	0.0	14	10	7	8.1	8.4	0.0	2	0.996	0.000	D	10	8.4	457.263	460.235	461.230	461.233	0
1	22102410	139	High	1.5	Precise	1	14	10	11	8.1	8.4	1.7	11	10	14	1.7	8.4	8.1	2	0.584	0.000	D	10	8.4	461.735	463.182	463.766	463.768	0
1	22102410	140	High	1.5	Precise	1	14	15	7	8.1	13.4	0.0	7	14	15	0.0	8.1	13.4	1	0.924	0.001	D	14	8.1	464.270	464.922	465.846	465.848	0
1	22102410	141	High	1.5	Precise	1	12	17	18	10.0	15.1	3.4	17	12	18	15.1	10.0	3.4	2	0.553	0.000	L	17	15.1	466.351	468.086	468.638	468.640	0
1	22102410	142	High	1.5	Vague	2	12	17	23	10.0	15.1	0.0	23	17	12	0.0	15.1	10.0	2	0.636	0.000	D	17	15.1	469.143	472.106	472.742	472.745	0
1	22102410	143	High	1.5	Vague	2	14	17	22	8.1	15.1	1.4	14	17	22	8.1	15.1	1.4	2	0.686	0.001	D	17	15.1	473.247	473.968	474.654	474.657	0
1	22102410	144	High	1.5	Precise	1	12	17	2	10.0	15.1	0.0	17	2	12	15.1	0.0	10.0	2	0.515	0.000	L	17	15.1	475.159	476.347	476.862	476.864	0
1	22102410	145	High	1.5	Precise	1	14	15	11	8.1	13.4	1.7	11	14	15	1.7	8.1	13.4	2	1.030	0.001	R	15	13.4	477.366	480.232	481.262	481.264	0
1	22102410	146	High	1.5	Precise	1	4	10	11	5.0	8.4	1.7	4	11	10	5.0	1.7	8.4	1	0.693	0.000	L	4	5.0	481.767	482.393	483.086	483.089	0
1	22102410	147	High	1.5	Vague	2	4	12	22	5.0	10.0	1.4	22	4	12	1.4	5.0	10.0	2	0.800	0.000	R	12	10.0	483.591	485.815	486.614	486.616	0
1	22102410	148	High	1.5	Precise	1	14	10	9	8.1	8.4	3.0	10	14	9	8.4	8.1	3.0	1	0.734	0.000	D	14	8.1	487.119	487.784	488.518	488.520	0
1	22102410	149	High	1.5	Vague	2	15	17	27	13.4	15.1	0.0	15	17	27	13.4	15.1	0.0	2	0.623	0.001	D	17	15.1	489.023	491.079	491.702	491.705	0
1	22102410	150	High	1.5	Precise	1	4	17	11	5.0	15.1	1.7	4	11	17	5.0	1.7	15.1	2	0.476	0.000	R	17	15.1	492.207	494.410	494.886	494.888	0
1	22102410	151	High	1.5	Vague	2	4	17	27	5.0	15.1	0.0	4	27	17	5.0	0.0	15.1	2	0.601	0.000	R	17	15.1	495.391	496.693	497.294	497.297	0
1	22102410	152	High	1.5	Precise	1	10	17	9	8.4	15.1	3.0	9	10	17	3.0	8.4	15.1	2	0.471	0.000	R	17	15.1	497.799	499.639	500.110	500.112	0
1	22102410	153	High	1.5	Precise	1	14	10	13	8.1	8.4	0.0	14	10	13	8.1	8.4	0.0	2	0.784	0.001	D	10	8.4	500.614	503.294	504.078	504.080	0
1	22102410	154	High	1.5	Vague	2	10	12	36	8.4	10.0	0.7	12	10	36	10.0	8.4	0.7	1	0.636	0.000	D	10	8.4	504.583	507.138	507.774	507.776	0
1	22102410	155	High	1.5	Vague	2	14	15	27	8.1	13.4	0.0	27	14	15	0.0	8.1	13.4	1	0.670	0.001	D	14	8.1	508.279	510.544	511.214	511.217	0
1	22102410	156	High	1.5	Precise	1	14	12	7	8.1	10.0	0.0	14	7	12	8.1	0.0	10.0	1	0.740	0.000	L	14	8.1	511.719	514.522	515.262	515.264	0
1	22102410	157	High	1.5	Vague	2	12	17	36	10.0	15.1	0.7	12	17	36	10.0	15.1	0.7	2	0.690	0.001	D	17	15.1	515.767	517.373	518.062	518.065	0
1	22102410	158	High	1.5	Precise	1	14	10	18	8.1	8.4	3.4	18	10	14	3.4	8.4	8.1	2	0.876	0.001	D	10	8.4	518.567	521.194	522.070	522.072	0
1	22102410	159	High	1.5	Precise	1	10	15	13	8.4	13.4	0.0	13	10	15	0.0	8.4	13.4	1	0.614	0.001	D	10	8.4	522.576	523.592	524.206	524.209	0
1	22102410	160	High	1.5	Precise	1	14	12	9	8.1	10.0	3.0	12	9	14	10.0	3.0	8.1	1	0.613	0.000	R	14	8.1	524.712	527.273	527.886	527.888	0
1	22102410	161	High	1.5	Vague	2	10	15	22	8.4	13.4	1.4	10	15	22	8.4	13.4	1.4	2	0.653	0.001	D	15	13.4	528.391	529.890	530.542	530.544	0
1	22102410	162	High	1.5	Vague	2	14	12	25	8.1	10.0	0.0	12	25	14	10.0	0.0	8.1	2	0.526	0.000	L	12	10.0	531.047	533.856	534.382	534.384	0
1	22102410	163	High	1.5	Vague	2	12	15	27	10.0	13.4	0.0	12	15	27	10.0	13.4	0.0	2	1.173	0.000	D	15	13.4	534.887	535.482	536.654	536.657	0
1	22102410	164	High	1.5	Vague	2	12	15	36	10.0	13.4	0.7	15	12	36	13.4	10.0	0.7	1	0.593	0.001	D	12	10.0	537.159	539.709	540.302	540.305	0
1	22102410	165	High	1.5	Precise	1	4	10	18	5.0	8.4	3.4	10	18	4	8.4	3.4	5.0	1	0.805	0.000	R	4	5.0	540.807	541.897	542.702	542.704	0
1	22102410	166	High	1.5	Vague	2	15	17	21	13.4	15.1	1.3	17	15	21	15.1	13.4	1.3	2	0.743	0.000	L	17	15.1	543.207	545.312	546.054	546.057	0
1	22102410	167	High	1.5	Vague	2	14	10	36	8.1	8.4	0.7	10	14	36	8.4	8.1	0.7	2	0.594	0.001	L	10	8.4	546.559	548.380	548.974	548.976	0
1	22102410	168	High	1.5	Vague	2	4	17	36	5.0	15.1	0.7	4	36	17	5.0	0.7	15.1	2	0.613	0.001	R	17	15.1	549.479	552.121	552.734	552.737	0
1	22102410	169	High	1.5	Precise	1	12	17	11	10.0	15.1	1.7	12	17	11	10.0	15.1	1.7	2	0.734	0.000	D	17	15.1	553.239	554.520	555.254	555.256	0
1	22102410	170	High	1.5	Vague	2	4	12	25	5.0	10.0	0.0	12	4	25	10.0	5.0	0.0	2	0.816	0.000	L	12	10.0	555.759	556.902	557.718	557.721	0
1	22102410	171	High	1.5	Vague	2	4	10	27	5.0	8.4	0.0	4	27	10	5.0	0.0	8.4	2	0.810	0.000	R	10	8.4	558.223	560.908	561.718	561.720	0
1	22102410	172	High	1.5	Precise	1	4	17	9	5.0	15.1	3.0	4	9	17	5.0	3.0	15.1	2	0.485	0.000	R	17	15.1	562.223	564.049	564.534	564.536	0
1	22102410	173	High	1.5	Vague	2	12	15	25	10.0	13.4	0.0	15	12	25	13.4	10.0	0.0	1	0.618	0.000	D	12	10.0	565.039	566.468	567.086	567.089	0
1	22102410	174	High	1.5	Vague	2	14	15	23	8.1	13.4	0.0	23	15	14	0.0	13.4	8.1	1	0.483	0.000	R	14	8.1	567.591	569.187	569.670	569.672	0
1	22102410	175	High	1.5	Precise	1	4	14	18	5.0	8.1	3.4	4	14	18	5.0	8.1	3.4	1	0.575	0.001	L	4	5.0	570.176	572.287	572.862	572.865	0
1	22102410	176	High	1.5	Vague	2	4	10	36	5.0	8.4	0.7	36	4	10	0.7	5.0	8.4	3	0.683	0.000	L	36	0.7	573.367	575.483	576.166	576.168	0
1	22102410	177	High	1.5	Vague	2	4	14	27	5.0	8.1	0.0	4	27	14	5.0	0.0	8.1	2	0.463	0.000	R	14	8.1	576.670	578.383	578.846	578.848	0
1	22102410	178	High	1.5	Vague	2	4	14	23	5.0	8.1	0.0	23	4	14	0.0	5.0	8.1	2	0.631	0.001	R	14	8.1	579.351	580.471	581.102	581.105	0
1	22102410	179	High	1.5	Precise	1	10	17	7	8.4	15.1	0.0	10	17	7	8.4	15.1	0.0	2	0.749	0.001	D	17	15.1	581.607	584.289	585.038	585.040	0
1	22102410	180	High	1.5	Precise	1	15	17	13	13.4	15.1	0.0	17	15	13	15.1	13.4	0.0	2	0.671	0.002	L	17	15.1	585.543	588.376	589.047	589.049	0
1	22102410	181	Low	10.0	Precise	1	14	12	8	8.1	10.0	0.0	8	14	12	0.0	8.1	10.0	3	1.275	0.000	L	8	0.0	609.480	611.155	612.430	612.432	0
1	22102410	182	Low	10.0	Vague	2	10	15	19	8.4	13.4	0.8	10	15	19	8.4	13.4	0.8	1	0.951	0.000	L	10	8.4	612.935	615.399	616.350	616.353	0
1	22102410	183	Low	10.0	Vague	2	4	17	35	5.0	15.1	1.3	35	4	17	1.3	5.0	15.1	2	0.816	0.000	R	17	15.1	616.855	618.686	619.502	619.504	0
1	22102410	184	Low	10.0	Vague	2	14	17	30	8.1	15.1	0.0	17	30	14	15.1	0.0	8.1	2	0.734	0.001	L	17	15.1	620.007	622.464	623.198	623.200	0
1	22102410	185	Low	10.0	Vague	2	14	10	19	8.1	8.4	0.8	19	14	10	0.8	8.1	8.4	2	0.994	0.001	R	10	8.4	623.703	626.533	627.526	627.529	0
1	22102410	186	Low	10.0	Vague	2	4	15	26	5.0	13.4	0.0	4	26	15	5.0	0.0	13.4	2	1.319	0.000	R	15	13.4	628.031	628.895	630.214	630.216	0
1	22102410	187	Low	10.0	Vague	2	4	15	24	5.0	13.4	0.0	4	15	24	5.0	13.4	0.0	2	1.350	0.001	D	15	13.4	630.719	632.440	633.790	633.793	0
1	22102410	188	Low	10.0	Vague	2	4	15	30	5.0	13.4	0.0	4	15	30	5.0	13.4	0.0	2	0.958	0.001	D	15	13.4	634.295	635.593	636.550	636.553	0
1	22102410	189	Low	10.0	Precise	1	10	12	3	8.4	10.0	2.1	12	10	3	10.0	8.4	2.1	1	1.454	0.000	D	10	8.4	637.055	639.632	641.086	641.089	0
1	22102410	190	Low	10.0	Vague	2	4	12	35	5.0	10.0	1.3	12	35	4	10.0	1.3	5.0	2	0.898	0.001	L	12	10.0	641.591	642.620	643.518	643.521	0
1	22102410	191	Low	10.0	Precise	1	10	15	16	8.4	13.4	0.0	10	16	15	8.4	0.0	13.4	1	0.745	0.000	L	10	8.4	644.023	645.669	646.414	646.416	0
1	22102410	192	Low	10.0	Precise	1	12	15	6	10.0	13.4	3.3	12	6	15	10.0	3.3	13.4	1	0.647	0.000	L	12	10.0	646.918	648.103	648.750	648.752	0
1	22102410	193	Low	10.0	Precise	1	4	17	6	5.0	15.1	3.3	6	4	17	3.3	5.0	15.1	2	0.620	0.001	R	17	15.1	649.255	651.347	651.966	651.969	0
1	22102410	194	Low	10.0	Precise	1	10	17	6	8.4	15.1	3.3	6	17	10	3.3	15.1	8.4	1	0.692	0.001	R	10	8.4	652.471	654.299	654.990	654.993	0
1	22102410	195	Low	10.0	Vague	2	14	15	35	8.1	13.4	1.3	14	35	15	8.1	1.3	13.4	1	1.187	0.001	L	14	8.1	655.495	657.155	658.342	658.345	0
1	22102410	196	Low	10.0	Precise	1	4	12	1	5.0	10.0	0.0	12	1	4	10.0	0.0	5.0	2	1.200	0.001	L	12	10.0	658.847	659.783	660.982	660.984	0
1	22102410	197	Low	10.0	Vague	2	12	17	35	10.0	15.1	1.3	17	35	12	15.1	1.3	10.0	2	0.648	0.000	L	17	15.1	661.487	663.046	663.694	663.696	0
1	22102410	198	Low	10.0	Precise	1	10	12	6	8.4	10.0	3.3	6	12	10	3.3	10.0	8.4	1	1.018	0.000	R	10	8.4	664.199	665.332	666.350	666.352	0
1	22102410	199	Low	10.0	Precise	1	4	12	3	5.0	10.0	2.1	3	4	12	2.1	5.0	10.0	2	1.000	0.000	R	12	10.0	666.855	669.398	670.398	670.400	0
1	22102410	200	Low	10.0	Precise	1	4	10	1	5.0	8.4	0.0	1	10	4	0.0	8.4	5.0	1	2.376	0.001	R	4	5.0	670.903	671.526	673.902	673.905	0
1	22102410	201	Low	10.0	Vague	2	10	12	24	8.4	10.0	0.0	24	10	12	0.0	8.4	10.0	1	0.723	0.000	D	10	8.4	674.407	676.147	676.870	676.873	0
1	22102410	202	Low	10.0	Precise	1	15	17	1	13.4	15.1	0.0	15	17	1	13.4	15.1	0.0	2	0.953	0.000	D	17	15.1	677.376	678.629	679.582	679.585	0
1	22102410	203	Low	10.0	Precise	1	4	15	1	5.0	13.4	0.0	15	1	4	13.4	0.0	5.0	2	1.024	0.000	L	15	13.4	680.087	682.527	683.550	683.553	0
1	22102410	204	Low	10.0	Precise	1	14	10	8	8.1	8.4	0.0	8	10	14	0.0	8.4	8.1	1	0.685	0.000	R	14	8.1	684.055	686.481	687.166	687.169	0
1	22102410	205	Low	10.0	Vague	2	4	12	19	5.0	10.0	0.8	19	12	4	0.8	10.0	5.0	2	0.644	0.001	D	12	10.0	687.671	689.274	689.918	689.921	0
1	22102410	206	Low	10.0	Vague	2	14	17	20	8.1	15.1	0.0	20	14	17	0.0	8.1	15.1	2	0.765	0.001	R	17	15.1	690.423	691.033	691.798	691.801	0
1	22102410	207	Low	10.0	Vague	2	12	15	30	10.0	13.4	0.0	30	15	12	0.0	13.4	10.0	1	1.723	0.000	R	12	10.0	692.303	694.451	696.174	696.177	0
1	22102410	208	Low	10.0	Precise	1	10	15	8	8.4	13.4	0.0	15	10	8	13.4	8.4	0.0	1	1.022	0.000	D	10	8.4	696.679	698.993	700.014	700.016	0
1	22102410	209	Low	10.0	Vague	2	14	12	30	8.1	10.0	0.0	14	12	30	8.1	10.0	0.0	1	0.969	0.000	L	14	8.1	700.519	703.365	704.334	704.336	0
1	22102410	210	Low	10.0	Precise	1	12	17	1	10.0	15.1	0.0	1	17	12	0.0	15.1	10.0	2	0.749	0.000	D	17	15.1	704.839	706.034	706.782	706.784	0
1	22102410	211	Low	10.0	Vague	2	14	17	35	8.1	15.1	1.3	35	14	17	1.3	8.1	15.1	2	0.630	0.000	R	17	15.1	707.287	709.800	710.430	710.432	0
1	22102410	212	Low	10.0	Vague	2	10	15	24	8.4	13.4	0.0	15	10	24	13.4	8.4	0.0	1	1.527	0.000	D	10	8.4	710.935	712.359	713.886	713.889	0
1	22102410	213	Low	10.0	Precise	1	4	17	5	5.0	15.1	0.0	17	4	5	15.1	5.0	0.0	2	0.687	0.000	L	17	15.1	714.391	715.087	715.774	715.776	0
1	22102410	214	Low	10.0	Precise	1	12	17	8	10.0	15.1	0.0	8	17	12	0.0	15.1	10.0	2	0.842	0.000	D	17	15.1	716.279	719.044	719.886	719.889	0
1	22102410	215	Low	10.0	Precise	1	4	15	8	5.0	13.4	0.0	4	15	8	5.0	13.4	0.0	2	0.806	0.000	D	15	13.4	720.391	722.024	722.830	722.832	0
1	22102410	216	Low	10.0	Precise	1	14	10	16	8.1	8.4	0.0	14	10	16	8.1	8.4	0.0	2	0.944	0.001	D	10	8.4	723.335	724.478	725.422	725.425	0
1	22102410	217	Low	10.0	Precise	1	4	15	5	5.0	13.4	0.0	4	15	5	5.0	13.4	0.0	2	0.818	0.000	D	15	13.4	725.927	726.628	727.446	727.448	0
1	22102410	218	Low	10.0	Vague	2	10	15	35	8.4	13.4	1.3	35	15	10	1.3	13.4	8.4	1	1.181	0.000	R	10	8.4	727.951	730.441	731.622	731.624	0
1	22102410	219	Low	10.0	Vague	2	14	12	26	8.1	10.0	0.0	14	12	26	8.1	10.0	0.0	1	0.987	0.000	L	14	8.1	732.127	733.171	734.158	734.160	0
1	22102410	220	Low	10.0	Precise	1	10	12	5	8.4	10.0	0.0	10	5	12	8.4	0.0	10.0	1	1.274	0.000	L	10	8.4	734.662	735.996	737.270	737.272	0
1	22102410	221	Low	10.0	Vague	2	10	15	26	8.4	13.4	0.0	15	10	26	13.4	8.4	0.0	1	1.246	0.001	D	10	8.4	737.774	740.440	741.686	741.689	0
1	22102410	222	Low	10.0	Vague	2	10	17	24	8.4	15.1	0.0	17	24	10	15.1	0.0	8.4	2	0.740	0.000	L	17	15.1	742.191	743.146	743.886	743.888	0
1	22102410	223	Low	10.0	Vague	2	15	17	30	13.4	15.1	0.0	30	15	17	0.0	13.4	15.1	2	0.646	0.000	R	17	15.1	744.391	746.448	747.094	747.096	0
1	22102410	224	Low	10.0	Precise	1	14	15	1	8.1	13.4	0.0	1	15	14	0.0	13.4	8.1	1	1.219	0.001	R	14	8.1	747.599	748.195	749.414	749.416	0
1	22102410	225	Low	10.0	Vague	2	12	17	30	10.0	15.1	0.0	30	12	17	0.0	10.0	15.1	2	0.564	0.000	R	17	15.1	749.919	752.586	753.150	753.152	0
1	22102410	226	Low	10.0	Precise	1	14	10	6	8.1	8.4	3.3	14	10	6	8.1	8.4	3.3	2	0.827	0.001	D	10	8.4	753.655	754.979	755.807	755.809	0
1	22102410	227	Low	10.0	Precise	1	4	14	8	5.0	8.1	0.0	8	14	4	0.0	8.1	5.0	2	1.234	0.000	D	14	8.1	756.312	757.124	758.358	758.361	0
1	22102410	228	Low	10.0	Vague	2	14	17	24	8.1	15.1	0.0	24	17	14	0.0	15.1	8.1	2	0.674	0.000	D	17	15.1	758.863	759.980	760.654	760.657	0
1	22102410	229	Low	10.0	Precise	1	10	17	16	8.4	15.1	0.0	16	17	10	0.0	15.1	8.4	1	1.554	0.000	R	10	8.4	761.159	763.452	765.006	765.009	0
1	22102410	230	Low	10.0	Precise	1	4	10	16	5.0	8.4	0.0	16	10	4	0.0	8.4	5.0	2	2.217	0.001	D	10	8.4	765.512	766.629	768.846	768.849	0
1	22102410	231	Low	10.0	Precise	1	14	10	5	8.1	8.4	0.0	14	5	10	8.1	0.0	8.4	2	1.500	0.001	R	10	8.4	769.351	770.202	771.702	771.705	0
1	22102410	232	Low	10.0	Vague	2	14	15	30	8.1	13.4	0.0	14	15	30	8.1	13.4	0.0	2	0.822	0.000	D	15	13.4	772.207	774.032	774.854	774.857	0
1	22102410	233	Low	10.0	Vague	2	15	17	20	13.4	15.1	0.0	17	20	15	15.1	0.0	13.4	2	0.674	0.000	L	17	15.1	775.359	778.300	778.974	778.976	0
1	22102410	234	Low	10.0	Precise	1	4	17	1	5.0	15.1	0.0	4	1	17	5.0	0.0	15.1	2	0.596	0.001	R	17	15.1	779.479	781.971	782.566	782.569	0
1	22102410	235	Low	10.0	Precise	1	14	12	16	8.1	10.0	0.0	12	14	16	10.0	8.1	0.0	2	0.951	0.000	L	12	10.0	783.071	784.959	785.910	785.912	0
1	22102410	236	Low	10.0	Precise	1	12	15	8	10.0	13.4	0.0	12	8	15	10.0	0.0	13.4	2	1.224	0.000	R	15	13.4	786.415	787.606	788.830	788.832	0
1	22102410	237	Low	10.0	Vague	2	4	10	26	5.0	8.4	0.0	26	10	4	0.0	8.4	5.0	2	1.157	0.001	D	10	8.4	789.335	790.961	792.118	792.121	0
1	22102410	238	Low	10.0	Vague	2	4	14	19	5.0	8.1	0.8	19	14	4	0.8	8.1	5.0	2	1.748	0.000	D	14	8.1	792.623	793.762	795.510	795.513	0
1	22102410	239	Low	10.0	Vague	2	10	17	26	8.4	15.1	0.0	17	10	26	15.1	8.4	0.0	2	0.985	0.000	L	17	15.1	796.015	798.389	799.374	799.376	0
1	22102410	240	Low	10.0	Precise	1	15	17	3	13.4	15.1	2.1	17	15	3	15.1	13.4	2.1	2	1.115	0.000	L	17	15.1	799.879	800.499	801.614	801.617	0
1	22102410	241	Low	10.0	Precise	1	14	12	3	8.1	10.0	2.1	3	12	14	2.1	10.0	8.1	1	0.806	0.000	R	14	8.1	814.611	816.488	817.294	817.296	0
1	22102410	242	Low	10.0	Precise	1	4	17	8	5.0	15.1	0.0	4	8	17	5.0	0.0	15.1	2	1.164	0.000	R	17	15.1	817.799	819.883	821.046	821.049	0
1	22102410	243	Low	10.0	Vague	2	4	14	35	5.0	8.1	1.3	35	14	4	1.3	8.1	5.0	2	0.863	0.001	D	14	8.1	821.551	823.295	824.158	824.160	0
1	22102410	244	Low	10.0	Vague	2	14	15	24	8.1	13.4	0.0	14	15	24	8.1	13.4	0.0	1	1.050	0.000	L	14	8.1	824.663	826.460	827.510	827.513	0
1	22102410	245	Low	10.0	Precise	1	4	17	16	5.0	15.1	0.0	16	4	17	0.0	5.0	15.1	2	0.671	0.000	R	17	15.1	828.015	830.368	831.038	831.041	0
1	22102410	246	Low	10.0	Vague	2	12	17	24	10.0	15.1	0.0	12	24	17	10.0	0.0	15.1	2	0.591	0.001	R	17	15.1	831.543	832.887	833.478	833.480	0
1	22102410	247	Low	10.0	Vague	2	14	17	26	8.1	15.1	0.0	26	17	14	0.0	15.1	8.1	2	0.802	0.000	D	17	15.1	833.983	836.388	837.191	837.193	0
1	22102410	248	Low	10.0	Precise	1	4	14	3	5.0	8.1	2.1	3	14	4	2.1	8.1	5.0	2	0.662	0.000	D	14	8.1	837.695	839.512	840.174	840.177	0
1	22102410	249	Low	10.0	Precise	1	10	15	3	8.4	13.4	2.1	15	3	10	13.4	2.1	8.4	2	1.261	0.000	L	15	13.4	840.679	841.409	842.670	842.673	0
1	22102410	250	Low	10.0	Precise	1	14	15	5	8.1	13.4	0.0	14	15	5	8.1	13.4	0.0	1	0.925	0.001	L	14	8.1	843.176	844.922	845.846	845.849	0
1	22102410	251	Low	10.0	Vague	2	4	14	24	5.0	8.1	0.0	4	14	24	5.0	8.1	0.0	2	0.856	0.001	D	14	8.1	846.351	848.902	849.758	849.761	0
1	22102410	252	Low	10.0	Precise	1	15	17	8	13.4	15.1	0.0	15	17	8	13.4	15.1	0.0	2	0.633	0.000	D	17	15.1	850.263	851.509	852.142	852.145	0
1	22102410	253	Low	10.0	Precise	1	14	17	3	8.1	15.1	2.1	17	3	14	15.1	2.1	8.1	2	0.585	0.000	L	17	15.1	852.647	854.213	854.798	854.800	0
1	22102410	254	Low	10.0	Vague	2	4	10	20	5.0	8.4	0.0	4	20	10	5.0	0.0	8.4	2	1.180	0.000	R	10	8.4	855.303	857.250	858.430	858.432	0
1	22102410	255	Low	10.0	Precise	1	10	15	6	8.4	13.4	3.3	15	6	10	13.4	3.3	8.4	1	0.756	0.001	R	10	8.4	858.935	860.907	861.662	861.665	0
1	22102410	256	Low	10.0	Vague	2	10	17	30	8.4	15.1	0.0	30	17	10	0.0	15.1	8.4	1	0.600	0.000	R	10	8.4	862.167	862.671	863.270	863.272	0
1	22102410	257	Low	10.0	Vague	2	14	10	24	8.1	8.4	0.0	24	10	14	0.0	8.4	8.1	2	0.639	0.000	D	10	8.4	863.775	866.471	867.110	867.113	0
1	22102410	258	Low	10.0	Vague	2	15	17	24	13.4	15.1	0.0	17	24	15	15.1	0.0	13.4	2	0.749	0.001	L	17	15.1	867.615	868.674	869.422	869.425	0
1	22102410	259	Low	10.0	Vague	2	10	17	20	8.4	15.1	0.0	10	20	17	8.4	0.0	15.1	2	0.799	0.000	R	17	15.1	869.927	872.151	872.950	872.953	0
1	22102410	260	Low	10.0	Vague	2	4	15	19	5.0	13.4	0.8	4	15	19	5.0	13.4	0.8	2	1.674	0.000	D	15	13.4	873.455	875.284	876.958	876.961	0
1	22102410	261	Low	10.0	Precise	1	12	17	16	10.0	15.1	0.0	12	16	17	10.0	0.0	15.1	2	0.903	0.001	R	17	15.1	877.463	879.480	880.383	880.385	0
1	22102410	262	Low	10.0	Vague	2	10	12	35	8.4	10.0	1.3	12	10	35	10.0	8.4	1.3	1	0.783	0.000	D	10	8.4	880.887	883.160	883.942	883.945	0
1	22102410	263	Low	10.0	Precise	1	10	12	8	8.4	10.0	0.0	10	12	8	8.4	10.0	0.0	2	1.405	0.000	D	12	10.0	884.447	886.169	887.574	887.577	0
1	22102410	264	Low	10.0	Precise	1	14	17	6	8.1	15.1	3.3	17	6	14	15.1	3.3	8.1	2	0.672	0.000	L	17	15.1	888.079	890.606	891.278	891.280	0
1	22102410	265	Low	10.0	Vague	2	14	17	19	8.1	15.1	0.8	14	19	17	8.1	0.8	15.1	2	0.571	0.000	R	17	15.1	891.783	892.419	892.990	892.993	0
1	22102410	266	Low	10.0	Vague	2	12	15	20	10.0	13.4	0.0	12	20	15	10.0	0.0	13.4	2	1.529	0.000	R	15	13.4	893.496	895.829	897.358	897.361	0
1	22102410	267	Low	10.0	Precise	1	4	17	3	5.0	15.1	2.1	4	17	3	5.0	15.1	2.1	2	0.563	0.000	D	17	15.1	897.863	900.027	900.590	900.593	0
1	22102410	268	Low	10.0	Precise	1	14	12	6	8.1	10.0	3.3	14	6	12	8.1	3.3	10.0	1	1.312	0.000	L	14	8.1	901.095	902.190	903.502	903.505	0
1	22102410	269	Low	10.0	Vague	2	4	10	35	5.0	8.4	1.3	35	4	10	1.3	5.0	8.4	2	1.059	0.001	R	10	8.4	904.007	906.164	907.223	907.225	0
1	22102410	270	Low	10.0	Precise	1	10	17	5	8.4	15.1	0.0	17	5	10	15.1	0.0	8.4	2	0.627	0.001	L	17	15.1	907.727	908.884	909.510	909.513	0
1	22102410	271	Low	10.0	Vague	2	14	15	26	8.1	13.4	0.0	26	14	15	0.0	8.1	13.4	2	0.850	0.001	R	15	13.4	910.015	911.916	912.766	912.769	0
1	22102410	272	Low	10.0	Precise	1	4	10	5	5.0	8.4	0.0	4	10	5	5.0	8.4	0.0	2	0.889	0.000	D	10	8.4	913.271	913.821	914.710	914.712	0
1	22102410	273	Low	10.0	Vague	2	4	17	30	5.0	15.1	0.0	30	4	17	0.0	5.0	15.1	2	0.525	0.000	R	17	15.1	915.215	916.497	917.022	917.025	0
1	22102410	274	Low	10.0	Vague	2	12	15	35	10.0	13.4	1.3	12	15	35	10.0	13.4	1.3	2	2.161	0.000	D	15	13.4	917.527	918.573	920.734	920.736	0
1	22102410	275	Low	10.0	Precise	1	12	17	5	10.0	15.1	0.0	17	5	12	15.1	0.0	10.0	2	0.730	0.001	L	17	15.1	921.239	923.589	924.318	924.321	0
1	22102410	276	Low	10.0	Vague	2	4	14	20	5.0	8.1	0.0	20	14	4	0.0	8.1	5.0	1	0.919	0.000	R	4	5.0	924.823	927.775	928.694	928.696	0
1	22102410	277	Low	10.0	Precise	1	14	10	3	8.1	8.4	2.1	3	14	10	2.1	8.1	8.4	2	0.744	0.001	R	10	8.4	929.199	930.415	931.158	931.161	0
1	22102410	278	Low	10.0	Vague	2	10	17	19	8.4	15.1	0.8	10	19	17	8.4	0.8	15.1	2	0.552	0.000	R	17	15.1	931.663	933.486	934.038	934.040	0
1	22102410	279	Low	10.0	Precise	1	4	15	3	5.0	13.4	2.1	4	15	3	5.0	13.4	2.1	2	1.476	0.000	D	15	13.4	934.543	935.738	937.215	937.217	0
1	22102410	280	Low	10.0	Vague	2	4	17	20	5.0	15.1	0.0	20	4	17	0.0	5.0	15.1	2	0.683	0.000	R	17	15.1	937.720	939.715	940.398	940.400	0
1	22102410	281	Low	10.0	Precise	1	10	15	5	8.4	13.4	0.0	5	10	15	0.0	8.4	13.4	2	1.130	0.001	R	15	13.4	940.903	941.828	942.958	942.960	0
1	22102410	282	Low	10.0	Vague	2	4	17	24	5.0	15.1	0.0	24	4	17	0.0	5.0	15.1	2	1.766	0.001	R	17	15.1	943.463	946.377	948.142	948.145	0
1	22102410	283	Low	10.0	Precise	1	10	17	1	8.4	15.1	0.0	10	1	17	8.4	0.0	15.1	2	0.532	0.000	R	17	15.1	948.647	950.595	951.126	951.129	0
1	22102410	284	Low	10.0	Precise	1	12	15	3	10.0	13.4	2.1	12	15	3	10.0	13.4	2.1	1	2.599	0.000	L	12	10.0	951.631	952.871	955.470	955.473	0
1	22102410	285	Low	10.0	Vague	2	10	15	20	8.4	13.4	0.0	10	20	15	8.4	0.0	13.4	2	0.957	0.000	R	15	13.4	955.975	956.761	957.718	957.720	0
1	22102410	286	Low	10.0	Precise	1	14	17	1	8.1	15.1	0.0	14	17	1	8.1	15.1	0.0	2	0.601	0.001	D	17	15.1	958.223	960.029	960.630	960.633	0
1	22102410	287	Low	10.0	Vague	2	14	12	20	8.1	10.0	0.0	20	12	14	0.0	10.0	8.1	2	2.057	0.001	D	12	10.0	961.135	962.998	965.055	965.057	0
1	22102410	288	Low	10.0	Vague	2	4	12	26	5.0	10.0	0.0	26	4	12	0.0	5.0	10.0	2	1.427	0.001	R	12	10.0	965.560	967.148	968.575	968.577	0
1	22102410	289	Low	10.0	Precise	1	14	12	5	8.1	10.0	0.0	14	5	12	8.1	0.0	10.0	2	1.187	0.001	R	12	10.0	969.079	971.660	972.847	972.849	0
1	22102410	290	Low	10.0	Precise	1	12	15	1	10.0	13.4	0.0	1	12	15	0.0	10.0	13.4	2	1.617	0.000	R	15	13.4	973.352	975.053	976.670	976.673	0
1	22102410	291	Low	10.0	Precise	1	4	14	1	5.0	8.1	0.0	14	1	4	8.1	0.0	5.0	2	1.350	0.000	L	14	8.1	977.175	978.608	979.958	979.961	0
1	22102410	292	Low	10.0	Vague	2	12	17	26	10.0	15.1	0.0	17	12	26	15.1	10.0	0.0	2	0.850	0.001	L	17	15.1	980.463	982.941	983.791	983.793	0
1	22102410	293	Low	10.0	Vague	2	14	12	19	8.1	10.0	0.8	12	14	19	10.0	8.1	0.8	2	0.880	0.001	L	12	10.0	984.295	985.654	986.534	986.537	0
1	22102410	294	Low	10.0	Precise	1	4	15	6	5.0	13.4	3.3	6	4	15	3.3	5.0	13.4	2	1.731	0.000	R	15	13.4	987.039	987.771	989.502	989.505	0
1	22102410	295	Low	10.0	Precise	1	4	15	16	5.0	13.4	0.0	4	16	15	5.0	0.0	13.4	2	1.438	0.000	R	15	13.4	990.007	992.881	994.318	994.321	0
1	22102410	296	Low	10.0	Precise	1	14	17	16	8.1	15.1	0.0	14	16	17	8.1	0.0	15.1	2	0.626	0.001	R	17	15.1	994.823	996.029	996.654	996.657	0
1	22102410	297	Low	10.0	Precise	1	10	17	8	8.4	15.1	0.0	8	10	17	0.0	8.4	15.1	2	0.579	0.001	R	17	15.1	997.160	999.228	999.807	999.810	0
1	22102410	298	Low	10.0	Precise	1	4	12	8	5.0	10.0	0.0	12	8	4	10.0	0.0	5.0	2	1.453	0.000	L	12	10.0	1000.312	1002.242	1003.694	1003.697	0
1	22102410	299	Low	10.0	Precise	1	14	15	3	8.1	13.4	2.1	3	14	15	2.1	8.1	13.4	2	1.499	0.000	R	15	13.4	1004.199	1006.084	1007.582	1007.585	0
1	22102410	300	Low	10.0	Vague	2	15	17	35	13.4	15.1	1.3	35	17	15	1.3	15.1	13.4	2	0.951	0.001	D	17	15.1	1008.087	1008.639	1009.591	1009.593	0
1	22102410	301	Low	10.0	Vague	2	12	15	19	10.0	13.4	0.8	19	15	12	0.8	13.4	10.0	1	1.383	0.001	R	12	10.0	1015.105	1016.312	1017.695	1017.697	0
1	22102410	302	Low	10.0	Vague	2	14	10	26	8.1	8.4	0.0	10	26	14	8.4	0.0	8.1	1	1.042	0.001	R	14	8.1	1018.200	1020.076	1021.118	1021.121	0
1	22102410	303	Low	10.0	Vague	2	4	15	35	5.0	13.4	1.3	35	15	4	1.3	13.4	5.0	2	2.086	0.001	D	15	13.4	1021.623	1023.081	1025.167	1025.169	0
1	22102410	304	Low	10.0	Vague	2	14	15	20	8.1	13.4	0.0	14	15	20	8.1	13.4	0.0	1	0.976	0.001	L	14	8.1	1025.672	1027.022	1027.998	1028.001	0
1	22102410	305	Low	10.0	Precise	1	14	17	5	8.1	15.1	0.0	5	14	17	0.0	8.1	15.1	2	0.613	0.000	R	17	15.1	1028.503	1030.353	1030.966	1030.968	0
1	22102410	306	Low	10.0	Precise	1	4	12	5	5.0	10.0	0.0	5	4	12	0.0	5.0	10.0	2	1.142	0.001	R	12	10.0	1031.471	1033.945	1035.087	1035.089	0
1	22102410	307	Low	10.0	Precise	1	10	12	1	8.4	10.0	0.0	1	12	10	0.0	10.0	8.4	1	0.956	0.001	R	10	8.4	1035.591	1038.043	1038.999	1039.001	0
1	22102410	308	Low	10.0	Vague	2	4	14	26	5.0	8.1	0.0	26	14	4	0.0	8.1	5.0	2	1.439	0.001	D	14	8.1	1039.503	1040.711	1042.150	1042.153	0
1	22102410	309	Low	10.0	Vague	2	4	12	30	5.0	10.0	0.0	4	30	12	5.0	0.0	10.0	2	1.315	0.001	R	12	10.0	1042.656	1043.260	1044.574	1044.577	0
1	22102410	310	Low	10.0	Precise	1	15	17	5	13.4	15.1	0.0	17	15	5	15.1	13.4	0.0	2	0.693	0.000	L	17	15.1	1045.079	1047.785	1048.478	1048.481	0
1	22102410	311	Low	10.0	Precise	1	10	12	16	8.4	10.0	0.0	12	16	10	10.0	0.0	8.4	2	0.887	0.000	L	12	10.0	1048.983	1051.704	1052.591	1052.593	0
1	22102410	312	Low	10.0	Precise	1	4	14	5	5.0	8.1	0.0	14	4	5	8.1	5.0	0.0	2	0.812	0.000	L	14	8.1	1053.096	1055.147	1055.958	1055.961	0
1	22102410	313	Low	10.0	Vague	2	10	12	20	8.4	10.0	0.0	20	12	10	0.0	10.0	8.4	1	0.954	0.001	R	10	8.4	1056.463	1058.572	1059.527	1059.529	0
1	22102410	314	Low	10.0	Precise	1	14	15	16	8.1	13.4	0.0	16	15	14	0.0	13.4	8.1	2	1.834	0.001	D	15	13.4	1060.031	1062.772	1064.607	1064.609	0
1	22102410	315	Low	10.0	Vague	2	4	10	24	5.0	8.4	0.0	24	10	4	0.0	8.4	5.0	2	0.838	0.001	D	10	8.4	1065.111	1066.168	1067.007	1067.009	0
1	22102410	316	Low	10.0	Precise	1	14	12	1	8.1	10.0	0.0	12	14	1	10.0	8.1	0.0	2	1.425	0.000	L	12	10.0	1067.511	1070.150	1071.574	1071.577	0
1	22102410	317	Low	10.0	Vague	2	14	12	35	8.1	10.0	1.3	35	12	14	1.3	10.0	8.1	2	1.473	0.001	D	12	10.0	1072.079	1072.813	1074.286	1074.289	0
1	22102410	318	Low	10.0	Precise	1	12	17	6	10.0	15.1	3.3	6	12	17	3.3	10.0	15.1	2	0.649	0.001	R	17	15.1	1074.791	1076.037	1076.687	1076.689	0
1	22102410	319	Low	10.0	Precise	1	4	14	6	5.0	8.1	3.3	6	14	4	3.3	8.1	5.0	2	1.084	0.000	D	14	8.1	1077.191	1078.562	1079.646	1079.649	0
1	22102410	320	Low	10.0	Precise	1	15	17	6	13.4	15.1	3.3	15	17	6	13.4	15.1	3.3	2	0.709	0.000	D	17	15.1	1080.151	1082.417	1083.126	1083.129	0
1	22102410	321	Low	10.0	Precise	1	14	15	6	8.1	13.4	3.3	15	6	14	13.4	3.3	8.1	1	0.917	0.001	R	14	8.1	1083.631	1085.778	1086.695	1086.697	0
1	22102410	322	Low	10.0	Vague	2	4	15	20	5.0	13.4	0.0	15	20	4	13.4	0.0	5.0	2	1.632	0.000	L	15	13.4	1087.199	1087.950	1089.582	1089.585	0
1	22102410	323	Low	10.0	Vague	2	15	17	26	13.4	15.1	0.0	17	26	15	15.1	0.0	13.4	2	0.833	0.000	L	17	15.1	1090.087	1090.797	1091.630	1091.633	0
1	22102410	324	Low	10.0	Precise	1	15	17	16	13.4	15.1	0.0	15	17	16	13.4	15.1	0.0	2	0.665	0.000	D	17	15.1	1092.135	1092.974	1093.638	1093.641	0
1	22102410	325	Low	10.0	Vague	2	12	17	19	10.0	15.1	0.8	19	17	12	0.8	15.1	10.0	2	0.630	0.000	D	17	15.1	1094.143	1095.272	1095.902	1095.904	0
1	22102410	326	Low	10.0	Vague	2	14	10	35	8.1	8.4	1.3	14	10	35	8.1	8.4	1.3	1	0.865	0.000	L	14	8.1	1096.407	1098.782	1099.647	1099.649	0
1	22102410	327	Low	10.0	Vague	2	14	12	24	8.1	10.0	0.0	12	14	24	10.0	8.1	0.0	2	0.774	0.000	L	12	10.0	1100.151	1100.984	1101.758	1101.761	0
1	22102410	328	Low	10.0	Vague	2	15	17	19	13.4	15.1	0.8	19	15	17	0.8	13.4	15.1	2	0.638	0.001	R	17	15.1	1102.263	1103.352	1103.991	1103.993	0
1	22102410	329	Low	10.0	Vague	2	12	15	24	10.0	13.4	0.0	24	15	12	0.0	13.4	10.0	2	1.495	0.001	D	15	13.4	1104.496	1107.207	1108.703	1108.705	0
1	22102410	330	Low	10.0	Vague	2	10	12	19	8.4	10.0	0.8	19	12	10	0.8	10.0	8.4	1	0.749	0.001	R	10	8.4	1109.207	1109.793	1110.543	1110.545	0
1	22102410	331	Low	10.0	Vague	2	4	14	30	5.0	8.1	0.0	4	14	30	5.0	8.1	0.0	2	1.265	0.000	D	14	8.1	1111.047	1111.733	1112.999	1113.001	0
1	22102410	332	Low	10.0	Vague	2	10	12	26	8.4	10.0	0.0	26	10	12	0.0	8.4	10.0	1	0.732	0.000	D	10	8.4	1113.503	1115.131	1115.863	1115.865	0
1	22102410	333	Low	10.0	Vague	2	10	12	30	8.4	10.0	0.0	10	30	12	8.4	0.0	10.0	2	1.321	0.001	R	12	10.0	1116.367	1117.110	1118.431	1118.433	0
1	22102410	334	Low	10.0	Vague	2	4	12	24	5.0	10.0	0.0	24	4	12	0.0	5.0	10.0	2	0.930	0.001	R	12	10.0	1118.935	1119.629	1120.559	1120.561	0
1	22102410	335	Low	10.0	Vague	2	12	17	20	10.0	15.1	0.0	12	20	17	10.0	0.0	15.1	2	0.592	0.000	R	17	15.1	1121.063	1123.535	1124.126	1124.129	0
1	22102410	336	Low	10.0	Precise	1	4	10	3	5.0	8.4	2.1	3	10	4	2.1	8.4	5.0	2	1.101	0.000	D	10	8.4	1124.631	1125.282	1126.382	1126.385	0
1	22102410	337	Low	10.0	Vague	2	14	10	20	8.1	8.4	0.0	20	10	14	0.0	8.4	8.1	1	0.888	0.000	R	14	8.1	1126.887	1128.446	1129.334	1129.337	0
1	22102410	338	Low	10.0	Vague	2	4	10	19	5.0	8.4	0.8	19	4	10	0.8	5.0	8.4	2	0.862	0.000	R	10	8.4	1129.839	1130.785	1131.647	1131.649	0
1	22102410	339	Low	10.0	Precise	1	14	10	1	8.1	8.4	0.0	10	1	14	8.4	0.0	8.1	1	0.966	0.001	R	14	8.1	1132.151	1133.105	1134.071	1134.073	0
1	22102410	340	Low	10.0	Precise	1	14	15	8	8.1	13.4	0.0	15	8	14	13.4	0.0	8.1	1	1.667	0.000	R	14	8.1	1134.575	1136.083	1137.750	1137.753	0
1	22102410	341	Low	10.0	Vague	2	14	15	19	8.1	13.4	0.8	14	15	19	8.1	13.4	0.8	1	0.607	0.000	L	14	8.1	1138.255	1141.128	1141.735	1141.737	0
1	22102410	342	Low	10.0	Precise	1	10	15	1	8.4	13.4	0.0	1	15	10	0.0	13.4	8.4	1	1.003	0.000	R	10	8.4	1142.239	1144.203	1145.206	1145.209	0
1	22102410	343	Low	10.0	Precise	1	12	15	5	10.0	13.4	0.0	12	5	15	10.0	0.0	13.4	2	1.361	0.001	R	15	13.4	1145.711	1147.222	1148.583	1148.585	0
1	22102410	344	Low	10.0	Precise	1	4	10	6	5.0	8.4	3.3	10	6	4	8.4	3.3	5.0	2	0.985	0.000	L	10	8.4	1149.087	1150.765	1151.750	1151.753	0
1	22102410	345	Low	10.0	Precise	1	4	12	6	5.0	10.0	3.3	6	4	12	3.3	5.0	10.0	2	1.094	0.000	R	12	10.0	1152.255	1155.080	1156.174	1156.177	0
1	22102410	346	Low	10.0	Precise	1	12	17	3	10.0	15.1	2.1	12	3	17	10.0	2.1	15.1	2	0.676	0.000	R	17	15.1	1156.680	1158.867	1159.543	1159.545	0
1	22102410	347	Low	10.0	Precise	1	4	12	16	5.0	10.0	0.0	12	4	16	10.0	5.0	0.0	2	1.860	0.000	L	12	10.0	1160.047	1162.290	1164.150	1164.153	0
1	22102410	348	Low	10.0	Vague	2	12	15	26	10.0	13.4	0.0	12	15	26	10.0	13.4	0.0	1	1.462	0.000	L	12	10.0	1164.655	1165.640	1167.102	1167.105	0
1	22102410	349	Low	10.0	Vague	2	4	10	30	5.0	8.4	0.0	10	4	30	8.4	5.0	0.0	2	0.958	0.000	L	10	8.4	1167.607	1169.160	1170.119	1170.121	0
1	22102410	350	Low	10.0	Vague	2	10	15	30	8.4	13.4	0.0	30	15	10	0.0	13.4	8.4	1	0.761	0.000	R	10	8.4	1170.623	1171.717	1172.478	1172.481	0
1	22102410	351	Low	10.0	Vague	2	10	17	35	8.4	15.1	1.3	17	10	35	15.1	8.4	1.3	2	0.582	0.001	L	17	15.1	1172.983	1173.704	1174.287	1174.289	0
1	22102410	352	Low	10.0	Vague	2	4	12	20	5.0	10.0	0.0	4	12	20	5.0	10.0	0.0	2	1.227	0.001	D	12	10.0	1174.791	1175.347	1176.575	1176.577	0
1	22102410	353	Low	10.0	Precise	1	12	15	16	10.0	13.4	0.0	12	16	15	10.0	0.0	13.4	2	0.829	0.000	R	15	13.4	1177.079	1177.665	1178.494	1178.497	0
1	22102410	354	Low	10.0	Precise	1	14	17	8	8.1	15.1	0.0	8	14	17	0.0	8.1	15.1	2	0.588	0.000	R	17	15.1	1178.999	1180.899	1181.487	1181.489	0
1	22102410	355	Low	10.0	Precise	1	4	14	16	5.0	8.1	0.0	14	16	4	8.1	0.0	5.0	2	1.209	0.000	L	14	8.1	1181.991	1182.958	1184.166	1184.169	0
1	22102410	356	Low	10.0	Vague	2	4	17	26	5.0	15.1	0.0	17	4	26	15.1	5.0	0.0	2	0.657	0.001	L	17	15.1	1184.671	1187.661	1188.318	1188.321	0
1	22102410	357	Low	10.0	Precise	1	10	17	3	8.4	15.1	2.1	10	17	3	8.4	15.1	2.1	1	0.726	0.000	L	10	8.4	1188.823	1191.657	1192.383	1192.385	0
1	22102410	358	Low	10.0	Precise	1	4	10	8	5.0	8.4	0.0	8	10	4	0.0	8.4	5.0	2	0.844	0.001	D	10	8.4	1192.887	1195.387	1196.231	1196.233	0
1	22102410	359	Low	10.0	Vague	2	4	17	19	5.0	15.1	0.8	17	19	4	15.1	0.8	5.0	2	0.561	0.000	L	17	15.1	1196.735	1198.349	1198.910	1198.913	0
1	22102410	360	Low	10.0	Vague	2	14	10	30	8.1	8.4	0.0	30	14	10	0.0	8.1	8.4	2	0.737	0.000	R	10	8.4	1199.415	1199.965	1200.702	1200.705	0
