Group	subID	trial	TimePressure	TimeConstraint	Vagueness	Vaguenesscode	ID1	ID2	ID3	V1	V2	V3	ID_left	ID_middle	ID_right	Bid_left	Bid_middle	Bid_right	chosenItem	RT	RTvariance	chosenPosition	chosenID	chosenValue	fixation_time	option_time	choice_time	feedback_time	timeout
2	22102703	1	Low	10.0	Vague	2	28	33	4	1.8	3.8	0.3	33	4	28	3.8	0.3	1.8	1	1.744	0.000	R	28	1.8	4.384	6.947	8.691	8.695	0
2	22102703	2	Low	10.0	Precise	1	28	36	20	1.8	2.4	0.0	36	28	20	2.4	1.8	0.0	2	1.168	0.001	L	36	2.4	9.200	11.267	12.435	12.438	0
2	22102703	3	Low	10.0	Precise	1	28	33	25	1.8	3.8	0.5	33	25	28	3.8	0.5	1.8	1	1.791	0.001	R	28	1.8	12.943	14.956	16.748	16.750	0
2	22102703	4	Low	10.0	Precise	1	36	34	29	2.4	4.9	0.6	34	36	29	4.9	2.4	0.6	2	0.947	0.001	L	34	4.9	17.254	19.376	20.323	20.326	0
2	22102703	5	Low	10.0	Vague	2	28	34	6	1.8	4.9	0.3	34	6	28	4.9	0.3	1.8	2	0.488	0.000	L	34	4.9	20.830	22.371	22.859	22.864	0
2	22102703	6	Low	10.0	Vague	2	36	33	2	2.4	3.8	0.0	33	2	36	3.8	0.0	2.4	1	1.758	0.000	R	36	2.4	23.374	23.997	25.755	25.758	0
2	22102703	7	Low	10.0	Precise	1	27	36	29	1.6	2.4	0.6	27	29	36	1.6	0.6	2.4	2	1.910	0.001	R	36	2.4	26.261	28.517	30.427	30.430	0
2	22102703	8	Low	10.0	Precise	1	28	36	29	1.8	2.4	0.6	36	28	29	2.4	1.8	0.6	2	1.443	0.000	L	36	2.4	30.932	32.479	33.923	33.925	0
2	22102703	9	Low	10.0	Vague	2	22	28	2	1.4	1.8	0.0	28	2	22	1.8	0.0	1.4	1	1.466	0.001	R	22	1.4	34.428	35.801	37.267	37.270	0
2	22102703	10	Low	10.0	Precise	1	22	27	20	1.4	1.6	0.0	27	22	20	1.6	1.4	0.0	1	1.280	0.001	D	22	1.4	37.772	40.339	41.619	41.622	0
2	22102703	11	Low	10.0	Precise	1	22	28	30	1.4	1.8	0.3	30	28	22	0.3	1.8	1.4	1	1.285	0.000	R	22	1.4	42.124	44.799	46.083	46.086	0
2	22102703	12	Low	10.0	Vague	2	28	33	2	1.8	3.8	0.0	28	33	2	1.8	3.8	0.0	1	1.112	0.000	L	28	1.8	46.588	49.347	50.459	50.462	0
2	22102703	13	Low	10.0	Vague	2	36	33	4	2.4	3.8	0.3	36	33	4	2.4	3.8	0.3	1	0.861	0.000	L	36	2.4	50.965	53.654	54.515	54.518	0
2	22102703	14	Low	10.0	Vague	2	28	36	2	1.8	2.4	0.0	2	28	36	0.0	1.8	2.4	2	0.624	0.001	R	36	2.4	55.021	57.660	58.283	58.286	0
2	22102703	15	Low	10.0	Precise	1	33	34	19	3.8	4.9	0.1	34	19	33	4.9	0.1	3.8	2	0.884	0.000	L	34	4.9	58.788	59.398	60.283	60.285	0
2	22102703	16	Low	10.0	Vague	2	22	27	6	1.4	1.6	0.3	27	6	22	1.6	0.3	1.4	1	1.314	0.001	R	22	1.4	60.788	61.730	63.043	63.046	0
2	22102703	17	Low	10.0	Precise	1	27	36	25	1.6	2.4	0.5	27	36	25	1.6	2.4	0.5	2	1.148	0.000	D	36	2.4	63.548	66.239	67.387	67.389	0
2	22102703	18	Low	10.0	Vague	2	27	34	7	1.6	4.9	0.7	34	27	7	4.9	1.6	0.7	2	0.859	0.000	L	34	4.9	67.892	69.496	70.355	70.357	0
2	22102703	19	Low	10.0	Precise	1	33	34	20	3.8	4.9	0.0	33	20	34	3.8	0.0	4.9	2	0.659	0.001	R	34	4.9	70.860	72.552	73.211	73.214	0
2	22102703	20	Low	10.0	Precise	1	27	28	19	1.6	1.8	0.1	27	28	19	1.6	1.8	0.1	2	1.111	0.001	D	28	1.8	73.717	76.412	77.523	77.526	0
2	22102703	21	Low	10.0	Precise	1	36	33	20	2.4	3.8	0.0	20	36	33	0.0	2.4	3.8	1	0.769	0.000	D	36	2.4	78.028	78.874	79.643	79.645	0
2	22102703	22	Low	10.0	Precise	1	22	34	29	1.4	4.9	0.6	22	34	29	1.4	4.9	0.6	1	0.990	0.000	L	22	1.4	80.148	81.309	82.299	82.301	0
2	22102703	23	Low	10.0	Precise	1	28	34	25	1.8	4.9	0.5	28	25	34	1.8	0.5	4.9	2	1.044	0.000	R	34	4.9	82.804	84.286	85.331	85.333	0
2	22102703	24	Low	10.0	Precise	1	33	34	25	3.8	4.9	0.5	25	33	34	0.5	3.8	4.9	2	0.798	0.001	R	34	4.9	85.836	87.421	88.219	88.222	0
2	22102703	25	Low	10.0	Vague	2	22	33	9	1.4	3.8	0.6	9	33	22	0.6	3.8	1.4	1	1.376	0.001	R	22	1.4	88.725	89.579	90.955	90.958	0
2	22102703	26	Low	10.0	Precise	1	27	33	30	1.6	3.8	0.3	30	27	33	0.3	1.6	3.8	1	1.100	0.000	D	27	1.6	91.460	92.607	93.707	93.710	0
2	22102703	27	Low	10.0	Vague	2	36	34	4	2.4	4.9	0.3	36	34	4	2.4	4.9	0.3	1	0.909	0.000	L	36	2.4	94.212	95.774	96.683	96.686	0
2	22102703	28	Low	10.0	Vague	2	22	33	4	1.4	3.8	0.3	4	22	33	0.3	1.4	3.8	1	1.007	0.000	D	22	1.4	97.189	100.084	101.091	101.094	0
2	22102703	29	Low	10.0	Vague	2	27	36	8	1.6	2.4	0.4	36	8	27	2.4	0.4	1.6	2	1.534	0.000	L	36	2.4	101.596	103.813	105.347	105.349	0
2	22102703	30	Low	10.0	Precise	1	28	36	25	1.8	2.4	0.5	36	28	25	2.4	1.8	0.5	2	0.634	0.001	L	36	2.4	105.853	108.649	109.283	109.286	0
2	22102703	31	Low	10.0	Precise	1	36	34	30	2.4	4.9	0.3	30	34	36	0.3	4.9	2.4	1	0.844	0.001	R	36	2.4	109.789	110.983	111.827	111.830	0
2	22102703	32	Low	10.0	Precise	1	27	33	25	1.6	3.8	0.5	27	33	25	1.6	3.8	0.5	1	1.189	0.001	L	27	1.6	112.333	113.582	114.771	114.774	0
2	22102703	33	Low	10.0	Vague	2	27	28	6	1.6	1.8	0.3	6	27	28	0.3	1.6	1.8	1	1.313	0.000	D	27	1.6	115.277	115.938	117.251	117.253	0
2	22102703	34	Low	10.0	Vague	2	22	28	8	1.4	1.8	0.4	8	28	22	0.4	1.8	1.4	1	1.628	0.001	R	22	1.4	117.756	120.183	121.811	121.814	0
2	22102703	35	Low	10.0	Vague	2	27	33	4	1.6	3.8	0.3	27	4	33	1.6	0.3	3.8	1	1.266	0.000	L	27	1.6	122.317	124.784	126.051	126.053	0
2	22102703	36	Low	10.0	Vague	2	27	34	4	1.6	4.9	0.3	4	34	27	0.3	4.9	1.6	2	1.106	0.000	D	34	4.9	126.556	129.121	130.227	130.229	0
2	22102703	37	Low	10.0	Precise	1	22	33	20	1.4	3.8	0.0	20	22	33	0.0	1.4	3.8	1	0.830	0.001	D	22	1.4	130.732	133.269	134.099	134.102	0
2	22102703	38	Low	10.0	Vague	2	28	33	8	1.8	3.8	0.4	33	8	28	3.8	0.4	1.8	1	1.739	0.000	R	28	1.8	134.605	137.271	139.011	139.013	0
2	22102703	39	Low	10.0	Vague	2	28	36	8	1.8	2.4	0.4	28	36	8	1.8	2.4	0.4	2	1.465	0.001	D	36	2.4	139.516	141.402	142.867	142.870	0
2	22102703	40	Low	10.0	Vague	2	36	34	6	2.4	4.9	0.3	6	34	36	0.3	4.9	2.4	2	0.994	0.000	D	34	4.9	143.372	144.120	145.115	145.117	0
2	22102703	41	Low	10.0	Precise	1	36	33	29	2.4	3.8	0.6	29	36	33	0.6	2.4	3.8	1	0.675	0.001	D	36	2.4	145.620	146.360	147.035	147.038	0
2	22102703	42	Low	10.0	Precise	1	33	34	30	3.8	4.9	0.3	34	30	33	4.9	0.3	3.8	2	0.893	0.000	L	34	4.9	147.540	150.414	151.307	151.309	0
2	22102703	43	Low	10.0	Precise	1	22	27	25	1.4	1.6	0.5	22	27	25	1.4	1.6	0.5	1	1.196	0.000	L	22	1.4	151.812	152.743	153.939	153.941	0
2	22102703	44	Low	10.0	Precise	1	27	33	29	1.6	3.8	0.6	29	33	27	0.6	3.8	1.6	1	1.384	0.000	R	27	1.6	154.444	157.354	158.739	158.742	0
2	22102703	45	Low	10.0	Precise	1	22	28	32	1.4	1.8	0.3	28	22	32	1.8	1.4	0.3	1	1.377	0.001	D	22	1.4	159.245	161.946	163.323	163.326	0
2	22102703	46	Low	10.0	Vague	2	22	36	4	1.4	2.4	0.3	36	4	22	2.4	0.3	1.4	2	1.132	0.001	L	36	2.4	163.829	165.408	166.539	166.542	0
2	22102703	47	Low	10.0	Vague	2	33	34	9	3.8	4.9	0.6	9	33	34	0.6	3.8	4.9	2	1.186	0.001	R	34	4.9	167.044	168.793	169.979	169.981	0
2	22102703	48	Low	10.0	Precise	1	22	27	32	1.4	1.6	0.3	32	22	27	0.3	1.4	1.6	1	2.283	0.001	D	22	1.4	170.484	173.361	175.643	175.646	0
2	22102703	49	Low	10.0	Precise	1	36	33	30	2.4	3.8	0.3	36	33	30	2.4	3.8	0.3	1	0.702	0.000	L	36	2.4	176.148	177.141	177.843	177.845	0
2	22102703	50	Low	10.0	Vague	2	28	34	2	1.8	4.9	0.0	28	2	34	1.8	0.0	4.9	2	1.563	0.000	R	34	4.9	178.348	180.024	181.587	181.589	0
2	22102703	51	Low	10.0	Precise	1	36	34	32	2.4	4.9	0.3	36	34	32	2.4	4.9	0.3	1	0.792	0.000	L	36	2.4	182.092	183.315	184.107	184.109	0
2	22102703	52	Low	10.0	Vague	2	27	33	2	1.6	3.8	0.0	27	2	33	1.6	0.0	3.8	2	2.008	0.001	R	33	3.8	184.612	186.851	188.859	188.862	0
2	22102703	53	Low	10.0	Vague	2	27	28	9	1.6	1.8	0.6	9	28	27	0.6	1.8	1.6	1	0.817	0.001	R	27	1.6	189.364	191.466	192.283	192.285	0
2	22102703	54	Low	10.0	Vague	2	36	33	9	2.4	3.8	0.6	36	33	9	2.4	3.8	0.6	1	0.734	0.001	L	36	2.4	192.788	194.357	195.091	195.093	0
2	22102703	55	Low	10.0	Precise	1	27	36	20	1.6	2.4	0.0	27	36	20	1.6	2.4	0.0	2	0.938	0.001	D	36	2.4	195.596	198.097	199.035	199.038	0
2	22102703	56	Low	10.0	Vague	2	33	34	4	3.8	4.9	0.3	33	4	34	3.8	0.3	4.9	2	1.098	0.000	R	34	4.9	199.540	202.289	203.387	203.389	0
2	22102703	57	Low	10.0	Vague	2	22	36	6	1.4	2.4	0.3	22	36	6	1.4	2.4	0.3	2	1.157	0.001	D	36	2.4	203.892	206.606	207.763	207.765	0
2	22102703	58	Low	10.0	Precise	1	22	36	32	1.4	2.4	0.3	36	22	32	2.4	1.4	0.3	2	0.953	0.001	L	36	2.4	208.268	210.147	211.099	211.102	0
2	22102703	59	Low	10.0	Precise	1	22	34	20	1.4	4.9	0.0	20	22	34	0.0	1.4	4.9	2	1.408	0.001	R	34	4.9	211.605	213.123	214.531	214.534	0
2	22102703	60	Low	10.0	Vague	2	27	28	8	1.6	1.8	0.4	28	8	27	1.8	0.4	1.6	1	1.610	0.001	R	27	1.6	215.037	217.601	219.211	219.213	0
2	22102703	61	Low	10.0	Precise	1	27	34	32	1.6	4.9	0.3	34	27	32	4.9	1.6	0.3	2	0.707	0.000	L	34	4.9	225.269	226.864	227.571	227.573	0
2	22102703	62	Low	10.0	Precise	1	36	33	32	2.4	3.8	0.3	33	32	36	3.8	0.3	2.4	1	0.687	0.001	R	36	2.4	228.076	230.044	230.731	230.733	0
2	22102703	63	Low	10.0	Precise	1	27	28	32	1.6	1.8	0.3	27	28	32	1.6	1.8	0.3	1	0.907	0.000	L	27	1.6	231.237	232.752	233.659	233.661	0
2	22102703	64	Low	10.0	Precise	1	22	34	25	1.4	4.9	0.5	22	34	25	1.4	4.9	0.5	1	1.096	0.000	L	22	1.4	234.164	235.467	236.563	236.565	0
2	22102703	65	Low	10.0	Precise	1	22	33	32	1.4	3.8	0.3	22	32	33	1.4	0.3	3.8	1	0.677	0.001	L	22	1.4	237.068	239.446	240.123	240.125	0
2	22102703	66	Low	10.0	Precise	1	22	27	29	1.4	1.6	0.6	27	22	29	1.6	1.4	0.6	1	0.755	0.001	D	22	1.4	240.628	243.024	243.779	243.781	0
2	22102703	67	Low	10.0	Precise	1	22	34	30	1.4	4.9	0.3	30	34	22	0.3	4.9	1.4	2	0.632	0.000	D	34	4.9	244.284	246.451	247.083	247.085	0
2	22102703	68	Low	10.0	Precise	1	36	33	19	2.4	3.8	0.1	33	36	19	3.8	2.4	0.1	1	0.762	0.000	D	36	2.4	247.589	249.497	250.259	250.261	0
2	22102703	69	Low	10.0	Vague	2	33	34	6	3.8	4.9	0.3	33	34	6	3.8	4.9	0.3	2	1.004	0.001	D	34	4.9	250.764	252.447	253.451	253.454	0
2	22102703	70	Low	10.0	Vague	2	36	33	8	2.4	3.8	0.4	8	33	36	0.4	3.8	2.4	1	0.867	0.001	R	36	2.4	253.957	256.440	257.307	257.310	0
2	22102703	71	Low	10.0	Vague	2	22	33	2	1.4	3.8	0.0	22	33	2	1.4	3.8	0.0	1	1.418	0.001	L	22	1.4	257.813	259.953	261.371	261.373	0
2	22102703	72	Low	10.0	Precise	1	22	33	19	1.4	3.8	0.1	33	19	22	3.8	0.1	1.4	1	0.748	0.000	R	22	1.4	261.876	263.767	264.515	264.517	0
2	22102703	73	Low	10.0	Precise	1	36	34	20	2.4	4.9	0.0	36	20	34	2.4	0.0	4.9	1	0.739	0.000	L	36	2.4	265.020	265.640	266.379	266.381	0
2	22102703	74	Low	10.0	Precise	1	27	28	29	1.6	1.8	0.6	29	28	27	0.6	1.8	1.6	1	2.008	0.001	R	27	1.6	266.885	269.579	271.587	271.589	0
2	22102703	75	Low	10.0	Precise	1	22	33	29	1.4	3.8	0.6	29	22	33	0.6	1.4	3.8	1	1.232	0.001	D	22	1.4	272.092	273.923	275.155	275.157	0
2	22102703	76	Low	10.0	Vague	2	27	28	4	1.6	1.8	0.3	4	28	27	0.3	1.8	1.6	1	0.527	0.000	R	27	1.6	275.660	276.315	276.843	276.845	0
2	22102703	77	Low	10.0	Precise	1	22	27	19	1.4	1.6	0.1	22	19	27	1.4	0.1	1.6	1	1.036	0.000	L	22	1.4	277.347	279.855	280.891	280.893	0
2	22102703	78	Low	10.0	Precise	1	27	33	20	1.6	3.8	0.0	27	33	20	1.6	3.8	0.0	1	0.735	0.001	L	27	1.6	281.396	282.428	283.163	283.165	0
2	22102703	79	Low	10.0	Precise	1	28	36	30	1.8	2.4	0.3	36	28	30	2.4	1.8	0.3	2	0.651	0.001	L	36	2.4	283.668	286.216	286.867	286.869	0
2	22102703	80	Low	10.0	Vague	2	28	36	4	1.8	2.4	0.3	4	36	28	0.3	2.4	1.8	2	0.742	0.000	D	36	2.4	287.373	288.637	289.379	289.381	0
2	22102703	81	Low	10.0	Precise	1	27	28	25	1.6	1.8	0.5	25	27	28	0.5	1.6	1.8	1	1.021	0.000	D	27	1.6	289.884	290.398	291.419	291.421	0
2	22102703	82	Low	10.0	Precise	1	27	34	25	1.6	4.9	0.5	27	25	34	1.6	0.5	4.9	2	1.292	0.000	R	34	4.9	291.924	292.727	294.019	294.021	0
2	22102703	83	Low	10.0	Vague	2	28	33	7	1.8	3.8	0.7	33	28	7	3.8	1.8	0.7	1	1.090	0.001	D	28	1.8	294.524	296.921	298.011	298.013	0
2	22102703	84	Low	10.0	Vague	2	28	34	9	1.8	4.9	0.6	28	9	34	1.8	0.6	4.9	2	0.714	0.001	R	34	4.9	298.516	299.033	299.747	299.750	0
2	22102703	85	Low	10.0	Vague	2	22	36	7	1.4	2.4	0.7	7	36	22	0.7	2.4	1.4	2	1.292	0.001	D	36	2.4	300.252	300.911	302.203	302.205	0
2	22102703	86	Low	10.0	Vague	2	28	33	9	1.8	3.8	0.6	9	33	28	0.6	3.8	1.8	1	1.682	0.000	R	28	1.8	302.708	304.312	305.995	305.997	0
2	22102703	87	Low	10.0	Vague	2	28	34	8	1.8	4.9	0.4	8	28	34	0.4	1.8	4.9	2	1.616	0.000	R	34	4.9	306.500	307.099	308.715	308.717	0
2	22102703	88	Low	10.0	Vague	2	27	34	9	1.6	4.9	0.6	34	9	27	4.9	0.6	1.6	1	1.310	0.000	R	27	1.6	309.219	312.197	313.507	313.509	0
2	22102703	89	Low	10.0	Vague	2	27	34	6	1.6	4.9	0.3	6	27	34	0.3	1.6	4.9	1	1.235	0.000	D	27	1.6	314.012	314.552	315.787	315.790	0
2	22102703	90	Low	10.0	Vague	2	22	27	7	1.4	1.6	0.7	22	7	27	1.4	0.7	1.6	1	1.423	0.001	L	22	1.4	316.292	318.620	320.043	320.045	0
2	22102703	91	Low	10.0	Vague	2	27	33	6	1.6	3.8	0.3	33	6	27	3.8	0.3	1.6	1	1.571	0.001	R	27	1.6	320.548	321.879	323.451	323.453	0
2	22102703	92	Low	10.0	Vague	2	22	36	8	1.4	2.4	0.4	8	22	36	0.4	1.4	2.4	2	1.326	0.000	R	36	2.4	323.956	325.333	326.659	326.661	0
2	22102703	93	Low	10.0	Vague	2	28	36	6	1.8	2.4	0.3	6	28	36	0.3	1.8	2.4	2	1.046	0.000	R	36	2.4	327.164	328.621	329.667	329.669	0
2	22102703	94	Low	10.0	Precise	1	27	33	32	1.6	3.8	0.3	32	27	33	0.3	1.6	3.8	1	1.690	0.001	D	27	1.6	330.173	332.465	334.155	334.157	0
2	22102703	95	Low	10.0	Precise	1	28	34	20	1.8	4.9	0.0	20	34	28	0.0	4.9	1.8	2	1.106	0.001	D	34	4.9	334.660	337.297	338.403	338.405	0
2	22102703	96	Low	10.0	Vague	2	28	34	7	1.8	4.9	0.7	34	7	28	4.9	0.7	1.8	3	1.289	0.001	D	7	0.7	338.908	341.418	342.707	342.709	0
2	22102703	97	Low	10.0	Precise	1	28	34	32	1.8	4.9	0.3	32	28	34	0.3	1.8	4.9	2	1.249	0.001	R	34	4.9	343.212	344.354	345.603	345.605	0
2	22102703	98	Low	10.0	Vague	2	27	33	7	1.6	3.8	0.7	7	27	33	0.7	1.6	3.8	3	0.942	0.000	L	7	0.7	346.108	348.853	349.795	349.797	0
2	22102703	99	Low	10.0	Precise	1	28	36	19	1.8	2.4	0.1	36	19	28	2.4	0.1	1.8	2	0.701	0.001	L	36	2.4	350.299	350.966	351.667	351.669	0
2	22102703	100	Low	10.0	Precise	1	22	36	19	1.4	2.4	0.1	22	19	36	1.4	0.1	2.4	2	1.259	0.000	R	36	2.4	352.172	354.344	355.603	355.605	0
2	22102703	101	Low	10.0	Vague	2	22	34	8	1.4	4.9	0.4	22	8	34	1.4	0.4	4.9	2	2.218	0.001	R	34	4.9	356.108	357.529	359.747	359.749	0
2	22102703	102	Low	10.0	Vague	2	36	34	2	2.4	4.9	0.0	34	36	2	4.9	2.4	0.0	1	0.874	0.001	D	36	2.4	360.252	360.785	361.659	361.661	0
2	22102703	103	Low	10.0	Precise	1	22	33	25	1.4	3.8	0.5	22	33	25	1.4	3.8	0.5	1	1.860	0.001	L	22	1.4	362.164	363.102	364.963	364.965	0
2	22102703	104	Low	10.0	Precise	1	36	34	25	2.4	4.9	0.5	25	34	36	0.5	4.9	2.4	1	0.778	0.001	R	36	2.4	365.468	367.929	368.707	368.709	0
2	22102703	105	Low	10.0	Precise	1	27	34	20	1.6	4.9	0.0	34	20	27	4.9	0.0	1.6	1	1.213	0.001	R	27	1.6	369.212	370.301	371.515	371.517	0
2	22102703	106	Low	10.0	Precise	1	27	28	30	1.6	1.8	0.3	28	30	27	1.8	0.3	1.6	1	0.886	0.001	R	27	1.6	372.020	374.717	375.603	375.605	0
2	22102703	107	Low	10.0	Precise	1	27	36	19	1.6	2.4	0.1	36	19	27	2.4	0.1	1.6	2	0.733	0.000	L	36	2.4	376.108	377.525	378.258	378.261	0
2	22102703	108	Low	10.0	Vague	2	22	33	6	1.4	3.8	0.3	22	6	33	1.4	0.3	3.8	1	0.723	0.000	L	22	1.4	378.764	381.288	382.011	382.013	0
2	22102703	109	Low	10.0	Precise	1	28	34	30	1.8	4.9	0.3	34	28	30	4.9	1.8	0.3	2	1.256	0.000	L	34	4.9	382.515	383.835	385.090	385.093	0
2	22102703	110	Low	10.0	Vague	2	27	28	2	1.6	1.8	0.0	28	27	2	1.8	1.6	0.0	1	1.347	0.000	D	27	1.6	385.596	387.903	389.250	389.253	0
2	22102703	111	Low	10.0	Precise	1	22	34	19	1.4	4.9	0.1	19	34	22	0.1	4.9	1.4	1	1.402	0.001	R	22	1.4	389.755	390.377	391.779	391.781	0
2	22102703	112	Low	10.0	Vague	2	22	34	7	1.4	4.9	0.7	34	7	22	4.9	0.7	1.4	1	0.720	0.001	R	22	1.4	392.284	393.499	394.219	394.221	0
2	22102703	113	Low	10.0	Vague	2	22	34	9	1.4	4.9	0.6	22	9	34	1.4	0.6	4.9	1	1.073	0.001	L	22	1.4	394.724	395.498	396.571	396.573	0
2	22102703	114	Low	10.0	Vague	2	22	27	4	1.4	1.6	0.3	4	22	27	0.3	1.4	1.6	1	1.280	0.001	D	22	1.4	397.076	399.947	401.227	401.229	0
2	22102703	115	Low	10.0	Precise	1	27	36	30	1.6	2.4	0.3	30	27	36	0.3	1.6	2.4	2	1.061	0.001	R	36	2.4	401.732	403.534	404.595	404.597	0
2	22102703	116	Low	10.0	Precise	1	27	36	32	1.6	2.4	0.3	27	32	36	1.6	0.3	2.4	2	0.613	0.001	R	36	2.4	405.100	406.926	407.539	407.541	0
2	22102703	117	Low	10.0	Precise	1	22	28	19	1.4	1.8	0.1	22	19	28	1.4	0.1	1.8	1	1.173	0.000	L	22	1.4	408.044	409.190	410.363	410.365	0
2	22102703	118	Low	10.0	Vague	2	22	34	6	1.4	4.9	0.3	34	22	6	4.9	1.4	0.3	1	1.094	0.001	D	22	1.4	410.868	413.317	414.411	414.413	0
2	22102703	119	Low	10.0	Vague	2	28	34	4	1.8	4.9	0.3	4	28	34	0.3	1.8	4.9	2	2.131	0.001	R	34	4.9	414.916	415.640	417.771	417.773	0
2	22102703	120	Low	10.0	Vague	2	22	28	9	1.4	1.8	0.6	28	22	9	1.8	1.4	0.6	1	1.036	0.000	D	22	1.4	418.276	419.270	420.307	420.309	0
2	22102703	121	Low	10.0	Precise	1	22	36	30	1.4	2.4	0.3	22	36	30	1.4	2.4	0.3	2	0.704	0.001	D	36	2.4	433.907	436.699	437.403	437.405	0
2	22102703	122	Low	10.0	Precise	1	28	34	19	1.8	4.9	0.1	34	28	19	4.9	1.8	0.1	2	0.764	0.000	L	34	4.9	437.908	438.847	439.610	439.613	0
2	22102703	123	Low	10.0	Vague	2	28	36	7	1.8	2.4	0.7	36	28	7	2.4	1.8	0.7	2	0.596	0.000	L	36	2.4	440.115	441.286	441.882	441.885	0
2	22102703	124	Low	10.0	Vague	2	27	36	2	1.6	2.4	0.0	2	27	36	0.0	1.6	2.4	2	0.638	0.000	R	36	2.4	442.387	443.117	443.754	443.757	0
2	22102703	125	Low	10.0	Precise	1	28	33	29	1.8	3.8	0.6	28	33	29	1.8	3.8	0.6	2	1.226	0.000	D	33	3.8	444.260	445.857	447.083	447.085	0
2	22102703	126	Low	10.0	Precise	1	22	34	32	1.4	4.9	0.3	32	22	34	0.3	1.4	4.9	1	0.847	0.000	D	22	1.4	447.588	449.660	450.506	450.509	0
2	22102703	127	Low	10.0	Vague	2	36	34	8	2.4	4.9	0.4	8	34	36	0.4	4.9	2.4	1	0.946	0.001	R	36	2.4	451.012	451.536	452.483	452.486	0
2	22102703	128	Low	10.0	Precise	1	33	34	29	3.8	4.9	0.6	29	33	34	0.6	3.8	4.9	2	0.768	0.000	R	34	4.9	452.988	454.259	455.026	455.029	0
2	22102703	129	Low	10.0	Vague	2	27	36	7	1.6	2.4	0.7	27	7	36	1.6	0.7	2.4	2	0.701	0.000	R	36	2.4	455.532	457.182	457.882	457.885	0
2	22102703	130	Low	10.0	Vague	2	22	34	2	1.4	4.9	0.0	22	2	34	1.4	0.0	4.9	2	0.973	0.000	R	34	4.9	458.388	459.693	460.666	460.669	0
2	22102703	131	Low	10.0	Precise	1	33	34	32	3.8	4.9	0.3	33	32	34	3.8	0.3	4.9	2	1.289	0.000	R	34	4.9	461.172	462.793	464.082	464.085	0
2	22102703	132	Low	10.0	Vague	2	27	33	9	1.6	3.8	0.6	33	9	27	3.8	0.6	1.6	1	0.871	0.001	R	27	1.6	464.588	465.292	466.163	466.165	0
2	22102703	133	Low	10.0	Precise	1	22	36	25	1.4	2.4	0.5	22	36	25	1.4	2.4	0.5	2	0.756	0.000	D	36	2.4	466.667	469.158	469.914	469.917	0
2	22102703	134	Low	10.0	Vague	2	22	27	2	1.4	1.6	0.0	27	22	2	1.6	1.4	0.0	1	0.904	0.001	D	22	1.4	470.419	472.203	473.107	473.109	0
2	22102703	135	Low	10.0	Vague	2	28	33	6	1.8	3.8	0.3	6	33	28	0.3	3.8	1.8	2	1.885	0.000	D	33	3.8	473.612	476.182	478.067	478.069	0
2	22102703	136	Low	10.0	Vague	2	27	36	4	1.6	2.4	0.3	36	27	4	2.4	1.6	0.3	2	0.660	0.001	L	36	2.4	478.572	480.591	481.251	481.254	0
2	22102703	137	Low	10.0	Precise	1	28	36	32	1.8	2.4	0.3	36	28	32	2.4	1.8	0.3	2	0.676	0.000	L	36	2.4	481.757	483.174	483.850	483.853	0
2	22102703	138	Low	10.0	Vague	2	27	36	9	1.6	2.4	0.6	27	9	36	1.6	0.6	2.4	2	0.654	0.001	R	36	2.4	484.355	487.253	487.907	487.910	0
2	22102703	139	Low	10.0	Vague	2	36	33	6	2.4	3.8	0.3	33	6	36	3.8	0.3	2.4	1	0.683	0.000	R	36	2.4	488.412	490.263	490.947	490.949	0
2	22102703	140	Low	10.0	Vague	2	22	28	4	1.4	1.8	0.3	22	28	4	1.4	1.8	0.3	1	0.939	0.001	L	22	1.4	491.452	492.872	493.811	493.813	0
2	22102703	141	Low	10.0	Vague	2	22	28	7	1.4	1.8	0.7	7	22	28	0.7	1.4	1.8	3	0.780	0.000	L	7	0.7	494.316	495.655	496.434	496.437	0
2	22102703	142	Low	10.0	Precise	1	28	33	32	1.8	3.8	0.3	33	28	32	3.8	1.8	0.3	2	1.511	0.001	L	33	3.8	496.940	499.499	501.011	501.013	0
2	22102703	143	Low	10.0	Vague	2	27	28	7	1.6	1.8	0.7	27	28	7	1.6	1.8	0.7	1	0.829	0.000	L	27	1.6	501.516	503.766	504.594	504.597	0
2	22102703	144	Low	10.0	Vague	2	27	34	2	1.6	4.9	0.0	34	2	27	4.9	0.0	1.6	1	1.098	0.001	R	27	1.6	505.100	507.001	508.099	508.101	0
2	22102703	145	Low	10.0	Vague	2	22	28	6	1.4	1.8	0.3	28	22	6	1.8	1.4	0.3	1	1.038	0.001	D	22	1.4	508.604	510.285	511.323	511.326	0
2	22102703	146	Low	10.0	Vague	2	27	33	8	1.6	3.8	0.4	33	8	27	3.8	0.4	1.6	1	1.078	0.000	R	27	1.6	511.828	514.572	515.650	515.653	0
2	22102703	147	Low	10.0	Precise	1	22	33	30	1.4	3.8	0.3	22	33	30	1.4	3.8	0.3	1	0.952	0.000	L	22	1.4	516.155	517.795	518.746	518.749	0
2	22102703	148	Low	10.0	Vague	2	36	34	7	2.4	4.9	0.7	34	7	36	4.9	0.7	2.4	1	0.943	0.001	R	36	2.4	519.252	521.091	522.035	522.037	0
2	22102703	149	Low	10.0	Vague	2	27	34	8	1.6	4.9	0.4	27	34	8	1.6	4.9	0.4	1	1.167	0.001	L	27	1.6	522.540	523.884	525.051	525.053	0
2	22102703	150	Low	10.0	Precise	1	27	34	30	1.6	4.9	0.3	27	34	30	1.6	4.9	0.3	1	0.829	0.001	L	27	1.6	525.555	526.702	527.531	527.533	0
2	22102703	151	Low	10.0	Precise	1	36	34	19	2.4	4.9	0.1	34	19	36	4.9	0.1	2.4	1	0.782	0.001	R	36	2.4	528.035	529.629	530.411	530.413	0
2	22102703	152	Low	10.0	Vague	2	36	34	9	2.4	4.9	0.6	9	36	34	0.6	2.4	4.9	1	0.844	0.000	D	36	2.4	530.916	533.094	533.938	533.941	0
2	22102703	153	Low	10.0	Precise	1	22	28	20	1.4	1.8	0.0	28	20	22	1.8	0.0	1.4	1	1.282	0.001	R	22	1.4	534.444	536.737	538.019	538.021	0
2	22102703	154	Low	10.0	Vague	2	22	36	2	1.4	2.4	0.0	36	22	2	2.4	1.4	0.0	2	0.650	0.001	L	36	2.4	538.523	541.313	541.963	541.965	0
2	22102703	155	Low	10.0	Vague	2	33	34	7	3.8	4.9	0.7	33	7	34	3.8	0.7	4.9	3	1.043	0.000	D	7	0.7	542.468	543.319	544.362	544.365	0
2	22102703	156	Low	10.0	Precise	1	22	36	29	1.4	2.4	0.6	36	22	29	2.4	1.4	0.6	2	0.766	0.000	L	36	2.4	544.868	545.916	546.683	546.685	0
2	22102703	157	Low	10.0	Vague	2	22	27	8	1.4	1.6	0.4	22	27	8	1.4	1.6	0.4	2	1.461	0.000	D	27	1.6	547.187	547.838	549.299	549.301	0
2	22102703	158	Low	10.0	Precise	1	27	28	20	1.6	1.8	0.0	27	20	28	1.6	0.0	1.8	1	0.862	0.001	L	27	1.6	549.804	551.429	552.291	552.293	0
2	22102703	159	Low	10.0	Precise	1	28	33	30	1.8	3.8	0.3	30	33	28	0.3	3.8	1.8	2	1.466	0.001	D	33	3.8	552.796	554.017	555.483	555.485	0
2	22102703	160	Low	10.0	Vague	2	22	36	9	1.4	2.4	0.6	9	36	22	0.6	2.4	1.4	2	0.975	0.001	D	36	2.4	555.988	556.491	557.467	557.469	0
2	22102703	161	Low	10.0	Precise	1	36	33	25	2.4	3.8	0.5	36	25	33	2.4	0.5	3.8	1	0.689	0.001	L	36	2.4	557.973	559.458	560.147	560.149	0
2	22102703	162	Low	10.0	Vague	2	28	36	9	1.8	2.4	0.6	36	9	28	2.4	0.6	1.8	2	0.735	0.001	L	36	2.4	560.651	563.155	563.891	563.894	0
2	22102703	163	Low	10.0	Vague	2	33	34	2	3.8	4.9	0.0	34	2	33	4.9	0.0	3.8	2	1.415	0.001	L	34	4.9	564.397	566.460	567.875	567.877	0
2	22102703	164	Low	10.0	Vague	2	22	27	9	1.4	1.6	0.6	27	9	22	1.6	0.6	1.4	1	1.941	0.001	R	22	1.4	568.379	569.749	571.690	571.693	0
2	22102703	165	Low	10.0	Precise	1	22	28	29	1.4	1.8	0.6	29	22	28	0.6	1.4	1.8	1	0.963	0.001	D	22	1.4	572.196	574.423	575.387	575.389	0
2	22102703	166	Low	10.0	Precise	1	22	27	30	1.4	1.6	0.3	30	27	22	0.3	1.6	1.4	1	1.032	0.001	R	22	1.4	575.891	576.731	577.763	577.765	0
2	22102703	167	Low	10.0	Vague	2	36	33	7	2.4	3.8	0.7	36	7	33	2.4	0.7	3.8	1	0.660	0.000	L	36	2.4	578.267	581.070	581.730	581.733	0
2	22102703	168	Low	10.0	Precise	1	28	33	19	1.8	3.8	0.1	19	33	28	0.1	3.8	1.8	2	1.720	0.001	D	33	3.8	582.235	585.034	586.755	586.757	0
2	22102703	169	Low	10.0	Vague	2	22	34	4	1.4	4.9	0.3	22	4	34	1.4	0.3	4.9	1	1.366	0.000	L	22	1.4	587.260	588.700	590.066	590.069	0
2	22102703	170	Low	10.0	Precise	1	27	33	19	1.6	3.8	0.1	19	27	33	0.1	1.6	3.8	1	1.484	0.001	D	27	1.6	590.571	592.798	594.283	594.285	0
2	22102703	171	Low	10.0	Vague	2	27	36	6	1.6	2.4	0.3	27	6	36	1.6	0.3	2.4	2	0.991	0.000	R	36	2.4	594.787	597.339	598.330	598.333	0
2	22102703	172	Low	10.0	Precise	1	27	34	29	1.6	4.9	0.6	29	27	34	0.6	1.6	4.9	1	1.476	0.001	D	27	1.6	598.836	601.446	602.923	602.925	0
2	22102703	173	Low	10.0	Precise	1	27	34	19	1.6	4.9	0.1	19	34	27	0.1	4.9	1.6	1	1.082	0.000	R	27	1.6	603.428	605.728	606.810	606.813	0
2	22102703	174	Low	10.0	Vague	2	22	33	7	1.4	3.8	0.7	33	7	22	3.8	0.7	1.4	3	1.089	0.001	D	7	0.7	607.315	608.218	609.307	609.309	0
2	22102703	175	Low	10.0	Precise	1	28	34	29	1.8	4.9	0.6	34	28	29	4.9	1.8	0.6	2	1.285	0.000	L	34	4.9	609.811	611.669	612.954	612.957	0
2	22102703	176	Low	10.0	Vague	2	33	34	8	3.8	4.9	0.4	34	33	8	4.9	3.8	0.4	1	1.342	0.001	D	33	3.8	613.460	614.044	615.387	615.389	0
2	22102703	177	Low	10.0	Precise	1	22	36	20	1.4	2.4	0.0	22	20	36	1.4	0.0	2.4	2	0.773	0.001	R	36	2.4	615.893	617.302	618.075	618.077	0
2	22102703	178	Low	10.0	Precise	1	22	28	25	1.4	1.8	0.5	28	22	25	1.8	1.4	0.5	1	1.013	0.001	D	22	1.4	618.580	621.037	622.051	622.053	0
2	22102703	179	Low	10.0	Precise	1	28	33	20	1.8	3.8	0.0	20	28	33	0.0	1.8	3.8	2	1.198	0.001	R	33	3.8	622.555	623.253	624.450	624.453	0
2	22102703	180	Low	10.0	Vague	2	22	33	8	1.4	3.8	0.4	33	22	8	3.8	1.4	0.4	1	1.074	0.001	D	22	1.4	624.956	625.761	626.835	626.837	0
2	22102703	181	High	1.5	Precise	1	28	34	35	1.8	4.9	0.3	35	34	28	0.3	4.9	1.8	2	0.789	0.001	D	34	4.9	635.083	637.494	638.283	638.285	0
2	22102703	182	High	1.5	Precise	1	27	33	23	1.6	3.8	0.2	23	33	27	0.2	3.8	1.6	1	0.834	0.000	R	27	1.6	638.788	641.616	642.450	642.453	0
2	22102703	183	High	1.5	Vague	2	36	33	17	2.4	3.8	0.4	33	17	36	3.8	0.4	2.4	1	0.576	0.001	R	36	2.4	642.956	645.587	646.163	646.166	0
2	22102703	184	High	1.5	Precise	1	27	28	35	1.6	1.8	0.3	28	27	35	1.8	1.6	0.3	1	0.793	0.000	D	27	1.6	646.669	649.250	650.042	650.045	0
2	22102703	185	High	1.5	Vague	2	28	33	3	1.8	3.8	0.7	33	28	3	3.8	1.8	0.7	2	1.234	0.001	L	33	3.8	650.548	651.777	653.010	653.013	0
2	22102703	186	High	1.5	Precise	1	27	34	23	1.6	4.9	0.2	23	34	27	0.2	4.9	1.6	2	0.702	0.001	D	34	4.9	653.515	656.213	656.915	656.917	0
2	22102703	187	High	1.5	Vague	2	36	34	5	2.4	4.9	0.6	34	36	5	4.9	2.4	0.6	1	0.848	0.000	D	36	2.4	657.420	660.299	661.146	661.149	0
2	22102703	188	High	1.5	Vague	2	36	33	13	2.4	3.8	0.1	33	36	13	3.8	2.4	0.1	1	0.655	0.001	D	36	2.4	661.651	663.572	664.227	664.229	0
2	22102703	189	High	1.5	Precise	1	22	28	26	1.4	1.8	0.5	28	22	26	1.8	1.4	0.5	1	1.017	0.001	D	22	1.4	664.731	667.466	668.483	668.485	0
2	22102703	190	High	1.5	Vague	2	28	36	1	1.8	2.4	0.7	28	1	36	1.8	0.7	2.4	2	0.814	0.001	R	36	2.4	668.988	669.780	670.594	670.597	0
2	22102703	191	High	1.5	Vague	2	28	36	3	1.8	2.4	0.7	36	28	3	2.4	1.8	0.7	2	0.588	0.001	L	36	2.4	671.100	673.503	674.090	674.093	0
2	22102703	192	High	1.5	Precise	1	27	36	23	1.6	2.4	0.2	27	36	23	1.6	2.4	0.2	2	0.638	0.001	D	36	2.4	674.595	675.877	676.515	676.517	0
2	22102703	193	High	1.5	Precise	1	22	28	31	1.4	1.8	0.8	22	28	31	1.4	1.8	0.8	1	1.030	0.001	L	22	1.4	677.020	678.573	679.603	679.605	0
2	22102703	194	High	1.5	Precise	1	36	34	21	2.4	4.9	0.4	21	34	36	0.4	4.9	2.4	1	0.619	0.001	R	36	2.4	680.108	682.296	682.915	682.917	0
2	22102703	195	High	1.5	Vague	2	22	36	13	1.4	2.4	0.1	13	36	22	0.1	2.4	1.4	2	0.618	0.001	D	36	2.4	683.419	685.521	686.138	686.141	0
2	22102703	196	High	1.5	Precise	1	22	27	21	1.4	1.6	0.4	22	27	21	1.4	1.6	0.4	1	0.751	0.000	L	22	1.4	686.643	687.459	688.210	688.213	0
2	22102703	197	High	1.5	Precise	1	22	33	26	1.4	3.8	0.5	22	26	33	1.4	0.5	3.8	1	0.779	0.000	L	22	1.4	688.716	690.567	691.346	691.349	0
2	22102703	198	High	1.5	Precise	1	22	34	24	1.4	4.9	0.0	22	34	24	1.4	4.9	0.0	1	1.048	0.000	L	22	1.4	691.852	694.546	695.594	695.597	0
2	22102703	199	High	1.5	Vague	2	28	33	1	1.8	3.8	0.7	1	28	33	0.7	1.8	3.8	2	1.143	0.001	R	33	3.8	696.099	696.827	697.970	697.973	0
2	22102703	200	High	1.5	Vague	2	36	33	3	2.4	3.8	0.7	3	36	33	0.7	2.4	3.8	1	0.706	0.001	D	36	2.4	698.475	700.785	701.491	701.493	0
2	22102703	201	High	1.5	Precise	1	27	28	26	1.6	1.8	0.5	27	28	26	1.6	1.8	0.5	1	0.890	0.001	L	27	1.6	701.996	703.280	704.170	704.173	0
2	22102703	202	High	1.5	Precise	1	27	36	24	1.6	2.4	0.0	24	27	36	0.0	1.6	2.4	2	0.909	0.001	R	36	2.4	704.676	705.838	706.746	706.749	0
2	22102703	203	High	1.5	Precise	1	22	33	21	1.4	3.8	0.4	33	22	21	3.8	1.4	0.4	1	1.000	0.001	D	22	1.4	707.252	709.730	710.730	710.733	0
2	22102703	204	High	1.5	Precise	1	36	34	23	2.4	4.9	0.2	36	23	34	2.4	0.2	4.9	1	0.710	0.001	L	36	2.4	711.235	711.820	712.530	712.533	0
2	22102703	205	High	1.5	Vague	2	27	33	16	1.6	3.8	0.3	27	33	16	1.6	3.8	0.3	1	0.909	0.001	L	27	1.6	713.035	715.710	716.618	716.621	0
2	22102703	206	High	1.5	Vague	2	27	28	13	1.6	1.8	0.1	27	13	28	1.6	0.1	1.8	1	0.684	0.001	L	27	1.6	717.123	719.110	719.794	719.797	0
2	22102703	207	High	1.5	Precise	1	22	34	35	1.4	4.9	0.3	34	22	35	4.9	1.4	0.3	1	1.048	0.001	D	22	1.4	720.299	723.114	724.162	724.165	0
2	22102703	208	High	1.5	Vague	2	22	28	16	1.4	1.8	0.3	16	28	22	0.3	1.8	1.4	1	0.801	0.001	R	22	1.4	724.667	725.905	726.706	726.709	0
2	22102703	209	High	1.5	Precise	1	22	27	23	1.4	1.6	0.2	22	23	27	1.4	0.2	1.6	1	0.642	0.001	L	22	1.4	727.212	729.337	729.979	729.981	0
2	22102703	210	High	1.5	Precise	1	27	33	26	1.6	3.8	0.5	26	33	27	0.5	3.8	1.6	1	0.598	0.001	R	27	1.6	730.483	731.804	732.402	732.405	0
2	22102703	211	High	1.5	Precise	1	22	34	31	1.4	4.9	0.8	22	34	31	1.4	4.9	0.8	2	1.420	0.001	D	34	4.9	732.908	735.455	736.874	736.877	0
2	22102703	212	High	1.5	Vague	2	28	34	3	1.8	4.9	0.7	28	3	34	1.8	0.7	4.9	2	0.569	0.001	R	34	4.9	737.379	738.890	739.459	739.461	0
2	22102703	213	High	1.5	Vague	2	33	34	1	3.8	4.9	0.7	33	1	34	3.8	0.7	4.9	3	1.151	0.001	D	1	0.7	739.964	742.147	743.298	743.301	0
2	22102703	214	High	1.5	Vague	2	22	28	3	1.4	1.8	0.7	3	22	28	0.7	1.4	1.8	3	1.214	0.000	L	3	0.7	743.804	745.652	746.866	746.869	0
2	22102703	215	High	1.5	Precise	1	28	33	35	1.8	3.8	0.3	28	35	33	1.8	0.3	3.8	2	1.219	0.001	R	33	3.8	747.371	748.447	749.667	749.669	0
2	22102703	216	High	1.5	Vague	2	22	28	5	1.4	1.8	0.6	5	22	28	0.6	1.4	1.8	3	1.202	0.001	L	5	0.6	750.171	751.504	752.706	752.709	0
2	22102703	217	High	1.5	Precise	1	22	36	24	1.4	2.4	0.0	36	22	24	2.4	1.4	0.0	2	0.715	0.001	L	36	2.4	753.212	755.295	756.010	756.013	0
2	22102703	218	High	1.5	Vague	2	27	28	5	1.6	1.8	0.6	28	5	27	1.8	0.6	1.6	1	1.024	0.000	R	27	1.6	756.516	757.050	758.074	758.077	0
2	22102703	219	High	1.5	Vague	2	22	27	1	1.4	1.6	0.7	1	27	22	0.7	1.6	1.4	NaN	NaN	NaN	NaN	NaN	NaN	758.579	759.812	NaN	761.303	1
2	22102703	220	High	1.5	Vague	2	27	34	1	1.6	4.9	0.7	27	1	34	1.6	0.7	4.9	3	0.680	0.000	D	1	0.7	763.308	763.802	764.482	764.486	0
2	22102703	221	High	1.5	Vague	2	22	27	16	1.4	1.6	0.3	27	22	16	1.6	1.4	0.3	2	0.523	0.000	L	27	1.6	764.989	767.423	767.946	767.949	0
2	22102703	222	High	1.5	Vague	2	22	27	5	1.4	1.6	0.6	27	5	22	1.6	0.6	1.4	2	0.960	0.001	L	27	1.6	768.451	769.802	770.762	770.765	0
2	22102703	223	High	1.5	Vague	2	22	33	13	1.4	3.8	0.1	33	22	13	3.8	1.4	0.1	1	0.661	0.001	D	22	1.4	771.268	772.614	773.274	773.277	0
2	22102703	224	High	1.5	Precise	1	22	27	24	1.4	1.6	0.0	27	22	24	1.6	1.4	0.0	1	0.836	0.001	D	22	1.4	773.780	776.095	776.930	776.933	0
2	22102703	225	High	1.5	Vague	2	27	28	1	1.6	1.8	0.7	1	27	28	0.7	1.6	1.8	1	0.750	0.001	D	27	1.6	777.435	779.892	780.642	780.645	0
2	22102703	226	High	1.5	Precise	1	36	33	26	2.4	3.8	0.5	36	26	33	2.4	0.5	3.8	1	0.594	0.001	L	36	2.4	781.147	782.665	783.258	783.261	0
2	22102703	227	High	1.5	Precise	1	28	36	35	1.8	2.4	0.3	28	35	36	1.8	0.3	2.4	2	0.528	0.001	R	36	2.4	783.763	785.434	785.962	785.965	0
2	22102703	228	High	1.5	Vague	2	22	34	3	1.4	4.9	0.7	22	3	34	1.4	0.7	4.9	2	0.741	0.000	R	34	4.9	786.467	787.069	787.810	787.813	0
2	22102703	229	High	1.5	Vague	2	28	34	1	1.8	4.9	0.7	1	28	34	0.7	1.8	4.9	2	0.765	0.001	R	34	4.9	788.315	789.589	790.354	790.357	0
2	22102703	230	High	1.5	Precise	1	22	36	23	1.4	2.4	0.2	22	36	23	1.4	2.4	0.2	2	0.889	0.001	D	36	2.4	790.859	792.217	793.106	793.109	0
2	22102703	231	High	1.5	Precise	1	27	34	35	1.6	4.9	0.3	35	27	34	0.3	1.6	4.9	2	0.657	0.000	R	34	4.9	793.612	795.049	795.706	795.709	0
2	22102703	232	High	1.5	Precise	1	36	34	35	2.4	4.9	0.3	36	34	35	2.4	4.9	0.3	1	0.732	0.000	L	36	2.4	796.211	797.950	798.682	798.684	0
2	22102703	233	High	1.5	Vague	2	28	34	13	1.8	4.9	0.1	34	28	13	4.9	1.8	0.1	2	0.893	0.001	L	34	4.9	799.187	800.109	801.002	801.004	0
2	22102703	234	High	1.5	Precise	1	27	36	26	1.6	2.4	0.5	36	26	27	2.4	0.5	1.6	2	0.571	0.000	L	36	2.4	801.507	803.534	804.106	804.108	0
2	22102703	235	High	1.5	Precise	1	27	33	31	1.6	3.8	0.8	33	27	31	3.8	1.6	0.8	1	1.018	0.001	D	27	1.6	804.611	807.504	808.522	808.525	0
2	22102703	236	High	1.5	Vague	2	27	34	13	1.6	4.9	0.1	34	27	13	4.9	1.6	0.1	1	0.735	0.000	D	27	1.6	809.028	810.867	811.602	811.605	0
2	22102703	237	High	1.5	Precise	1	22	27	31	1.4	1.6	0.8	27	31	22	1.6	0.8	1.4	2	0.695	0.000	L	27	1.6	812.108	813.770	814.466	814.468	0
2	22102703	238	High	1.5	Precise	1	22	36	35	1.4	2.4	0.3	36	35	22	2.4	0.3	1.4	2	0.652	0.001	L	36	2.4	814.971	817.759	818.410	818.413	0
2	22102703	239	High	1.5	Vague	2	33	34	3	3.8	4.9	0.7	3	33	34	0.7	3.8	4.9	2	0.790	0.001	R	34	4.9	818.916	819.492	820.282	820.285	0
2	22102703	240	High	1.5	Precise	1	22	27	35	1.4	1.6	0.3	22	27	35	1.4	1.6	0.3	1	1.132	0.000	L	22	1.4	820.788	822.334	823.466	823.468	0
2	22102703	241	High	1.5	Precise	1	28	36	24	1.8	2.4	0.0	28	36	24	1.8	2.4	0.0	2	0.648	0.001	D	36	2.4	829.938	832.187	832.834	832.837	0
2	22102703	242	High	1.5	Precise	1	28	36	23	1.8	2.4	0.2	36	28	23	2.4	1.8	0.2	2	0.632	0.000	L	36	2.4	833.340	834.266	834.898	834.901	0
2	22102703	243	High	1.5	Vague	2	27	28	3	1.6	1.8	0.7	3	27	28	0.7	1.6	1.8	1	0.976	0.001	D	27	1.6	835.403	835.971	836.946	836.949	0
2	22102703	244	High	1.5	Precise	1	33	34	35	3.8	4.9	0.3	35	33	34	0.3	3.8	4.9	2	1.098	0.000	R	34	4.9	837.452	840.336	841.434	841.436	0
2	22102703	245	High	1.5	Precise	1	28	33	26	1.8	3.8	0.5	28	26	33	1.8	0.5	3.8	2	1.422	0.000	R	33	3.8	841.940	842.988	844.410	844.413	0
2	22102703	246	High	1.5	Precise	1	28	36	21	1.8	2.4	0.4	21	36	28	0.4	2.4	1.8	2	0.905	0.001	D	36	2.4	844.916	845.545	846.450	846.453	0
2	22102703	247	High	1.5	Vague	2	22	33	5	1.4	3.8	0.6	5	33	22	0.6	3.8	1.4	3	1.149	0.000	L	5	0.6	846.955	848.725	849.874	849.877	0
2	22102703	248	High	1.5	Vague	2	28	34	5	1.8	4.9	0.6	34	28	5	4.9	1.8	0.6	2	1.327	0.001	L	34	4.9	850.379	853.035	854.362	854.365	0
2	22102703	249	High	1.5	Vague	2	27	28	16	1.6	1.8	0.3	28	27	16	1.8	1.6	0.3	1	1.102	0.001	D	27	1.6	854.868	857.429	858.530	858.533	0
2	22102703	250	High	1.5	Vague	2	22	36	5	1.4	2.4	0.6	5	22	36	0.6	1.4	2.4	2	0.625	0.000	R	36	2.4	859.036	860.209	860.834	860.836	0
2	22102703	251	High	1.5	Vague	2	33	34	17	3.8	4.9	0.4	34	33	17	4.9	3.8	0.4	2	1.385	0.000	L	34	4.9	861.340	862.177	863.562	863.565	0
2	22102703	252	High	1.5	Vague	2	27	33	13	1.6	3.8	0.1	27	33	13	1.6	3.8	0.1	1	0.867	0.001	L	27	1.6	864.067	866.303	867.170	867.172	0
2	22102703	253	High	1.5	Precise	1	36	33	35	2.4	3.8	0.3	36	35	33	2.4	0.3	3.8	1	0.585	0.001	L	36	2.4	867.676	869.265	869.850	869.852	0
2	22102703	254	High	1.5	Precise	1	27	34	31	1.6	4.9	0.8	31	27	34	0.8	1.6	4.9	2	0.730	0.001	R	34	4.9	870.356	872.169	872.898	872.901	0
2	22102703	255	High	1.5	Precise	1	28	34	24	1.8	4.9	0.0	24	34	28	0.0	4.9	1.8	2	0.628	0.000	D	34	4.9	873.403	875.294	875.922	875.924	0
2	22102703	256	High	1.5	Precise	1	33	34	24	3.8	4.9	0.0	34	24	33	4.9	0.0	3.8	2	0.622	0.000	L	34	4.9	876.427	877.476	878.098	878.100	0
2	22102703	257	High	1.5	Vague	2	36	33	5	2.4	3.8	0.6	33	5	36	3.8	0.6	2.4	1	0.664	0.000	R	36	2.4	878.603	881.289	881.954	881.957	0
2	22102703	258	High	1.5	Vague	2	22	36	17	1.4	2.4	0.4	22	36	17	1.4	2.4	0.4	2	0.759	0.001	D	36	2.4	882.459	884.995	885.754	885.757	0
2	22102703	259	High	1.5	Vague	2	27	36	13	1.6	2.4	0.1	36	13	27	2.4	0.1	1.6	2	0.678	0.001	L	36	2.4	886.259	888.685	889.362	889.365	0
2	22102703	260	High	1.5	Vague	2	22	28	13	1.4	1.8	0.1	28	22	13	1.8	1.4	0.1	1	0.939	0.001	D	22	1.4	889.867	892.591	893.530	893.534	0
2	22102703	261	High	1.5	Vague	2	22	36	16	1.4	2.4	0.3	36	22	16	2.4	1.4	0.3	2	0.612	0.001	L	36	2.4	894.036	895.351	895.962	895.965	0
2	22102703	262	High	1.5	Vague	2	28	36	16	1.8	2.4	0.3	28	36	16	1.8	2.4	0.3	2	0.545	0.001	D	36	2.4	896.467	899.218	899.762	899.765	0
2	22102703	263	High	1.5	Vague	2	22	36	1	1.4	2.4	0.7	1	36	22	0.7	2.4	1.4	2	0.524	0.001	D	36	2.4	900.267	901.182	901.706	901.708	0
2	22102703	264	High	1.5	Precise	1	22	28	21	1.4	1.8	0.4	21	22	28	0.4	1.4	1.8	1	0.751	0.000	D	22	1.4	902.211	903.347	904.098	904.100	0
2	22102703	265	High	1.5	Precise	1	27	33	35	1.6	3.8	0.3	33	35	27	3.8	0.3	1.6	1	0.776	0.001	R	27	1.6	904.603	906.338	907.114	907.116	0
2	22102703	266	High	1.5	Precise	1	36	34	31	2.4	4.9	0.8	31	34	36	0.8	4.9	2.4	1	0.815	0.000	R	36	2.4	907.619	910.219	911.034	911.036	0
2	22102703	267	High	1.5	Precise	1	33	34	31	3.8	4.9	0.8	31	33	34	0.8	3.8	4.9	2	0.921	0.001	R	34	4.9	911.539	914.354	915.274	915.277	0
2	22102703	268	High	1.5	Precise	1	36	34	26	2.4	4.9	0.5	36	26	34	2.4	0.5	4.9	1	0.673	0.001	L	36	2.4	915.779	917.202	917.874	917.877	0
2	22102703	269	High	1.5	Vague	2	27	34	3	1.6	4.9	0.7	34	3	27	4.9	0.7	1.6	2	0.908	0.001	L	34	4.9	918.379	920.702	921.610	921.613	0
2	22102703	270	High	1.5	Precise	1	27	33	24	1.6	3.8	0.0	33	27	24	3.8	1.6	0.0	1	0.691	0.001	D	27	1.6	922.116	924.648	925.338	925.341	0
2	22102703	271	High	1.5	Precise	1	27	34	24	1.6	4.9	0.0	27	24	34	1.6	0.0	4.9	1	0.714	0.000	L	27	1.6	925.843	926.560	927.274	927.277	0
2	22102703	272	High	1.5	Vague	2	27	34	16	1.6	4.9	0.3	34	16	27	4.9	0.3	1.6	1	0.892	0.001	R	27	1.6	927.780	930.638	931.530	931.532	0
2	22102703	273	High	1.5	Vague	2	22	28	1	1.4	1.8	0.7	28	1	22	1.8	0.7	1.4	1	1.016	0.000	R	22	1.4	932.036	933.594	934.610	934.612	0
2	22102703	274	High	1.5	Vague	2	22	34	1	1.4	4.9	0.7	34	22	1	4.9	1.4	0.7	3	1.052	0.001	R	1	0.7	935.115	937.982	939.034	939.036	0
2	22102703	275	High	1.5	Precise	1	36	33	31	2.4	3.8	0.8	33	36	31	3.8	2.4	0.8	1	0.720	0.001	D	36	2.4	939.540	941.155	941.874	941.877	0
2	22102703	276	High	1.5	Precise	1	22	34	21	1.4	4.9	0.4	21	22	34	0.4	1.4	4.9	1	1.092	0.001	D	22	1.4	942.380	943.543	944.634	944.636	0
2	22102703	277	High	1.5	Vague	2	28	36	17	1.8	2.4	0.4	17	36	28	0.4	2.4	1.8	2	0.650	0.000	D	36	2.4	945.139	948.080	948.730	948.732	0
2	22102703	278	High	1.5	Vague	2	33	34	13	3.8	4.9	0.1	13	33	34	0.1	3.8	4.9	2	1.342	0.001	R	34	4.9	949.235	950.828	952.170	952.173	0
2	22102703	279	High	1.5	Precise	1	28	34	23	1.8	4.9	0.2	28	23	34	1.8	0.2	4.9	2	1.015	0.000	R	34	4.9	952.676	955.659	956.674	956.676	0
2	22102703	280	High	1.5	Precise	1	22	28	23	1.4	1.8	0.2	28	23	22	1.8	0.2	1.4	1	1.303	0.000	R	22	1.4	957.179	958.234	959.538	959.540	0
2	22102703	281	High	1.5	Precise	1	22	33	24	1.4	3.8	0.0	24	22	33	0.0	1.4	3.8	1	1.293	0.000	D	22	1.4	960.043	960.605	961.898	961.900	0
2	22102703	282	High	1.5	Precise	1	28	36	26	1.8	2.4	0.5	26	36	28	0.5	2.4	1.8	2	0.763	0.000	D	36	2.4	962.403	964.567	965.330	965.332	0
2	22102703	283	High	1.5	Precise	1	28	34	21	1.8	4.9	0.4	28	21	34	1.8	0.4	4.9	2	1.084	0.001	R	34	4.9	965.835	967.950	969.034	969.036	0
2	22102703	284	High	1.5	Vague	2	22	33	16	1.4	3.8	0.3	16	33	22	0.3	3.8	1.4	1	0.867	0.001	R	22	1.4	969.539	971.335	972.202	972.205	0
2	22102703	285	High	1.5	Precise	1	36	33	23	2.4	3.8	0.2	36	23	33	2.4	0.2	3.8	1	0.697	0.001	L	36	2.4	972.708	975.497	976.194	976.197	0
2	22102703	286	High	1.5	Precise	1	22	27	26	1.4	1.6	0.5	22	26	27	1.4	0.5	1.6	1	1.023	0.001	L	22	1.4	976.699	979.491	980.514	980.516	0
2	22102703	287	High	1.5	Precise	1	28	33	23	1.8	3.8	0.2	33	28	23	3.8	1.8	0.2	NaN	NaN	NaN	NaN	NaN	NaN	981.019	982.683	NaN	984.174	1
2	22102703	288	High	1.5	Vague	2	22	33	17	1.4	3.8	0.4	22	17	33	1.4	0.4	3.8	1	0.894	0.000	L	22	1.4	986.177	986.932	987.826	987.829	0
2	22102703	289	High	1.5	Vague	2	28	34	16	1.8	4.9	0.3	16	28	34	0.3	1.8	4.9	NaN	NaN	NaN	NaN	NaN	NaN	988.331	989.725	NaN	991.212	1
2	22102703	290	High	1.5	Vague	2	27	36	3	1.6	2.4	0.7	3	27	36	0.7	1.6	2.4	2	0.686	0.001	R	36	2.4	993.215	994.164	994.850	994.852	0
2	22102703	291	High	1.5	Vague	2	22	33	3	1.4	3.8	0.7	22	3	33	1.4	0.7	3.8	1	0.898	0.001	L	22	1.4	995.356	996.840	997.738	997.740	0
2	22102703	292	High	1.5	Vague	2	22	27	3	1.4	1.6	0.7	22	3	27	1.4	0.7	1.6	1	0.617	0.000	L	22	1.4	998.243	1000.297	1000.914	1000.916	0
2	22102703	293	High	1.5	Precise	1	27	36	31	1.6	2.4	0.8	36	27	31	2.4	1.6	0.8	2	0.599	0.001	L	36	2.4	1001.419	1002.683	1003.282	1003.285	0
2	22102703	294	High	1.5	Precise	1	36	34	24	2.4	4.9	0.0	36	24	34	2.4	0.0	4.9	1	0.730	0.001	L	36	2.4	1003.788	1004.312	1005.042	1005.044	0
2	22102703	295	High	1.5	Precise	1	22	36	26	1.4	2.4	0.5	22	26	36	1.4	0.5	2.4	2	0.553	0.000	R	36	2.4	1005.548	1006.728	1007.282	1007.284	0
2	22102703	296	High	1.5	Precise	1	22	34	23	1.4	4.9	0.2	34	22	23	4.9	1.4	0.2	1	0.875	0.001	D	22	1.4	1007.787	1010.087	1010.962	1010.964	0
2	22102703	297	High	1.5	Vague	2	28	33	17	1.8	3.8	0.4	17	28	33	0.4	1.8	3.8	2	1.145	0.001	R	33	3.8	1011.467	1012.281	1013.426	1013.428	0
2	22102703	298	High	1.5	Precise	1	33	34	21	3.8	4.9	0.4	34	33	21	4.9	3.8	0.4	1	1.026	0.001	D	33	3.8	1013.931	1015.800	1016.826	1016.828	0
2	22102703	299	High	1.5	Precise	1	36	33	21	2.4	3.8	0.4	21	36	33	0.4	2.4	3.8	1	0.653	0.001	D	36	2.4	1017.331	1019.693	1020.346	1020.348	0
2	22102703	300	High	1.5	Vague	2	27	36	16	1.6	2.4	0.3	27	36	16	1.6	2.4	0.3	2	0.586	0.001	D	36	2.4	1020.851	1023.232	1023.818	1023.821	0
2	22102703	301	High	1.5	Precise	1	22	33	23	1.4	3.8	0.2	33	23	22	3.8	0.2	1.4	1	1.079	0.000	R	22	1.4	1033.712	1036.475	1037.554	1037.556	0
2	22102703	302	High	1.5	Precise	1	28	33	21	1.8	3.8	0.4	28	21	33	1.8	0.4	3.8	NaN	NaN	NaN	NaN	NaN	NaN	1038.059	1040.837	NaN	1042.327	1
2	22102703	303	High	1.5	Vague	2	27	33	5	1.6	3.8	0.6	27	33	5	1.6	3.8	0.6	1	0.853	0.000	L	27	1.6	1044.330	1046.996	1047.850	1047.852	0
2	22102703	304	High	1.5	Precise	1	28	34	31	1.8	4.9	0.8	31	34	28	0.8	4.9	1.8	2	1.214	0.001	D	34	4.9	1048.355	1050.892	1052.106	1052.108	0
2	22102703	305	High	1.5	Vague	2	27	33	17	1.6	3.8	0.4	27	33	17	1.6	3.8	0.4	1	0.836	0.001	L	27	1.6	1052.612	1054.382	1055.218	1055.220	0
2	22102703	306	High	1.5	Vague	2	36	34	17	2.4	4.9	0.4	17	36	34	0.4	2.4	4.9	1	0.670	0.001	D	36	2.4	1055.723	1056.580	1057.250	1057.252	0
2	22102703	307	High	1.5	Precise	1	27	28	23	1.6	1.8	0.2	27	28	23	1.6	1.8	0.2	1	0.625	0.001	L	27	1.6	1057.756	1058.697	1059.322	1059.324	0
2	22102703	308	High	1.5	Precise	1	27	36	35	1.6	2.4	0.3	35	36	27	0.3	2.4	1.6	2	0.618	0.001	D	36	2.4	1059.827	1062.592	1063.210	1063.213	0
2	22102703	309	High	1.5	Vague	2	22	34	17	1.4	4.9	0.4	34	17	22	4.9	0.4	1.4	1	1.006	0.001	R	22	1.4	1063.716	1066.436	1067.442	1067.444	0
2	22102703	310	High	1.5	Vague	2	22	34	13	1.4	4.9	0.1	34	13	22	4.9	0.1	1.4	1	0.774	0.001	R	22	1.4	1067.947	1070.900	1071.674	1071.676	0
2	22102703	311	High	1.5	Vague	2	36	33	1	2.4	3.8	0.7	36	1	33	2.4	0.7	3.8	3	1.268	0.001	D	1	0.7	1072.179	1073.198	1074.466	1074.469	0
2	22102703	312	High	1.5	Vague	2	27	33	3	1.6	3.8	0.7	27	3	33	1.6	0.7	3.8	1	1.060	0.000	L	27	1.6	1074.972	1077.590	1078.650	1078.652	0
2	22102703	313	High	1.5	Vague	2	22	36	3	1.4	2.4	0.7	22	3	36	1.4	0.7	2.4	2	0.608	0.000	R	36	2.4	1079.155	1081.146	1081.754	1081.756	0
2	22102703	314	High	1.5	Vague	2	27	34	17	1.6	4.9	0.4	17	34	27	0.4	4.9	1.6	1	1.083	0.000	R	27	1.6	1082.259	1084.343	1085.426	1085.428	0
2	22102703	315	High	1.5	Precise	1	33	34	23	3.8	4.9	0.2	23	34	33	0.2	4.9	3.8	1	1.046	0.001	R	33	3.8	1085.931	1088.772	1089.818	1089.820	0
2	22102703	316	High	1.5	Vague	2	28	34	17	1.8	4.9	0.4	28	17	34	1.8	0.4	4.9	2	1.371	0.001	R	34	4.9	1090.323	1091.999	1093.370	1093.372	0
2	22102703	317	High	1.5	Precise	1	22	36	31	1.4	2.4	0.8	22	36	31	1.4	2.4	0.8	2	0.670	0.001	D	36	2.4	1093.875	1096.572	1097.242	1097.244	0
2	22102703	318	High	1.5	Precise	1	22	28	24	1.4	1.8	0.0	24	28	22	0.0	1.8	1.4	1	0.886	0.000	R	22	1.4	1097.747	1100.612	1101.498	1101.500	0
2	22102703	319	High	1.5	Vague	2	28	33	5	1.8	3.8	0.6	5	33	28	0.6	3.8	1.8	3	1.095	0.000	L	5	0.6	1102.003	1103.530	1104.626	1104.628	0
2	22102703	320	High	1.5	Precise	1	22	33	31	1.4	3.8	0.8	22	33	31	1.4	3.8	0.8	1	1.154	0.000	L	22	1.4	1105.131	1107.367	1108.522	1108.524	0
2	22102703	321	High	1.5	Vague	2	22	33	1	1.4	3.8	0.7	1	33	22	0.7	3.8	1.4	NaN	NaN	NaN	NaN	NaN	NaN	1109.027	1111.058	NaN	1112.545	1
2	22102703	322	High	1.5	Vague	2	28	33	13	1.8	3.8	0.1	13	33	28	0.1	3.8	1.8	2	1.244	0.001	D	33	3.8	1114.548	1116.166	1117.410	1117.412	0
2	22102703	323	High	1.5	Vague	2	36	33	16	2.4	3.8	0.3	36	16	33	2.4	0.3	3.8	1	0.808	0.001	L	36	2.4	1117.915	1119.114	1119.922	1119.924	0
2	22102703	324	High	1.5	Precise	1	22	28	35	1.4	1.8	0.3	22	35	28	1.4	0.3	1.8	1	0.813	0.001	L	22	1.4	1120.427	1122.204	1123.018	1123.020	0
2	22102703	325	High	1.5	Vague	2	33	34	16	3.8	4.9	0.3	16	33	34	0.3	3.8	4.9	1	0.974	0.001	D	33	3.8	1123.523	1124.364	1125.338	1125.340	0
2	22102703	326	High	1.5	Vague	2	27	28	17	1.6	1.8	0.4	17	27	28	0.4	1.6	1.8	1	0.814	0.001	D	27	1.6	1125.843	1128.540	1129.354	1129.356	0
2	22102703	327	High	1.5	Precise	1	28	36	31	1.8	2.4	0.8	31	28	36	0.8	1.8	2.4	2	0.596	0.001	R	36	2.4	1129.859	1130.934	1131.530	1131.532	0
2	22102703	328	High	1.5	Precise	1	27	36	21	1.6	2.4	0.4	27	36	21	1.6	2.4	0.4	2	0.557	0.001	D	36	2.4	1132.035	1134.204	1134.762	1134.764	0
2	22102703	329	High	1.5	Precise	1	28	33	24	1.8	3.8	0.0	24	28	33	0.0	1.8	3.8	2	1.039	0.001	R	33	3.8	1135.267	1138.138	1139.178	1139.181	0
2	22102703	330	High	1.5	Vague	2	36	34	13	2.4	4.9	0.1	34	13	36	4.9	0.1	2.4	1	0.648	0.000	R	36	2.4	1139.683	1142.490	1143.138	1143.140	0
2	22102703	331	High	1.5	Precise	1	33	34	26	3.8	4.9	0.5	34	33	26	4.9	3.8	0.5	1	1.235	0.000	D	33	3.8	1143.643	1145.174	1146.410	1146.412	0
2	22102703	332	High	1.5	Vague	2	33	34	5	3.8	4.9	0.6	5	34	33	0.6	4.9	3.8	3	0.882	0.001	L	5	0.6	1146.914	1149.568	1150.450	1150.452	0
2	22102703	333	High	1.5	Vague	2	22	27	13	1.4	1.6	0.1	13	27	22	0.1	1.6	1.4	1	0.646	0.000	R	22	1.4	1150.955	1152.228	1152.873	1152.876	0
2	22102703	334	High	1.5	Vague	2	28	36	13	1.8	2.4	0.1	13	28	36	0.1	1.8	2.4	2	0.638	0.001	R	36	2.4	1153.379	1154.283	1154.922	1154.924	0
2	22102703	335	High	1.5	Precise	1	22	34	26	1.4	4.9	0.5	26	34	22	0.5	4.9	1.4	1	0.948	0.001	R	22	1.4	1155.427	1156.965	1157.913	1157.916	0
2	22102703	336	High	1.5	Vague	2	28	36	5	1.8	2.4	0.6	5	36	28	0.6	2.4	1.8	2	0.695	0.000	D	36	2.4	1158.419	1159.138	1159.834	1159.836	0
2	22102703	337	High	1.5	Precise	1	27	28	31	1.6	1.8	0.8	28	27	31	1.8	1.6	0.8	1	0.809	0.001	D	27	1.6	1160.339	1162.073	1162.882	1162.884	0
2	22102703	338	High	1.5	Vague	2	28	33	16	1.8	3.8	0.3	28	33	16	1.8	3.8	0.3	2	0.911	0.001	D	33	3.8	1163.387	1164.779	1165.690	1165.692	0
2	22102703	339	High	1.5	Vague	2	36	34	1	2.4	4.9	0.7	36	1	34	2.4	0.7	4.9	1	0.604	0.000	L	36	2.4	1166.195	1167.077	1167.681	1167.684	0
2	22102703	340	High	1.5	Precise	1	27	34	21	1.6	4.9	0.4	27	34	21	1.6	4.9	0.4	1	0.830	0.000	L	27	1.6	1168.187	1170.987	1171.817	1171.820	0
2	22102703	341	High	1.5	Precise	1	22	36	21	1.4	2.4	0.4	21	22	36	0.4	1.4	2.4	2	0.596	0.001	R	36	2.4	1172.323	1173.046	1173.642	1173.644	0
2	22102703	342	High	1.5	Vague	2	27	36	1	1.6	2.4	0.7	1	27	36	0.7	1.6	2.4	2	0.633	0.001	R	36	2.4	1174.146	1174.841	1175.474	1175.476	0
2	22102703	343	High	1.5	Vague	2	27	36	17	1.6	2.4	0.4	27	17	36	1.6	0.4	2.4	2	0.440	0.001	R	36	2.4	1175.979	1176.482	1176.922	1176.924	0
2	22102703	344	High	1.5	Vague	2	22	34	5	1.4	4.9	0.6	34	22	5	4.9	1.4	0.6	1	1.022	0.001	D	22	1.4	1177.427	1178.428	1179.450	1179.452	0
2	22102703	345	High	1.5	Vague	2	27	33	1	1.6	3.8	0.7	33	1	27	3.8	0.7	1.6	3	0.915	0.001	D	1	0.7	1179.955	1182.126	1183.042	1183.044	0
2	22102703	346	High	1.5	Vague	2	22	27	17	1.4	1.6	0.4	27	17	22	1.6	0.4	1.4	2	0.959	0.000	L	27	1.6	1183.547	1185.458	1186.417	1186.420	0
2	22102703	347	High	1.5	Precise	1	27	33	21	1.6	3.8	0.4	33	27	21	3.8	1.6	0.4	1	0.700	0.001	D	27	1.6	1186.923	1188.694	1189.394	1189.396	0
2	22102703	348	High	1.5	Precise	1	36	33	24	2.4	3.8	0.0	33	36	24	3.8	2.4	0.0	1	0.613	0.001	D	36	2.4	1189.899	1191.573	1192.186	1192.188	0
2	22102703	349	High	1.5	Vague	2	36	34	3	2.4	4.9	0.7	34	36	3	4.9	2.4	0.7	1	0.631	0.001	D	36	2.4	1192.690	1195.171	1195.802	1195.804	0
2	22102703	350	High	1.5	Vague	2	27	36	5	1.6	2.4	0.6	5	36	27	0.6	2.4	1.6	2	1.118	0.001	D	36	2.4	1196.308	1196.844	1197.962	1197.964	0
2	22102703	351	High	1.5	Vague	2	36	34	16	2.4	4.9	0.3	34	36	16	4.9	2.4	0.3	1	0.498	0.000	D	36	2.4	1198.466	1200.071	1200.570	1200.572	0
2	22102703	352	High	1.5	Precise	1	27	34	26	1.6	4.9	0.5	27	26	34	1.6	0.5	4.9	1	0.825	0.001	L	27	1.6	1201.075	1202.528	1203.354	1203.356	0
2	22102703	353	High	1.5	Precise	1	28	34	26	1.8	4.9	0.5	26	28	34	0.5	1.8	4.9	2	0.868	0.001	R	34	4.9	1203.859	1205.510	1206.378	1206.380	0
2	22102703	354	High	1.5	Precise	1	22	33	35	1.4	3.8	0.3	33	22	35	3.8	1.4	0.3	1	0.753	0.000	D	22	1.4	1206.883	1209.713	1210.466	1210.468	0
2	22102703	355	High	1.5	Precise	1	27	28	21	1.6	1.8	0.4	28	27	21	1.8	1.6	0.4	1	0.649	0.001	D	27	1.6	1210.971	1212.321	1212.970	1212.972	0
2	22102703	356	High	1.5	Vague	2	22	34	16	1.4	4.9	0.3	22	16	34	1.4	0.3	4.9	1	1.013	0.001	L	22	1.4	1213.475	1216.109	1217.122	1217.124	0
2	22102703	357	High	1.5	Vague	2	22	28	17	1.4	1.8	0.4	17	28	22	0.4	1.8	1.4	1	0.759	0.000	R	22	1.4	1217.627	1219.843	1220.602	1220.604	0
2	22102703	358	High	1.5	Precise	1	27	28	24	1.6	1.8	0.0	28	27	24	1.8	1.6	0.0	1	1.268	0.001	D	27	1.6	1221.107	1222.518	1223.786	1223.788	0
2	22102703	359	High	1.5	Vague	2	27	34	5	1.6	4.9	0.6	34	27	5	4.9	1.6	0.6	1	1.129	0.000	D	27	1.6	1224.291	1225.025	1226.154	1226.156	0
2	22102703	360	High	1.5	Precise	1	28	33	31	1.8	3.8	0.8	33	31	28	3.8	0.8	1.8	2	1.035	0.000	L	33	3.8	1226.659	1227.422	1228.457	1228.460	0
