Group	subID	trial	TimePressure	TimeConstraint	Vagueness	Vaguenesscode	ID1	ID2	ID3	V1	V2	V3	ID_left	ID_middle	ID_right	Bid_left	Bid_middle	Bid_right	chosenItem	RT	RTvariance	chosenPosition	chosenID	chosenValue	fixation_time	option_time	choice_time	feedback_time	timeout
2	22071401	1	Low	10.0	Vague	2	26	33	14	5.6	6.6	3.2	33	14	26	6.6	3.2	5.6	2	2.563	0.000	L	33	6.6	4.923	6.253	8.815	8.820	0
2	22071401	2	Low	10.0	Vague	2	26	33	13	5.6	6.6	2.8	13	26	33	2.8	5.6	6.6	1	2.085	0.000	D	26	5.6	9.325	11.827	13.912	13.915	0
2	22071401	3	Low	10.0	Vague	2	32	35	7	4.1	5.1	0.0	35	32	7	5.1	4.1	0.0	2	2.215	0.000	L	35	5.1	14.419	15.001	17.216	17.218	0
2	22071401	4	Low	10.0	Precise	1	34	33	28	6.2	6.6	3.9	34	33	28	6.2	6.6	3.9	1	1.038	0.001	L	34	6.2	17.722	20.378	21.416	21.419	0
2	22071401	5	Low	10.0	Vague	2	35	26	2	5.1	5.6	0.0	35	2	26	5.1	0.0	5.6	1	1.572	0.001	L	35	5.1	21.922	23.532	25.104	25.108	0
2	22071401	6	Low	10.0	Vague	2	32	34	13	4.1	6.2	2.8	34	13	32	6.2	2.8	4.1	1	2.330	0.000	R	32	4.1	25.614	27.757	30.088	30.091	0
2	22071401	7	Low	10.0	Precise	1	26	33	19	5.6	6.6	0.0	26	19	33	5.6	0.0	6.6	2	1.704	0.001	R	33	6.6	30.593	32.879	34.584	34.586	0
2	22071401	8	Low	10.0	Vague	2	32	26	13	4.1	5.6	2.8	26	13	32	5.6	2.8	4.1	2	1.131	0.000	L	26	5.6	35.089	37.045	38.176	38.178	0
2	22071401	9	Low	10.0	Precise	1	34	36	19	6.2	7.9	0.0	34	19	36	6.2	0.0	7.9	2	1.423	0.000	R	36	7.9	38.682	40.041	41.464	41.467	0
2	22071401	10	Low	10.0	Vague	2	35	26	7	5.1	5.6	0.0	26	35	7	5.6	5.1	0.0	1	1.486	0.000	D	35	5.1	41.970	43.282	44.768	44.770	0
2	22071401	11	Low	10.0	Vague	2	32	34	6	4.1	6.2	1.4	6	32	34	1.4	4.1	6.2	2	0.997	0.000	R	34	6.2	45.273	45.867	46.863	46.866	0
2	22071401	12	Low	10.0	Precise	1	32	36	19	4.1	7.9	0.0	32	19	36	4.1	0.0	7.9	2	1.577	0.000	R	36	7.9	47.368	48.999	50.575	50.578	0
2	22071401	13	Low	10.0	Precise	1	35	34	19	5.1	6.2	0.0	35	19	34	5.1	0.0	6.2	1	1.683	0.000	L	35	5.1	51.081	53.925	55.608	55.610	0
2	22071401	14	Low	10.0	Precise	1	33	36	23	6.6	7.9	0.0	23	33	36	0.0	6.6	7.9	2	1.256	0.000	R	36	7.9	56.113	57.999	59.255	59.258	0
2	22071401	15	Low	10.0	Vague	2	34	33	9	6.2	6.6	3.7	33	9	34	6.6	3.7	6.2	2	1.991	0.000	L	33	6.6	59.760	62.072	64.063	64.066	0
2	22071401	16	Low	10.0	Precise	1	34	33	24	6.2	6.6	2.2	24	34	33	2.2	6.2	6.6	2	1.376	0.000	R	33	6.6	64.569	66.992	68.368	68.370	0
2	22071401	17	Low	10.0	Vague	2	26	36	14	5.6	7.9	3.2	14	26	36	3.2	5.6	7.9	2	1.819	0.001	R	36	7.9	68.873	69.844	71.664	71.666	0
2	22071401	18	Low	10.0	Precise	1	26	36	19	5.6	7.9	0.0	26	36	19	5.6	7.9	0.0	2	1.444	0.000	D	36	7.9	72.169	74.227	75.672	75.674	0
2	22071401	19	Low	10.0	Vague	2	35	33	14	5.1	6.6	3.2	14	35	33	3.2	5.1	6.6	2	1.431	0.000	R	33	6.6	76.177	76.929	78.360	78.362	0
2	22071401	20	Low	10.0	Precise	1	35	36	19	5.1	7.9	0.0	19	36	35	0.0	7.9	5.1	2	1.194	0.001	D	36	7.9	78.865	80.278	81.472	81.474	0
2	22071401	21	Low	10.0	Precise	1	32	34	21	4.1	6.2	0.0	34	32	21	6.2	4.1	0.0	1	1.526	0.001	D	32	4.1	81.977	83.714	85.240	85.242	0
2	22071401	22	Low	10.0	Precise	1	35	36	29	5.1	7.9	3.5	35	36	29	5.1	7.9	3.5	2	1.588	0.001	D	36	7.9	85.746	87.876	89.464	89.466	0
2	22071401	23	Low	10.0	Vague	2	34	36	13	6.2	7.9	2.8	36	34	13	7.9	6.2	2.8	2	1.170	0.000	L	36	7.9	89.969	92.174	93.343	93.346	0
2	22071401	24	Low	10.0	Vague	2	33	36	13	6.6	7.9	2.8	36	13	33	7.9	2.8	6.6	2	1.098	0.000	L	36	7.9	93.849	96.422	97.520	97.522	0
2	22071401	25	Low	10.0	Precise	1	26	36	21	5.6	7.9	0.0	36	26	21	7.9	5.6	0.0	2	0.931	0.000	L	36	7.9	98.025	100.116	101.047	101.050	0
2	22071401	26	Low	10.0	Precise	1	26	36	29	5.6	7.9	3.5	29	36	26	3.5	7.9	5.6	2	1.573	0.000	D	36	7.9	101.552	104.475	106.048	106.050	0
2	22071401	27	Low	10.0	Vague	2	32	33	13	4.1	6.6	2.8	33	13	32	6.6	2.8	4.1	2	1.702	0.000	L	33	6.6	106.554	107.738	109.440	109.442	0
2	22071401	28	Low	10.0	Precise	1	35	34	24	5.1	6.2	2.2	24	35	34	2.2	5.1	6.2	1	1.672	0.000	D	35	5.1	109.945	111.143	112.816	112.818	0
2	22071401	29	Low	10.0	Precise	1	32	33	21	4.1	6.6	0.0	32	33	21	4.1	6.6	0.0	2	1.423	0.000	D	33	6.6	113.321	114.608	116.031	116.034	0
2	22071401	30	Low	10.0	Precise	1	35	36	24	5.1	7.9	2.2	36	24	35	7.9	2.2	5.1	2	0.930	0.000	L	36	7.9	116.536	118.286	119.216	119.218	0
2	22071401	31	Low	10.0	Precise	1	32	33	29	4.1	6.6	3.5	33	29	32	6.6	3.5	4.1	2	1.347	0.000	L	33	6.6	119.721	121.028	122.375	122.378	0
2	22071401	32	Low	10.0	Vague	2	32	36	9	4.1	7.9	3.7	9	32	36	3.7	4.1	7.9	2	1.308	0.001	R	36	7.9	122.881	124.676	125.984	125.986	0
2	22071401	33	Low	10.0	Vague	2	32	36	2	4.1	7.9	0.0	32	2	36	4.1	0.0	7.9	2	0.825	0.001	R	36	7.9	126.488	129.207	130.032	130.034	0
2	22071401	34	Low	10.0	Precise	1	33	36	24	6.6	7.9	2.2	24	36	33	2.2	7.9	6.6	2	0.965	0.000	D	36	7.9	130.537	131.243	132.207	132.210	0
2	22071401	35	Low	10.0	Vague	2	34	36	14	6.2	7.9	3.2	36	14	34	7.9	3.2	6.2	2	0.827	0.000	L	36	7.9	132.713	133.460	134.288	134.290	0
2	22071401	36	Low	10.0	Precise	1	26	34	29	5.6	6.2	3.5	34	29	26	6.2	3.5	5.6	1	1.950	0.001	R	26	5.6	134.793	135.362	137.312	137.314	0
2	22071401	37	Low	10.0	Precise	1	26	34	28	5.6	6.2	3.9	28	34	26	3.9	6.2	5.6	1	1.633	0.000	R	26	5.6	137.817	138.655	140.288	140.290	0
2	22071401	38	Low	10.0	Precise	1	26	36	23	5.6	7.9	0.0	23	36	26	0.0	7.9	5.6	2	1.203	0.001	D	36	7.9	140.793	142.876	144.080	144.082	0
2	22071401	39	Low	10.0	Vague	2	26	33	9	5.6	6.6	3.7	9	26	33	3.7	5.6	6.6	2	1.890	0.001	R	33	6.6	144.584	146.669	148.560	148.562	0
2	22071401	40	Low	10.0	Vague	2	35	33	9	5.1	6.6	3.7	9	35	33	3.7	5.1	6.6	2	2.377	0.000	R	33	6.6	149.065	151.847	154.224	154.226	0
2	22071401	41	Low	10.0	Precise	1	35	34	29	5.1	6.2	3.5	35	29	34	5.1	3.5	6.2	1	1.473	0.001	L	35	5.1	154.730	156.967	158.440	158.443	0
2	22071401	42	Low	10.0	Precise	1	32	36	28	4.1	7.9	3.9	28	32	36	3.9	4.1	7.9	2	1.268	0.000	R	36	7.9	158.946	161.092	162.359	162.362	0
2	22071401	43	Low	10.0	Vague	2	32	35	6	4.1	5.1	1.4	32	35	6	4.1	5.1	1.4	1	1.258	0.000	L	32	4.1	162.864	164.678	165.936	165.938	0
2	22071401	44	Low	10.0	Precise	1	26	33	28	5.6	6.6	3.9	26	28	33	5.6	3.9	6.6	2	1.761	0.000	R	33	6.6	166.441	168.287	170.048	170.050	0
2	22071401	45	Low	10.0	Precise	1	33	36	21	6.6	7.9	0.0	33	21	36	6.6	0.0	7.9	2	0.729	0.001	R	36	7.9	170.554	172.751	173.480	173.483	0
2	22071401	46	Low	10.0	Precise	1	34	33	21	6.2	6.6	0.0	21	33	34	0.0	6.6	6.2	2	1.564	0.001	D	33	6.6	173.985	174.548	176.112	176.114	0
2	22071401	47	Low	10.0	Precise	1	32	34	24	4.1	6.2	2.2	32	34	24	4.1	6.2	2.2	2	1.463	0.000	D	34	6.2	176.617	179.137	180.600	180.602	0
2	22071401	48	Low	10.0	Vague	2	26	34	6	5.6	6.2	1.4	34	6	26	6.2	1.4	5.6	1	1.697	0.000	R	26	5.6	181.106	183.950	185.647	185.650	0
2	22071401	49	Low	10.0	Precise	1	32	26	19	4.1	5.6	0.0	26	19	32	5.6	0.0	4.1	1	1.764	0.000	R	32	4.1	186.153	187.539	189.304	189.306	0
2	22071401	50	Low	10.0	Precise	1	32	35	21	4.1	5.1	0.0	21	35	32	0.0	5.1	4.1	2	1.498	0.000	D	35	5.1	189.809	192.718	194.216	194.218	0
2	22071401	51	Low	10.0	Vague	2	34	36	9	6.2	7.9	3.7	9	34	36	3.7	6.2	7.9	2	1.999	0.000	R	36	7.9	194.721	195.969	197.968	197.970	0
2	22071401	52	Low	10.0	Precise	1	32	34	23	4.1	6.2	0.0	32	34	23	4.1	6.2	0.0	1	2.455	0.000	L	32	4.1	198.472	201.040	203.495	203.498	0
2	22071401	53	Low	10.0	Precise	1	32	26	28	4.1	5.6	3.9	32	26	28	4.1	5.6	3.9	1	1.368	0.000	L	32	4.1	204.001	205.823	207.191	207.194	0
2	22071401	54	Low	10.0	Precise	1	34	36	21	6.2	7.9	0.0	34	21	36	6.2	0.0	7.9	2	0.892	0.000	R	36	7.9	207.698	209.876	210.768	210.770	0
2	22071401	55	Low	10.0	Precise	1	32	35	23	4.1	5.1	0.0	23	32	35	0.0	4.1	5.1	2	1.557	0.000	R	35	5.1	211.273	211.874	213.431	213.434	0
2	22071401	56	Low	10.0	Vague	2	26	33	7	5.6	6.6	0.0	26	33	7	5.6	6.6	0.0	2	1.859	0.000	D	33	6.6	213.937	215.109	216.968	216.970	0
2	22071401	57	Low	10.0	Precise	1	26	33	29	5.6	6.6	3.5	29	26	33	3.5	5.6	6.6	2	1.208	0.000	R	33	6.6	217.473	219.080	220.288	220.290	0
2	22071401	58	Low	10.0	Vague	2	35	36	6	5.1	7.9	1.4	6	35	36	1.4	5.1	7.9	2	0.812	0.000	R	36	7.9	220.793	223.643	224.455	224.458	0
2	22071401	59	Low	10.0	Vague	2	35	26	9	5.1	5.6	3.7	26	35	9	5.6	5.1	3.7	1	1.224	0.000	D	35	5.1	224.960	227.368	228.591	228.594	0
2	22071401	60	Low	10.0	Precise	1	34	33	29	6.2	6.6	3.5	33	34	29	6.6	6.2	3.5	2	1.971	0.000	L	33	6.6	229.096	229.684	231.655	231.658	0
2	22071401	61	Low	10.0	Precise	1	34	33	19	6.2	6.6	0.0	33	19	34	6.6	0.0	6.2	2	1.070	0.001	L	33	6.6	253.668	254.858	255.928	255.930	0
2	22071401	62	Low	10.0	Precise	1	32	34	28	4.1	6.2	3.9	28	32	34	3.9	4.1	6.2	1	1.829	0.000	D	32	4.1	256.433	258.267	260.096	260.099	0
2	22071401	63	Low	10.0	Vague	2	32	36	13	4.1	7.9	2.8	36	32	13	7.9	4.1	2.8	2	1.276	0.000	L	36	7.9	260.603	262.140	263.416	263.418	0
2	22071401	64	Low	10.0	Vague	2	32	33	2	4.1	6.6	0.0	33	2	32	6.6	0.0	4.1	2	0.953	0.000	L	33	6.6	263.921	266.463	267.415	267.418	0
2	22071401	65	Low	10.0	Precise	1	32	26	29	4.1	5.6	3.5	29	32	26	3.5	4.1	5.6	2	1.675	0.000	R	26	5.6	267.920	269.956	271.631	271.634	0
2	22071401	66	Low	10.0	Vague	2	32	33	7	4.1	6.6	0.0	7	32	33	0.0	4.1	6.6	2	2.088	0.001	R	33	6.6	272.137	275.063	277.152	277.154	0
2	22071401	67	Low	10.0	Vague	2	35	33	7	5.1	6.6	0.0	35	7	33	5.1	0.0	6.6	2	1.025	0.001	R	33	6.6	277.658	280.287	281.312	281.314	0
2	22071401	68	Low	10.0	Vague	2	34	33	13	6.2	6.6	2.8	13	33	34	2.8	6.6	6.2	2	1.518	0.000	D	33	6.6	281.817	283.994	285.512	285.514	0
2	22071401	69	Low	10.0	Precise	1	32	36	21	4.1	7.9	0.0	36	21	32	7.9	0.0	4.1	2	1.347	0.000	L	36	7.9	286.016	287.621	288.968	288.970	0
2	22071401	70	Low	10.0	Precise	1	26	34	21	5.6	6.2	0.0	34	21	26	6.2	0.0	5.6	1	1.690	0.000	R	26	5.6	289.473	290.558	292.247	292.250	0
2	22071401	71	Low	10.0	Precise	1	35	26	28	5.1	5.6	3.9	28	26	35	3.9	5.6	5.1	1	2.237	0.000	R	35	5.1	292.753	293.514	295.751	295.754	0
2	22071401	72	Low	10.0	Vague	2	32	35	2	4.1	5.1	0.0	2	32	35	0.0	4.1	5.1	2	1.202	0.001	R	35	5.1	296.256	296.941	298.144	298.146	0
2	22071401	73	Low	10.0	Precise	1	32	35	19	4.1	5.1	0.0	32	19	35	4.1	0.0	5.1	2	1.262	0.000	R	35	5.1	298.649	300.225	301.488	301.490	0
2	22071401	74	Low	10.0	Precise	1	34	36	23	6.2	7.9	0.0	23	36	34	0.0	7.9	6.2	2	0.977	0.000	D	36	7.9	301.992	302.487	303.463	303.466	0
2	22071401	75	Low	10.0	Precise	1	34	36	28	6.2	7.9	3.9	34	28	36	6.2	3.9	7.9	3	0.295	0.000	D	28	3.9	303.968	306.760	307.056	307.058	0
2	22071401	76	Low	10.0	Vague	2	26	34	2	5.6	6.2	0.0	26	34	2	5.6	6.2	0.0	1	1.311	0.000	L	26	5.6	307.561	308.337	309.647	309.650	0
2	22071401	77	Low	10.0	Vague	2	35	33	13	5.1	6.6	2.8	35	33	13	5.1	6.6	2.8	1	1.008	0.000	L	35	5.1	310.152	310.839	311.847	311.850	0
2	22071401	78	Low	10.0	Vague	2	35	26	14	5.1	5.6	3.2	14	26	35	3.2	5.6	5.1	1	1.078	0.000	R	35	5.1	312.352	313.625	314.703	314.706	0
2	22071401	79	Low	10.0	Precise	1	35	33	24	5.1	6.6	2.2	33	35	24	6.6	5.1	2.2	1	1.087	0.000	D	35	5.1	315.209	317.185	318.272	318.274	0
2	22071401	80	Low	10.0	Precise	1	26	33	23	5.6	6.6	0.0	33	23	26	6.6	0.0	5.6	2	1.520	0.000	L	33	6.6	318.776	319.703	321.223	321.226	0
2	22071401	81	Low	10.0	Precise	1	26	36	24	5.6	7.9	2.2	36	26	24	7.9	5.6	2.2	2	0.916	0.000	L	36	7.9	321.729	323.628	324.544	324.546	0
2	22071401	82	Low	10.0	Precise	1	26	34	24	5.6	6.2	2.2	34	26	24	6.2	5.6	2.2	1	1.661	0.000	D	26	5.6	325.048	325.867	327.528	327.530	0
2	22071401	83	Low	10.0	Vague	2	26	34	14	5.6	6.2	3.2	26	14	34	5.6	3.2	6.2	1	1.369	0.000	L	26	5.6	328.033	330.750	332.120	332.122	0
2	22071401	84	Low	10.0	Precise	1	35	26	23	5.1	5.6	0.0	23	35	26	0.0	5.1	5.6	1	1.173	0.000	D	35	5.1	332.625	334.891	336.064	336.066	0
2	22071401	85	Low	10.0	Vague	2	35	34	9	5.1	6.2	3.7	9	35	34	3.7	5.1	6.2	2	1.482	0.000	R	34	6.2	336.568	339.525	341.007	341.010	0
2	22071401	86	Low	10.0	Precise	1	32	35	29	4.1	5.1	3.5	35	32	29	5.1	4.1	3.5	2	1.502	0.000	L	35	5.1	341.513	342.369	343.872	343.874	0
2	22071401	87	Low	10.0	Vague	2	35	34	13	5.1	6.2	2.8	34	35	13	6.2	5.1	2.8	1	0.329	0.001	D	35	5.1	344.378	346.823	347.152	347.155	0
2	22071401	88	Low	10.0	Vague	2	32	33	6	4.1	6.6	1.4	33	6	32	6.6	1.4	4.1	2	1.495	0.000	L	33	6.6	347.658	349.441	350.936	350.938	0
2	22071401	89	Low	10.0	Vague	2	32	35	14	4.1	5.1	3.2	14	35	32	3.2	5.1	4.1	2	0.953	0.000	D	35	5.1	351.441	353.159	354.112	354.114	0
2	22071401	90	Low	10.0	Vague	2	33	36	9	6.6	7.9	3.7	33	9	36	6.6	3.7	7.9	2	0.977	0.000	R	36	7.9	354.617	357.175	358.151	358.154	0
2	22071401	91	Low	10.0	Vague	2	32	34	2	4.1	6.2	0.0	2	32	34	0.0	4.1	6.2	1	2.238	0.001	D	32	4.1	358.656	359.561	361.800	361.802	0
2	22071401	92	Low	10.0	Vague	2	33	36	2	6.6	7.9	0.0	36	33	2	7.9	6.6	0.0	2	1.002	0.000	L	36	7.9	362.304	363.301	364.303	364.306	0
2	22071401	93	Low	10.0	Precise	1	26	36	28	5.6	7.9	3.9	28	36	26	3.9	7.9	5.6	2	0.734	0.001	D	36	7.9	364.808	366.906	367.640	367.643	0
2	22071401	94	Low	10.0	Precise	1	32	26	24	4.1	5.6	2.2	32	26	24	4.1	5.6	2.2	2	1.392	0.000	D	26	5.6	368.146	370.695	372.088	372.090	0
2	22071401	95	Low	10.0	Vague	2	34	33	7	6.2	6.6	0.0	7	33	34	0.0	6.6	6.2	2	1.457	0.000	D	33	6.6	372.594	374.895	376.352	376.354	0
2	22071401	96	Low	10.0	Vague	2	26	36	2	5.6	7.9	0.0	26	2	36	5.6	0.0	7.9	2	0.821	0.000	R	36	7.9	376.857	379.010	379.831	379.834	0
2	22071401	97	Low	10.0	Precise	1	35	26	24	5.1	5.6	2.2	24	35	26	2.2	5.1	5.6	1	0.995	0.001	D	35	5.1	380.338	381.956	382.952	382.954	0
2	22071401	98	Low	10.0	Vague	2	35	36	2	5.1	7.9	0.0	36	35	2	7.9	5.1	0.0	1	0.822	0.000	D	35	5.1	383.456	384.081	384.904	384.906	0
2	22071401	99	Low	10.0	Vague	2	32	26	2	4.1	5.6	0.0	2	32	26	0.0	4.1	5.6	2	1.107	0.000	R	26	5.6	385.408	386.933	388.039	388.042	0
2	22071401	100	Low	10.0	Precise	1	35	34	23	5.1	6.2	0.0	23	34	35	0.0	6.2	5.1	1	1.097	0.001	R	35	5.1	388.544	390.071	391.168	391.170	0
2	22071401	101	Low	10.0	Vague	2	35	33	6	5.1	6.6	1.4	33	35	6	6.6	5.1	1.4	2	1.338	0.001	L	33	6.6	391.673	392.798	394.136	394.138	0
2	22071401	102	Low	10.0	Vague	2	35	26	6	5.1	5.6	1.4	26	6	35	5.6	1.4	5.1	1	2.412	0.000	R	35	5.1	394.640	396.124	398.536	398.538	0
2	22071401	103	Low	10.0	Vague	2	34	36	7	6.2	7.9	0.0	7	34	36	0.0	6.2	7.9	2	0.833	0.000	R	36	7.9	399.041	399.950	400.783	400.786	0
2	22071401	104	Low	10.0	Vague	2	33	36	14	6.6	7.9	3.2	33	14	36	6.6	3.2	7.9	2	0.652	0.000	R	36	7.9	401.288	402.076	402.728	402.730	0
2	22071401	105	Low	10.0	Vague	2	32	26	9	4.1	5.6	3.7	9	32	26	3.7	4.1	5.6	1	1.625	0.000	D	32	4.1	403.233	406.206	407.832	407.834	0
2	22071401	106	Low	10.0	Precise	1	26	34	23	5.6	6.2	0.0	23	26	34	0.0	5.6	6.2	1	0.936	0.001	D	26	5.6	408.337	411.168	412.104	412.106	0
2	22071401	107	Low	10.0	Vague	2	32	36	6	4.1	7.9	1.4	32	36	6	4.1	7.9	1.4	2	0.896	0.000	D	36	7.9	412.610	414.383	415.280	415.282	0
2	22071401	108	Low	10.0	Precise	1	32	33	24	4.1	6.6	2.2	32	24	33	4.1	2.2	6.6	2	1.548	0.000	R	33	6.6	415.785	418.196	419.744	419.746	0
2	22071401	109	Low	10.0	Precise	1	32	34	29	4.1	6.2	3.5	34	32	29	6.2	4.1	3.5	1	1.690	0.000	D	32	4.1	420.249	421.269	422.959	422.962	0
2	22071401	110	Low	10.0	Precise	1	34	36	24	6.2	7.9	2.2	36	24	34	7.9	2.2	6.2	2	0.835	0.001	L	36	7.9	423.465	424.613	425.448	425.450	0
2	22071401	111	Low	10.0	Precise	1	34	33	23	6.2	6.6	0.0	33	23	34	6.6	0.0	6.2	2	1.004	0.000	L	33	6.6	425.953	428.276	429.280	429.282	0
2	22071401	112	Low	10.0	Vague	2	34	36	2	6.2	7.9	0.0	2	36	34	0.0	7.9	6.2	2	0.932	0.001	D	36	7.9	429.784	431.788	432.720	432.722	0
2	22071401	113	Low	10.0	Precise	1	32	36	23	4.1	7.9	0.0	36	32	23	7.9	4.1	0.0	2	0.654	0.000	L	36	7.9	433.224	434.257	434.911	434.914	0
2	22071401	114	Low	10.0	Vague	2	32	35	13	4.1	5.1	2.8	35	13	32	5.1	2.8	4.1	2	1.024	0.001	L	35	5.1	435.416	437.848	438.872	438.874	0
2	22071401	115	Low	10.0	Vague	2	32	33	14	4.1	6.6	3.2	33	32	14	6.6	4.1	3.2	2	1.032	0.000	L	33	6.6	439.378	440.696	441.727	441.730	0
2	22071401	116	Low	10.0	Vague	2	32	36	7	4.1	7.9	0.0	32	36	7	4.1	7.9	0.0	2	1.040	0.001	D	36	7.9	442.233	444.239	445.280	445.282	0
2	22071401	117	Low	10.0	Precise	1	35	34	28	5.1	6.2	3.9	28	34	35	3.9	6.2	5.1	1	0.984	0.001	R	35	5.1	445.784	448.455	449.440	449.442	0
2	22071401	118	Low	10.0	Precise	1	35	26	29	5.1	5.6	3.5	29	35	26	3.5	5.1	5.6	1	1.497	0.001	D	35	5.1	449.945	451.958	453.456	453.458	0
2	22071401	119	Low	10.0	Vague	2	32	26	7	4.1	5.6	0.0	32	7	26	4.1	0.0	5.6	2	0.881	0.000	R	26	5.6	453.961	455.110	455.991	455.994	0
2	22071401	120	Low	10.0	Vague	2	26	34	13	5.6	6.2	2.8	34	13	26	6.2	2.8	5.6	1	1.521	0.001	R	26	5.6	456.497	457.007	458.528	458.530	0
2	22071401	121	Low	10.0	Vague	2	34	33	2	6.2	6.6	0.0	33	2	34	6.6	0.0	6.2	2	1.028	0.000	L	33	6.6	492.142	494.196	495.223	495.226	0
2	22071401	122	Low	10.0	Precise	1	26	34	19	5.6	6.2	0.0	34	19	26	6.2	0.0	5.6	1	1.062	0.000	R	26	5.6	495.729	497.489	498.551	498.554	0
2	22071401	123	Low	10.0	Precise	1	33	36	19	6.6	7.9	0.0	19	33	36	0.0	6.6	7.9	2	0.742	0.000	R	36	7.9	499.057	499.841	500.583	500.586	0
2	22071401	124	Low	10.0	Vague	2	32	34	7	4.1	6.2	0.0	7	34	32	0.0	6.2	4.1	1	1.706	0.000	R	32	4.1	501.088	502.333	504.039	504.042	0
2	22071401	125	Low	10.0	Vague	2	26	34	9	5.6	6.2	3.7	9	26	34	3.7	5.6	6.2	1	1.344	0.001	D	26	5.6	504.545	505.224	506.567	506.570	0
2	22071401	126	Low	10.0	Vague	2	32	34	9	4.1	6.2	3.7	34	32	9	6.2	4.1	3.7	1	1.552	0.001	D	32	4.1	507.073	508.711	510.263	510.266	0
2	22071401	127	Low	10.0	Precise	1	32	26	21	4.1	5.6	0.0	26	21	32	5.6	0.0	4.1	2	1.217	0.001	L	26	5.6	510.769	511.671	512.888	512.890	0
2	22071401	128	Low	10.0	Precise	1	35	33	29	5.1	6.6	3.5	29	33	35	3.5	6.6	5.1	2	1.325	0.000	D	33	6.6	513.392	516.154	517.479	517.482	0
2	22071401	129	Low	10.0	Precise	1	35	33	28	5.1	6.6	3.9	33	28	35	6.6	3.9	5.1	2	1.359	0.000	L	33	6.6	517.985	519.368	520.728	520.730	0
2	22071401	130	Low	10.0	Precise	1	32	33	28	4.1	6.6	3.9	32	33	28	4.1	6.6	3.9	2	1.311	0.000	D	33	6.6	521.233	523.073	524.383	524.386	0
2	22071401	131	Low	10.0	Precise	1	32	35	24	4.1	5.1	2.2	35	24	32	5.1	2.2	4.1	2	1.262	0.000	L	35	5.1	524.888	526.298	527.560	527.562	0
2	22071401	132	Low	10.0	Vague	2	26	36	9	5.6	7.9	3.7	9	26	36	3.7	5.6	7.9	2	1.064	0.000	R	36	7.9	528.065	529.567	530.631	530.634	0
2	22071401	133	Low	10.0	Precise	1	32	33	23	4.1	6.6	0.0	23	32	33	0.0	4.1	6.6	2	1.270	0.000	R	33	6.6	531.136	533.865	535.135	535.138	0
2	22071401	134	Low	10.0	Precise	1	32	36	24	4.1	7.9	2.2	24	36	32	2.2	7.9	4.1	2	1.000	0.001	D	36	7.9	535.640	536.351	537.352	537.355	0
2	22071401	135	Low	10.0	Precise	1	32	36	29	4.1	7.9	3.5	29	36	32	3.5	7.9	4.1	2	1.850	0.000	D	36	7.9	537.858	538.677	540.527	540.530	0
2	22071401	136	Low	10.0	Vague	2	32	26	6	4.1	5.6	1.4	26	6	32	5.6	1.4	4.1	2	1.690	0.000	L	26	5.6	541.033	542.021	543.712	543.714	0
2	22071401	137	Low	10.0	Vague	2	35	36	7	5.1	7.9	0.0	36	7	35	7.9	0.0	5.1	2	0.902	0.001	L	36	7.9	544.217	546.162	547.063	547.066	0
2	22071401	138	Low	10.0	Vague	2	32	26	14	4.1	5.6	3.2	32	26	14	4.1	5.6	3.2	2	1.151	0.001	D	26	5.6	547.568	550.193	551.344	551.346	0
2	22071401	139	Low	10.0	Precise	1	35	36	28	5.1	7.9	3.9	36	35	28	7.9	5.1	3.9	2	0.741	0.000	L	36	7.9	551.849	553.539	554.280	554.282	0
2	22071401	140	Low	10.0	Vague	2	35	34	7	5.1	6.2	0.0	7	34	35	0.0	6.2	5.1	1	1.076	0.001	R	35	5.1	554.784	556.307	557.383	557.386	0
2	22071401	141	Low	10.0	Precise	1	32	35	28	4.1	5.1	3.9	32	35	28	4.1	5.1	3.9	2	1.183	0.001	D	35	5.1	557.888	559.529	560.712	560.714	0
2	22071401	142	Low	10.0	Precise	1	33	36	28	6.6	7.9	3.9	28	36	33	3.9	7.9	6.6	2	1.076	0.000	D	36	7.9	561.216	561.851	562.927	562.930	0
2	22071401	143	Low	10.0	Vague	2	33	36	6	6.6	7.9	1.4	33	36	6	6.6	7.9	1.4	2	0.774	0.001	D	36	7.9	563.433	565.210	565.984	565.986	0
2	22071401	144	Low	10.0	Vague	2	26	36	6	5.6	7.9	1.4	6	26	36	1.4	5.6	7.9	2	1.291	0.000	R	36	7.9	566.489	569.004	570.295	570.298	0
2	22071401	145	Low	10.0	Vague	2	35	34	6	5.1	6.2	1.4	35	34	6	5.1	6.2	1.4	1	1.523	0.000	L	35	5.1	570.800	571.349	572.872	572.874	0
2	22071401	146	Low	10.0	Vague	2	35	26	13	5.1	5.6	2.8	13	26	35	2.8	5.6	5.1	1	1.536	0.000	R	35	5.1	573.377	576.136	577.672	577.674	0
2	22071401	147	Low	10.0	Vague	2	34	36	6	6.2	7.9	1.4	34	6	36	6.2	1.4	7.9	2	0.918	0.001	R	36	7.9	578.176	579.209	580.127	580.130	0
2	22071401	148	Low	10.0	Precise	1	35	33	21	5.1	6.6	0.0	21	35	33	0.0	5.1	6.6	2	1.442	0.000	R	33	6.6	580.633	582.445	583.887	583.890	0
2	22071401	149	Low	10.0	Vague	2	33	36	7	6.6	7.9	0.0	7	36	33	0.0	7.9	6.6	2	0.912	0.000	D	36	7.9	584.392	586.447	587.359	587.362	0
2	22071401	150	Low	10.0	Vague	2	35	36	9	5.1	7.9	3.7	9	36	35	3.7	7.9	5.1	2	1.373	0.000	D	36	7.9	587.865	590.683	592.055	592.058	0
2	22071401	151	Low	10.0	Vague	2	35	34	2	5.1	6.2	0.0	2	34	35	0.0	6.2	5.1	1	1.146	0.000	R	35	5.1	592.560	593.158	594.303	594.306	0
2	22071401	152	Low	10.0	Vague	2	35	36	14	5.1	7.9	3.2	36	14	35	7.9	3.2	5.1	2	2.232	0.001	L	36	7.9	594.809	596.087	598.320	598.322	0
2	22071401	153	Low	10.0	Vague	2	32	33	9	4.1	6.6	3.7	33	9	32	6.6	3.7	4.1	2	1.905	0.000	L	33	6.6	598.825	599.863	601.767	601.770	0
2	22071401	154	Low	10.0	Vague	2	32	34	14	4.1	6.2	3.2	14	34	32	3.2	6.2	4.1	2	0.000	3.363	D	34	6.2	602.272	605.130	605.130	605.142	0
2	22071401	155	Low	10.0	Precise	1	32	26	23	4.1	5.6	0.0	26	23	32	5.6	0.0	4.1	3	0.000	1.119	D	23	0.0	605.645	606.249	606.250	606.263	0
2	22071401	156	Low	10.0	Precise	1	35	33	19	5.1	6.6	0.0	35	19	33	5.1	0.0	6.6	1	0.882	0.000	L	35	5.1	606.767	609.702	610.583	610.586	0
2	22071401	157	Low	10.0	Vague	2	26	36	13	5.6	7.9	2.8	13	36	26	2.8	7.9	5.6	2	1.366	0.000	D	36	7.9	611.089	612.842	614.208	614.210	0
2	22071401	158	Low	10.0	Precise	1	34	36	29	6.2	7.9	3.5	34	36	29	6.2	7.9	3.5	2	0.943	0.000	D	36	7.9	614.712	616.360	617.303	617.306	0
2	22071401	159	Low	10.0	Precise	1	32	33	19	4.1	6.6	0.0	19	33	32	0.0	6.6	4.1	2	1.278	0.000	D	33	6.6	617.809	619.617	620.895	620.898	0
2	22071401	160	Low	10.0	Precise	1	35	33	23	5.1	6.6	0.0	35	23	33	5.1	0.0	6.6	1	1.136	0.000	L	35	5.1	621.400	623.191	624.327	624.330	0
2	22071401	161	Low	10.0	Precise	1	35	26	21	5.1	5.6	0.0	21	26	35	0.0	5.6	5.1	2	1.136	0.001	D	26	5.6	624.833	626.752	627.888	627.890	0
2	22071401	162	Low	10.0	Precise	1	26	33	24	5.6	6.6	2.2	33	24	26	6.6	2.2	5.6	2	1.175	0.001	L	33	6.6	628.393	629.840	631.015	631.018	0
2	22071401	163	Low	10.0	Vague	2	34	33	14	6.2	6.6	3.2	34	33	14	6.2	6.6	3.2	2	1.739	0.001	D	33	6.6	631.520	633.789	635.527	635.530	0
2	22071401	164	Low	10.0	Precise	1	35	36	21	5.1	7.9	0.0	21	35	36	0.0	5.1	7.9	2	0.706	0.000	R	36	7.9	636.033	638.750	639.455	639.458	0
2	22071401	165	Low	10.0	Vague	2	32	36	14	4.1	7.9	3.2	32	14	36	4.1	3.2	7.9	2	0.848	0.001	R	36	7.9	639.961	641.144	641.991	641.994	0
2	22071401	166	Low	10.0	Vague	2	26	34	7	5.6	6.2	0.0	34	26	7	6.2	5.6	0.0	1	1.388	0.000	D	26	5.6	642.496	644.107	645.495	645.498	0
2	22071401	167	Low	10.0	Vague	2	35	36	13	5.1	7.9	2.8	35	36	13	5.1	7.9	2.8	2	0.892	0.000	D	36	7.9	646.001	648.891	649.783	649.786	0
2	22071401	168	Low	10.0	Vague	2	35	34	14	5.1	6.2	3.2	35	14	34	5.1	3.2	6.2	1	1.698	0.000	L	35	5.1	650.289	650.933	652.631	652.633	0
2	22071401	169	Low	10.0	Vague	2	26	33	6	5.6	6.6	1.4	6	33	26	1.4	6.6	5.6	1	2.429	0.000	R	26	5.6	653.136	654.283	656.711	656.714	0
2	22071401	170	Low	10.0	Vague	2	35	33	2	5.1	6.6	0.0	2	35	33	0.0	5.1	6.6	1	1.562	0.000	D	35	5.1	657.216	659.709	661.272	661.274	0
2	22071401	171	Low	10.0	Precise	1	35	26	19	5.1	5.6	0.0	26	19	35	5.6	0.0	5.1	1	1.493	0.000	R	35	5.1	661.777	664.730	666.223	666.226	0
2	22071401	172	Low	10.0	Precise	1	32	34	19	4.1	6.2	0.0	32	19	34	4.1	0.0	6.2	2	1.922	0.000	R	34	6.2	666.728	668.677	670.599	670.602	0
2	22071401	173	Low	10.0	Vague	2	34	33	6	6.2	6.6	1.4	6	33	34	1.4	6.6	6.2	2	1.327	0.000	D	33	6.6	671.104	671.920	673.247	673.250	0
2	22071401	174	Low	10.0	Vague	2	26	33	2	5.6	6.6	0.0	26	33	2	5.6	6.6	0.0	2	1.954	0.001	D	33	6.6	673.753	674.613	676.567	676.570	0
2	22071401	175	Low	10.0	Vague	2	26	36	7	5.6	7.9	0.0	7	36	26	0.0	7.9	5.6	2	0.914	0.000	D	36	7.9	677.072	677.917	678.831	678.834	0
2	22071401	176	Low	10.0	Precise	1	26	33	21	5.6	6.6	0.0	21	33	26	0.0	6.6	5.6	1	1.838	0.000	R	26	5.6	679.338	681.898	683.735	683.738	0
2	22071401	177	Low	10.0	Vague	2	32	35	9	4.1	5.1	3.7	35	9	32	5.1	3.7	4.1	1	2.277	0.000	R	32	4.1	684.241	686.210	688.487	688.490	0
2	22071401	178	Low	10.0	Precise	1	33	36	29	6.6	7.9	3.5	36	33	29	7.9	6.6	3.5	2	1.842	0.001	L	36	7.9	688.993	690.118	691.959	691.962	0
2	22071401	179	Low	10.0	Precise	1	35	34	21	5.1	6.2	0.0	34	21	35	6.2	0.0	5.1	1	0.834	0.000	R	35	5.1	692.466	693.718	694.551	694.554	0
2	22071401	180	Low	10.0	Precise	1	35	36	23	5.1	7.9	0.0	23	35	36	0.0	5.1	7.9	2	1.347	0.000	R	36	7.9	695.058	697.268	698.615	698.618	0
2	22071401	181	High	1.5	Precise	1	26	36	22	5.6	7.9	0.0	22	26	36	0.0	5.6	7.9	2	0.669	0.000	R	36	7.9	748.557	751.474	752.143	752.146	0
2	22071401	182	High	1.5	Vague	2	34	33	4	6.2	6.6	3.6	34	33	4	6.2	6.6	3.6	2	1.250	0.000	D	33	6.6	752.649	754.862	756.111	756.114	0
2	22071401	183	High	1.5	Vague	2	33	36	11	6.6	7.9	3.0	36	11	33	7.9	3.0	6.6	2	0.699	0.001	L	36	7.9	756.617	757.893	758.592	758.594	0
2	22071401	184	High	1.5	Precise	1	26	36	31	5.6	7.9	3.9	31	26	36	3.9	5.6	7.9	2	0.726	0.000	R	36	7.9	759.097	760.473	761.199	761.201	0
2	22071401	185	High	1.5	Vague	2	35	36	4	5.1	7.9	3.6	35	36	4	5.1	7.9	3.6	2	0.911	0.000	D	36	7.9	761.705	763.800	764.711	764.714	0
2	22071401	186	High	1.5	Vague	2	26	34	1	5.6	6.2	0.0	26	1	34	5.6	0.0	6.2	1	1.058	0.000	L	26	5.6	765.216	766.381	767.439	767.442	0
2	22071401	187	High	1.5	Vague	2	26	33	11	5.6	6.6	3.0	11	26	33	3.0	5.6	6.6	2	0.936	0.000	R	33	6.6	767.944	769.279	770.215	770.217	0
2	22071401	188	High	1.5	Vague	2	32	34	5	4.1	6.2	0.0	32	34	5	4.1	6.2	0.0	1	1.262	0.000	L	32	4.1	770.720	773.105	774.367	774.370	0
2	22071401	189	High	1.5	Vague	2	35	34	3	5.1	6.2	1.5	35	34	3	5.1	6.2	1.5	1	1.021	0.000	L	35	5.1	774.872	777.154	778.175	778.178	0
2	22071401	190	High	1.5	Vague	2	32	36	3	4.1	7.9	1.5	36	3	32	7.9	1.5	4.1	2	0.786	0.000	L	36	7.9	778.681	780.973	781.759	781.762	0
2	22071401	191	High	1.5	Vague	2	35	26	3	5.1	5.6	1.5	26	35	3	5.6	5.1	1.5	1	1.158	0.001	D	35	5.1	782.265	784.233	785.391	785.394	0
2	22071401	192	High	1.5	Precise	1	35	33	27	5.1	6.6	0.0	33	27	35	6.6	0.0	5.1	1	0.893	0.000	R	35	5.1	785.896	787.435	788.327	788.330	0
2	22071401	193	High	1.5	Precise	1	32	34	22	4.1	6.2	0.0	32	34	22	4.1	6.2	0.0	NaN	NaN	NaN	NaN	NaN	NaN	788.833	789.439	NaN	790.929	1
2	22071401	194	High	1.5	Vague	2	26	34	8	5.6	6.2	0.0	26	8	34	5.6	0.0	6.2	1	0.962	0.001	L	26	5.6	792.933	793.558	794.519	794.523	0
2	22071401	195	High	1.5	Vague	2	35	34	11	5.1	6.2	3.0	35	34	11	5.1	6.2	3.0	1	0.882	0.001	L	35	5.1	795.027	796.349	797.231	797.234	0
2	22071401	196	High	1.5	Vague	2	35	26	11	5.1	5.6	3.0	26	35	11	5.6	5.1	3.0	1	0.793	0.000	D	35	5.1	797.737	799.871	800.663	800.666	0
2	22071401	197	High	1.5	Precise	1	32	36	20	4.1	7.9	0.0	20	36	32	0.0	7.9	4.1	2	0.937	0.000	D	36	7.9	801.169	801.991	802.927	802.930	0
2	22071401	198	High	1.5	Precise	1	35	36	30	5.1	7.9	3.7	30	35	36	3.7	5.1	7.9	2	0.717	0.000	R	36	7.9	803.432	805.010	805.727	805.730	0
2	22071401	199	High	1.5	Precise	1	34	33	30	6.2	6.6	3.7	34	30	33	6.2	3.7	6.6	1	0.846	0.000	L	34	6.2	806.233	807.449	808.295	808.298	0
2	22071401	200	High	1.5	Vague	2	34	36	8	6.2	7.9	0.0	8	34	36	0.0	6.2	7.9	2	0.712	0.001	R	36	7.9	808.801	811.344	812.055	812.058	0
2	22071401	201	High	1.5	Vague	2	26	36	1	5.6	7.9	0.0	1	36	26	0.0	7.9	5.6	2	0.785	0.001	D	36	7.9	812.560	813.902	814.687	814.690	0
2	22071401	202	High	1.5	Precise	1	32	33	22	4.1	6.6	0.0	33	32	22	6.6	4.1	0.0	1	0.728	0.000	D	32	4.1	815.193	816.487	817.215	817.218	0
2	22071401	203	High	1.5	Precise	1	35	33	30	5.1	6.6	3.7	35	30	33	5.1	3.7	6.6	2	0.761	0.000	R	33	6.6	817.721	818.310	819.071	819.074	0
2	22071401	204	High	1.5	Vague	2	35	36	8	5.1	7.9	0.0	36	35	8	7.9	5.1	0.0	2	0.679	0.001	L	36	7.9	819.576	821.744	822.423	822.426	0
2	22071401	205	High	1.5	Vague	2	26	36	3	5.6	7.9	1.5	36	3	26	7.9	1.5	5.6	2	0.566	0.000	L	36	7.9	822.928	825.217	825.783	825.786	0
2	22071401	206	High	1.5	Precise	1	35	26	22	5.1	5.6	0.0	22	26	35	0.0	5.6	5.1	2	0.875	0.000	D	26	5.6	826.288	828.789	829.663	829.666	0
2	22071401	207	High	1.5	Vague	2	32	36	4	4.1	7.9	3.6	32	36	4	4.1	7.9	3.6	2	0.851	0.001	D	36	7.9	830.169	833.045	833.895	833.898	0
2	22071401	208	High	1.5	Precise	1	32	35	20	4.1	5.1	0.0	20	32	35	0.0	4.1	5.1	2	0.995	0.000	R	35	5.1	834.401	835.980	836.975	836.978	0
2	22071401	209	High	1.5	Precise	1	26	36	20	5.6	7.9	0.0	26	20	36	5.6	0.0	7.9	2	0.674	0.000	R	36	7.9	837.480	839.109	839.783	839.786	0
2	22071401	210	High	1.5	Precise	1	34	33	22	6.2	6.6	0.0	34	33	22	6.2	6.6	0.0	2	1.008	0.001	D	33	6.6	840.289	843.151	844.159	844.162	0
2	22071401	211	High	1.5	Precise	1	32	35	31	4.1	5.1	3.9	31	32	35	3.9	4.1	5.1	1	0.929	0.000	D	32	4.1	844.666	846.502	847.431	847.434	0
2	22071401	212	High	1.5	Precise	1	35	33	20	5.1	6.6	0.0	20	35	33	0.0	5.1	6.6	1	0.677	0.000	D	35	5.1	847.936	849.706	850.383	850.386	0
2	22071401	213	High	1.5	Precise	1	32	34	27	4.1	6.2	0.0	27	34	32	0.0	6.2	4.1	1	1.129	0.001	R	32	4.1	850.888	851.638	852.767	852.770	0
2	22071401	214	High	1.5	Precise	1	32	26	20	4.1	5.6	0.0	32	26	20	4.1	5.6	0.0	1	0.637	0.000	L	32	4.1	853.273	853.978	854.615	854.618	0
2	22071401	215	High	1.5	Precise	1	32	34	20	4.1	6.2	0.0	32	34	20	4.1	6.2	0.0	1	0.653	0.000	L	32	4.1	855.120	856.098	856.751	856.754	0
2	22071401	216	High	1.5	Vague	2	35	34	1	5.1	6.2	0.0	35	1	34	5.1	0.0	6.2	1	0.794	0.000	L	35	5.1	857.257	857.798	858.591	858.594	0
2	22071401	217	High	1.5	Precise	1	26	34	25	5.6	6.2	2.2	26	34	25	5.6	6.2	2.2	2	0.995	0.000	D	34	6.2	859.096	859.620	860.615	860.618	0
2	22071401	218	High	1.5	Precise	1	33	36	22	6.6	7.9	0.0	22	36	33	0.0	7.9	6.6	2	0.729	0.000	D	36	7.9	861.120	863.631	864.359	864.362	0
2	22071401	219	High	1.5	Vague	2	34	33	5	6.2	6.6	0.0	33	34	5	6.6	6.2	0.0	1	1.047	0.000	D	34	6.2	864.865	865.440	866.487	866.490	0
2	22071401	220	High	1.5	Precise	1	34	33	27	6.2	6.6	0.0	27	33	34	0.0	6.6	6.2	2	1.054	0.000	D	33	6.6	866.993	868.617	869.671	869.673	0
2	22071401	221	High	1.5	Vague	2	33	36	4	6.6	7.9	3.6	36	4	33	7.9	3.6	6.6	2	0.793	0.001	L	36	7.9	870.177	871.430	872.223	872.226	0
2	22071401	222	High	1.5	Precise	1	34	36	25	6.2	7.9	2.2	25	34	36	2.2	6.2	7.9	2	0.782	0.001	R	36	7.9	872.729	874.130	874.911	874.914	0
2	22071401	223	High	1.5	Precise	1	35	33	25	5.1	6.6	2.2	33	25	35	6.6	2.2	5.1	1	1.047	0.001	R	35	5.1	875.417	877.472	878.519	878.522	0
2	22071401	224	High	1.5	Vague	2	35	33	8	5.1	6.6	0.0	35	33	8	5.1	6.6	0.0	1	0.639	0.001	L	35	5.1	879.025	880.856	881.495	881.498	0
2	22071401	225	High	1.5	Precise	1	35	26	31	5.1	5.6	3.9	26	31	35	5.6	3.9	5.1	1	1.127	0.000	R	35	5.1	882.000	884.168	885.295	885.298	0
2	22071401	226	High	1.5	Vague	2	32	35	3	4.1	5.1	1.5	35	32	3	5.1	4.1	1.5	2	0.588	0.000	L	35	5.1	885.800	888.643	889.231	889.234	0
2	22071401	227	High	1.5	Vague	2	35	36	11	5.1	7.9	3.0	11	35	36	3.0	5.1	7.9	1	0.803	0.000	D	35	5.1	889.736	891.868	892.671	892.674	0
2	22071401	228	High	1.5	Vague	2	34	36	1	6.2	7.9	0.0	36	1	34	7.9	0.0	6.2	2	0.628	0.000	L	36	7.9	893.176	895.675	896.303	896.305	0
2	22071401	229	High	1.5	Precise	1	32	33	30	4.1	6.6	3.7	32	30	33	4.1	3.7	6.6	1	1.178	0.000	L	32	4.1	896.809	898.653	899.831	899.834	0
2	22071401	230	High	1.5	Vague	2	32	35	1	4.1	5.1	0.0	35	32	1	5.1	4.1	0.0	1	0.601	0.000	D	32	4.1	900.336	902.431	903.031	903.034	0
2	22071401	231	High	1.5	Vague	2	35	26	8	5.1	5.6	0.0	26	8	35	5.6	0.0	5.1	1	1.029	0.000	R	35	5.1	903.536	904.730	905.759	905.762	0
2	22071401	232	High	1.5	Vague	2	33	36	8	6.6	7.9	0.0	36	33	8	7.9	6.6	0.0	1	0.276	0.000	D	33	6.6	906.265	908.987	909.263	909.266	0
2	22071401	233	High	1.5	Vague	2	35	36	1	5.1	7.9	0.0	36	35	1	7.9	5.1	0.0	2	0.576	0.000	L	36	7.9	909.768	912.480	913.055	913.058	0
2	22071401	234	High	1.5	Vague	2	35	34	5	5.1	6.2	0.0	5	35	34	0.0	5.1	6.2	1	0.922	0.000	D	35	5.1	913.560	916.349	917.271	917.274	0
2	22071401	235	High	1.5	Vague	2	32	33	3	4.1	6.6	1.5	3	32	33	1.5	4.1	6.6	1	0.852	0.000	D	32	4.1	917.776	920.459	921.311	921.313	0
2	22071401	236	High	1.5	Vague	2	32	34	3	4.1	6.2	1.5	34	3	32	6.2	1.5	4.1	1	1.024	0.000	R	32	4.1	921.816	922.727	923.751	923.754	0
2	22071401	237	High	1.5	Precise	1	26	33	30	5.6	6.6	3.7	33	26	30	6.6	5.6	3.7	2	1.110	0.000	L	33	6.6	924.256	926.329	927.439	927.442	0
2	22071401	238	High	1.5	Precise	1	32	33	27	4.1	6.6	0.0	33	27	32	6.6	0.0	4.1	2	0.775	0.000	L	33	6.6	927.944	930.489	931.263	931.266	0
2	22071401	239	High	1.5	Vague	2	26	34	5	5.6	6.2	0.0	5	34	26	0.0	6.2	5.6	1	1.183	0.000	R	26	5.6	931.768	933.808	934.991	934.994	0
2	22071401	240	High	1.5	Precise	1	26	36	25	5.6	7.9	2.2	25	26	36	2.2	5.6	7.9	2	0.652	0.000	R	36	7.9	935.497	937.539	938.191	938.194	0
2	22071401	241	High	1.5	Vague	2	35	26	1	5.1	5.6	0.0	26	35	1	5.6	5.1	0.0	2	0.785	0.000	L	26	5.6	964.192	966.615	967.399	967.402	0
2	22071401	242	High	1.5	Precise	1	35	34	25	5.1	6.2	2.2	25	34	35	2.2	6.2	5.1	1	0.850	0.000	R	35	5.1	967.904	970.581	971.431	971.434	0
2	22071401	243	High	1.5	Vague	2	35	33	5	5.1	6.6	0.0	33	5	35	6.6	0.0	5.1	1	0.866	0.001	R	35	5.1	971.936	973.373	974.239	974.242	0
2	22071401	244	High	1.5	Precise	1	35	26	30	5.1	5.6	3.7	35	26	30	5.1	5.6	3.7	1	0.634	0.001	L	35	5.1	974.745	977.237	977.871	977.874	0
2	22071401	245	High	1.5	Vague	2	35	33	1	5.1	6.6	0.0	33	35	1	6.6	5.1	0.0	1	0.858	0.000	D	35	5.1	978.377	980.533	981.391	981.394	0
2	22071401	246	High	1.5	Precise	1	32	33	20	4.1	6.6	0.0	20	32	33	0.0	4.1	6.6	2	1.136	0.000	R	33	6.6	981.897	984.751	985.887	985.890	0
2	22071401	247	High	1.5	Vague	2	26	33	1	5.6	6.6	0.0	1	26	33	0.0	5.6	6.6	2	0.742	0.000	R	33	6.6	986.393	987.209	987.951	987.953	0
2	22071401	248	High	1.5	Vague	2	32	34	11	4.1	6.2	3.0	34	11	32	6.2	3.0	4.1	1	1.286	0.000	R	32	4.1	988.456	990.449	991.735	991.738	0
2	22071401	249	High	1.5	Vague	2	32	33	4	4.1	6.6	3.6	32	33	4	4.1	6.6	3.6	2	1.172	0.000	D	33	6.6	992.240	993.659	994.831	994.834	0
2	22071401	250	High	1.5	Precise	1	26	36	30	5.6	7.9	3.7	30	26	36	3.7	5.6	7.9	2	0.766	0.000	R	36	7.9	995.337	997.697	998.463	998.465	0
2	22071401	251	High	1.5	Precise	1	32	35	22	4.1	5.1	0.0	35	22	32	5.1	0.0	4.1	2	1.018	0.000	L	35	5.1	998.969	1000.229	1001.247	1001.249	0
2	22071401	252	High	1.5	Vague	2	34	36	11	6.2	7.9	3.0	11	34	36	3.0	6.2	7.9	2	0.884	0.000	R	36	7.9	1001.752	1003.891	1004.775	1004.777	0
2	22071401	253	High	1.5	Vague	2	32	35	4	4.1	5.1	3.6	4	35	32	3.6	5.1	4.1	2	1.045	0.001	D	35	5.1	1005.281	1007.426	1008.471	1008.474	0
2	22071401	254	High	1.5	Precise	1	35	36	20	5.1	7.9	0.0	36	35	20	7.9	5.1	0.0	1	0.689	0.000	D	35	5.1	1008.977	1009.727	1010.415	1010.418	0
2	22071401	255	High	1.5	Vague	2	34	36	5	6.2	7.9	0.0	36	5	34	7.9	0.0	6.2	2	0.721	0.000	L	36	7.9	1010.920	1013.910	1014.631	1014.634	0
2	22071401	256	High	1.5	Precise	1	34	36	20	6.2	7.9	0.0	36	34	20	7.9	6.2	0.0	2	0.575	0.000	L	36	7.9	1015.136	1015.912	1016.487	1016.489	0
2	22071401	257	High	1.5	Vague	2	26	34	4	5.6	6.2	3.6	26	4	34	5.6	3.6	6.2	1	1.235	0.000	L	26	5.6	1016.992	1018.996	1020.231	1020.234	0
2	22071401	258	High	1.5	Vague	2	26	33	5	5.6	6.6	0.0	33	5	26	6.6	0.0	5.6	2	0.912	0.001	L	33	6.6	1020.737	1022.239	1023.151	1023.154	0
2	22071401	259	High	1.5	Precise	1	35	26	20	5.1	5.6	0.0	26	20	35	5.6	0.0	5.1	2	0.723	0.000	L	26	5.6	1023.656	1025.300	1026.023	1026.026	0
2	22071401	260	High	1.5	Precise	1	32	26	27	4.1	5.6	0.0	27	26	32	0.0	5.6	4.1	1	1.163	0.000	R	32	4.1	1026.528	1029.228	1030.391	1030.394	0
2	22071401	261	High	1.5	Precise	1	35	34	22	5.1	6.2	0.0	34	35	22	6.2	5.1	0.0	1	1.015	0.000	D	35	5.1	1030.897	1032.311	1033.327	1033.329	0
2	22071401	262	High	1.5	Precise	1	26	34	22	5.6	6.2	0.0	22	34	26	0.0	6.2	5.6	1	1.069	0.000	R	26	5.6	1033.832	1034.978	1036.047	1036.049	0
2	22071401	263	High	1.5	Vague	2	32	34	4	4.1	6.2	3.6	4	32	34	3.6	4.1	6.2	1	1.133	0.000	D	32	4.1	1036.553	1037.338	1038.471	1038.474	0
2	22071401	264	High	1.5	Vague	2	35	26	5	5.1	5.6	0.0	35	5	26	5.1	0.0	5.6	1	0.702	0.000	L	35	5.1	1038.977	1041.361	1042.063	1042.065	0
2	22071401	265	High	1.5	Precise	1	33	36	31	6.6	7.9	3.9	36	31	33	7.9	3.9	6.6	2	0.982	0.000	L	36	7.9	1042.568	1044.425	1045.407	1045.409	0
2	22071401	266	High	1.5	Precise	1	35	33	31	5.1	6.6	3.9	33	35	31	6.6	5.1	3.9	1	1.057	0.001	D	35	5.1	1045.912	1046.855	1047.911	1047.914	0
2	22071401	267	High	1.5	Vague	2	33	36	5	6.6	7.9	0.0	5	33	36	0.0	6.6	7.9	2	0.767	0.000	R	36	7.9	1048.417	1049.760	1050.527	1050.529	0
2	22071401	268	High	1.5	Precise	1	34	33	31	6.2	6.6	3.9	31	33	34	3.9	6.6	6.2	2	1.306	0.000	D	33	6.6	1051.032	1053.054	1054.359	1054.362	0
2	22071401	269	High	1.5	Precise	1	35	34	30	5.1	6.2	3.7	35	30	34	5.1	3.7	6.2	1	0.844	0.000	L	35	5.1	1054.864	1056.475	1057.319	1057.322	0
2	22071401	270	High	1.5	Precise	1	26	34	31	5.6	6.2	3.9	31	26	34	3.9	5.6	6.2	2	1.394	0.001	R	34	6.2	1057.825	1058.349	1059.743	1059.746	0
2	22071401	271	High	1.5	Precise	1	32	36	31	4.1	7.9	3.9	32	31	36	4.1	3.9	7.9	2	1.272	0.000	R	36	7.9	1060.249	1062.720	1063.991	1063.993	0
2	22071401	272	High	1.5	Vague	2	32	33	5	4.1	6.6	0.0	5	32	33	0.0	4.1	6.6	NaN	NaN	NaN	NaN	NaN	NaN	1064.497	1065.447	NaN	1066.937	1
2	22071401	273	High	1.5	Precise	1	34	36	30	6.2	7.9	3.7	34	30	36	6.2	3.7	7.9	2	0.658	0.000	R	36	7.9	1068.940	1070.405	1071.063	1071.066	0
2	22071401	274	High	1.5	Vague	2	32	26	11	4.1	5.6	3.0	11	32	26	3.0	4.1	5.6	1	0.962	0.000	D	32	4.1	1071.568	1072.510	1073.471	1073.474	0
2	22071401	275	High	1.5	Precise	1	34	36	22	6.2	7.9	0.0	22	36	34	0.0	7.9	6.2	2	1.129	0.000	D	36	7.9	1073.976	1075.326	1076.455	1076.458	0
2	22071401	276	High	1.5	Precise	1	26	34	30	5.6	6.2	3.7	34	26	30	6.2	5.6	3.7	1	0.925	0.000	D	26	5.6	1076.961	1079.595	1080.519	1080.522	0
2	22071401	277	High	1.5	Precise	1	33	36	30	6.6	7.9	3.7	33	36	30	6.6	7.9	3.7	2	0.650	0.000	D	36	7.9	1081.025	1083.237	1083.887	1083.889	0
2	22071401	278	High	1.5	Vague	2	26	33	8	5.6	6.6	0.0	8	33	26	0.0	6.6	5.6	1	0.881	0.000	R	26	5.6	1084.393	1087.158	1088.039	1088.042	0
2	22071401	279	High	1.5	Vague	2	34	33	3	6.2	6.6	1.5	3	33	34	1.5	6.6	6.2	2	1.071	0.001	D	33	6.6	1088.545	1090.368	1091.439	1091.442	0
2	22071401	280	High	1.5	Vague	2	26	36	5	5.6	7.9	0.0	36	5	26	7.9	0.0	5.6	2	0.686	0.000	L	36	7.9	1091.944	1094.521	1095.207	1095.209	0
2	22071401	281	High	1.5	Precise	1	35	34	27	5.1	6.2	0.0	34	35	27	6.2	5.1	0.0	1	1.074	0.001	D	35	5.1	1095.712	1096.685	1097.759	1097.762	0
2	22071401	282	High	1.5	Precise	1	32	36	27	4.1	7.9	0.0	32	36	27	4.1	7.9	0.0	2	0.761	0.000	D	36	7.9	1098.265	1099.150	1099.911	1099.913	0
2	22071401	283	High	1.5	Precise	1	35	36	25	5.1	7.9	2.2	35	25	36	5.1	2.2	7.9	2	1.457	0.000	R	36	7.9	1100.416	1102.270	1103.727	1103.729	0
2	22071401	284	High	1.5	Vague	2	32	26	4	4.1	5.6	3.6	32	4	26	4.1	3.6	5.6	1	0.957	0.001	L	32	4.1	1104.232	1105.202	1106.159	1106.162	0
2	22071401	285	High	1.5	Vague	2	32	26	3	4.1	5.6	1.5	3	32	26	1.5	4.1	5.6	1	0.950	0.001	D	32	4.1	1106.665	1107.225	1108.175	1108.178	0
2	22071401	286	High	1.5	Vague	2	34	36	4	6.2	7.9	3.6	36	34	4	7.9	6.2	3.6	2	0.817	0.001	L	36	7.9	1108.680	1111.022	1111.839	1111.842	0
2	22071401	287	High	1.5	Vague	2	35	34	4	5.1	6.2	3.6	34	4	35	6.2	3.6	5.1	1	0.904	0.000	R	35	5.1	1112.345	1113.911	1114.815	1114.818	0
2	22071401	288	High	1.5	Precise	1	35	34	20	5.1	6.2	0.0	20	35	34	0.0	5.1	6.2	1	0.873	0.000	D	35	5.1	1115.320	1116.351	1117.223	1117.226	0
2	22071401	289	High	1.5	Precise	1	32	36	25	4.1	7.9	2.2	32	25	36	4.1	2.2	7.9	2	0.788	0.000	R	36	7.9	1117.729	1118.963	1119.751	1119.754	0
2	22071401	290	High	1.5	Vague	2	32	36	5	4.1	7.9	0.0	32	36	5	4.1	7.9	0.0	2	0.886	0.000	D	36	7.9	1120.256	1122.321	1123.207	1123.210	0
2	22071401	291	High	1.5	Vague	2	26	33	4	5.6	6.6	3.6	33	26	4	6.6	5.6	3.6	2	1.062	0.001	L	33	6.6	1123.713	1125.881	1126.943	1126.945	0
2	22071401	292	High	1.5	Vague	2	32	26	8	4.1	5.6	0.0	8	26	32	0.0	5.6	4.1	2	1.165	0.001	D	26	5.6	1127.448	1128.082	1129.247	1129.250	0
2	22071401	293	High	1.5	Precise	1	34	33	20	6.2	6.6	0.0	33	20	34	6.6	0.0	6.2	1	0.897	0.001	R	34	6.2	1129.752	1132.462	1133.359	1133.362	0
2	22071401	294	High	1.5	Precise	1	35	26	27	5.1	5.6	0.0	26	35	27	5.6	5.1	0.0	1	1.063	0.000	D	35	5.1	1133.865	1136.632	1137.695	1137.697	0
2	22071401	295	High	1.5	Vague	2	35	33	3	5.1	6.6	1.5	3	33	35	1.5	6.6	5.1	1	1.152	0.000	R	35	5.1	1138.200	1138.911	1140.063	1140.066	0
2	22071401	296	High	1.5	Precise	1	33	36	20	6.6	7.9	0.0	33	20	36	6.6	0.0	7.9	2	1.284	0.000	R	36	7.9	1140.569	1142.547	1143.831	1143.833	0
2	22071401	297	High	1.5	Vague	2	33	36	3	6.6	7.9	1.5	33	36	3	6.6	7.9	1.5	2	0.763	0.000	D	36	7.9	1144.336	1144.876	1145.639	1145.641	0
2	22071401	298	High	1.5	Vague	2	33	36	1	6.6	7.9	0.0	36	33	1	7.9	6.6	0.0	2	0.724	0.000	L	36	7.9	1146.145	1146.755	1147.479	1147.482	0
2	22071401	299	High	1.5	Vague	2	32	33	8	4.1	6.6	0.0	33	8	32	6.6	0.0	4.1	1	1.091	0.000	R	32	4.1	1147.984	1149.524	1150.615	1150.618	0
2	22071401	300	High	1.5	Vague	2	35	34	8	5.1	6.2	0.0	8	34	35	0.0	6.2	5.1	1	1.027	0.000	R	35	5.1	1151.121	1153.892	1154.919	1154.922	0
2	22071401	301	High	1.5	Vague	2	32	35	8	4.1	5.1	0.0	32	8	35	4.1	0.0	5.1	1	0.986	0.000	L	32	4.1	1175.654	1176.709	1177.695	1177.698	0
2	22071401	302	High	1.5	Vague	2	32	26	5	4.1	5.6	0.0	26	5	32	5.6	0.0	4.1	1	1.038	0.000	R	32	4.1	1178.201	1179.321	1180.359	1180.362	0
2	22071401	303	High	1.5	Precise	1	32	26	30	4.1	5.6	3.7	32	26	30	4.1	5.6	3.7	1	0.716	0.001	L	32	4.1	1180.864	1181.563	1182.279	1182.282	0
2	22071401	304	High	1.5	Precise	1	32	36	22	4.1	7.9	0.0	32	22	36	4.1	0.0	7.9	2	0.610	0.000	R	36	7.9	1182.785	1183.853	1184.463	1184.465	0
2	22071401	305	High	1.5	Vague	2	35	33	11	5.1	6.6	3.0	35	11	33	5.1	3.0	6.6	1	0.910	0.001	L	35	5.1	1184.968	1187.073	1187.983	1187.986	0
2	22071401	306	High	1.5	Vague	2	32	34	1	4.1	6.2	0.0	32	34	1	4.1	6.2	0.0	2	0.824	0.000	D	34	6.2	1188.490	1189.583	1190.407	1190.410	0
2	22071401	307	High	1.5	Vague	2	32	34	8	4.1	6.2	0.0	8	32	34	0.0	4.1	6.2	1	0.816	0.000	D	32	4.1	1190.912	1191.783	1192.599	1192.602	0
2	22071401	308	High	1.5	Precise	1	26	33	31	5.6	6.6	3.9	26	33	31	5.6	6.6	3.9	1	0.949	0.000	L	26	5.6	1193.104	1195.603	1196.551	1196.553	0
2	22071401	309	High	1.5	Precise	1	32	35	25	4.1	5.1	2.2	35	25	32	5.1	2.2	4.1	1	0.785	0.000	R	32	4.1	1197.057	1199.039	1199.823	1199.826	0
2	22071401	310	High	1.5	Vague	2	32	33	1	4.1	6.6	0.0	1	32	33	0.0	4.1	6.6	2	1.242	0.000	R	33	6.6	1200.330	1201.917	1203.159	1203.162	0
2	22071401	311	High	1.5	Vague	2	32	36	8	4.1	7.9	0.0	36	32	8	7.9	4.1	0.0	2	1.131	0.000	L	36	7.9	1203.664	1204.244	1205.375	1205.378	0
2	22071401	312	High	1.5	Precise	1	34	36	31	6.2	7.9	3.9	31	34	36	3.9	6.2	7.9	2	0.629	0.001	R	36	7.9	1205.881	1208.530	1209.159	1209.162	0
2	22071401	313	High	1.5	Precise	1	35	26	25	5.1	5.6	2.2	25	26	35	2.2	5.6	5.1	1	0.903	0.001	R	35	5.1	1209.664	1211.200	1212.103	1212.106	0
2	22071401	314	High	1.5	Precise	1	33	36	25	6.6	7.9	2.2	33	25	36	6.6	2.2	7.9	2	0.681	0.001	R	36	7.9	1212.609	1213.286	1213.967	1213.969	0
2	22071401	315	High	1.5	Precise	1	33	36	27	6.6	7.9	0.0	33	27	36	6.6	0.0	7.9	2	0.669	0.000	R	36	7.9	1214.473	1217.234	1217.903	1217.906	0
2	22071401	316	High	1.5	Precise	1	26	33	27	5.6	6.6	0.0	26	27	33	5.6	0.0	6.6	2	1.091	0.000	R	33	6.6	1218.408	1220.956	1222.047	1222.049	0
2	22071401	317	High	1.5	Precise	1	32	33	25	4.1	6.6	2.2	25	33	32	2.2	6.6	4.1	2	0.745	0.000	D	33	6.6	1222.552	1223.263	1224.007	1224.010	0
2	22071401	318	High	1.5	Precise	1	26	36	27	5.6	7.9	0.0	27	26	36	0.0	5.6	7.9	2	0.617	0.000	R	36	7.9	1224.512	1226.685	1227.303	1227.305	0
2	22071401	319	High	1.5	Precise	1	32	36	30	4.1	7.9	3.7	30	36	32	3.7	7.9	4.1	2	0.953	0.001	D	36	7.9	1227.808	1228.862	1229.815	1229.817	0
2	22071401	320	High	1.5	Vague	2	32	26	1	4.1	5.6	0.0	1	26	32	0.0	5.6	4.1	2	0.875	0.001	D	26	5.6	1230.320	1233.101	1233.975	1233.978	0
2	22071401	321	High	1.5	Vague	2	35	26	4	5.1	5.6	3.6	4	26	35	3.6	5.6	5.1	NaN	NaN	NaN	NaN	NaN	NaN	1234.481	1235.132	NaN	1236.622	1
2	22071401	322	High	1.5	Vague	2	34	33	8	6.2	6.6	0.0	8	34	33	0.0	6.2	6.6	2	1.046	0.000	R	33	6.6	1238.625	1240.041	1241.087	1241.090	0
2	22071401	323	High	1.5	Precise	1	32	34	31	4.1	6.2	3.9	32	31	34	4.1	3.9	6.2	1	1.286	0.000	L	32	4.1	1241.593	1242.426	1243.711	1243.714	0
2	22071401	324	High	1.5	Vague	2	32	35	5	4.1	5.1	0.0	32	35	5	4.1	5.1	0.0	1	0.758	0.000	L	32	4.1	1244.217	1246.224	1246.983	1246.986	0
2	22071401	325	High	1.5	Precise	1	32	26	25	4.1	5.6	2.2	25	26	32	2.2	5.6	4.1	1	0.653	0.001	R	32	4.1	1247.489	1248.891	1249.543	1249.546	0
2	22071401	326	High	1.5	Vague	2	26	36	8	5.6	7.9	0.0	26	36	8	5.6	7.9	0.0	2	1.084	0.000	D	36	7.9	1250.049	1252.611	1253.695	1253.698	0
2	22071401	327	High	1.5	Precise	1	26	34	20	5.6	6.2	0.0	20	26	34	0.0	5.6	6.2	1	0.921	0.001	D	26	5.6	1254.201	1255.382	1256.303	1256.305	0
2	22071401	328	High	1.5	Precise	1	35	34	31	5.1	6.2	3.9	31	35	34	3.9	5.1	6.2	1	1.094	0.000	D	35	5.1	1256.808	1259.177	1260.271	1260.273	0
2	22071401	329	High	1.5	Precise	1	32	34	30	4.1	6.2	3.7	30	34	32	3.7	6.2	4.1	1	0.808	0.001	R	32	4.1	1260.776	1262.855	1263.663	1263.666	0
2	22071401	330	High	1.5	Precise	1	35	33	22	5.1	6.6	0.0	33	35	22	6.6	5.1	0.0	2	0.880	0.001	L	33	6.6	1264.168	1265.503	1266.383	1266.386	0
2	22071401	331	High	1.5	Precise	1	32	34	25	4.1	6.2	2.2	34	25	32	6.2	2.2	4.1	2	0.836	0.000	L	34	6.2	1266.889	1269.859	1270.695	1270.698	0
2	22071401	332	High	1.5	Precise	1	34	33	25	6.2	6.6	2.2	25	33	34	2.2	6.6	6.2	2	0.744	0.000	D	33	6.6	1271.201	1274.047	1274.791	1274.794	0
2	22071401	333	High	1.5	Vague	2	34	36	3	6.2	7.9	1.5	34	3	36	6.2	1.5	7.9	2	1.161	0.000	R	36	7.9	1275.296	1277.077	1278.239	1278.241	0
2	22071401	334	High	1.5	Vague	2	26	36	11	5.6	7.9	3.0	36	26	11	7.9	5.6	3.0	2	0.694	0.000	L	36	7.9	1278.744	1279.569	1280.263	1280.265	0
2	22071401	335	High	1.5	Precise	1	26	33	20	5.6	6.6	0.0	33	20	26	6.6	0.0	5.6	1	0.814	0.001	R	26	5.6	1280.768	1281.921	1282.735	1282.738	0
2	22071401	336	High	1.5	Precise	1	32	33	31	4.1	6.6	3.9	32	31	33	4.1	3.9	6.6	3	0.357	0.000	D	31	3.9	1283.241	1285.994	1286.351	1286.353	0
2	22071401	337	High	1.5	Precise	1	35	36	27	5.1	7.9	0.0	35	36	27	5.1	7.9	0.0	3	0.807	0.000	R	27	0.0	1286.856	1289.656	1290.463	1290.466	0
2	22071401	338	High	1.5	Vague	2	26	36	4	5.6	7.9	3.6	4	36	26	3.6	7.9	5.6	2	0.570	0.000	D	36	7.9	1290.969	1293.501	1294.071	1294.073	0
2	22071401	339	High	1.5	Precise	1	35	36	22	5.1	7.9	0.0	36	22	35	7.9	0.0	5.1	2	0.745	0.000	L	36	7.9	1294.577	1296.597	1297.343	1297.345	0
2	22071401	340	High	1.5	Precise	1	32	35	30	4.1	5.1	3.7	30	35	32	3.7	5.1	4.1	2	1.081	0.000	D	35	5.1	1297.848	1298.926	1300.007	1300.009	0
2	22071401	341	High	1.5	Precise	1	35	36	31	5.1	7.9	3.9	35	36	31	5.1	7.9	3.9	2	0.571	0.000	D	36	7.9	1300.512	1302.972	1303.543	1303.545	0
2	22071401	342	High	1.5	Vague	2	34	33	11	6.2	6.6	3.0	33	11	34	6.6	3.0	6.2	2	1.284	0.000	L	33	6.6	1304.049	1305.187	1306.471	1306.473	0
2	22071401	343	High	1.5	Vague	2	32	36	11	4.1	7.9	3.0	36	11	32	7.9	3.0	4.1	2	0.656	0.000	L	36	7.9	1306.976	1307.991	1308.647	1308.650	0
2	22071401	344	High	1.5	Precise	1	26	34	27	5.6	6.2	0.0	34	26	27	6.2	5.6	0.0	1	0.909	0.000	D	26	5.6	1309.152	1310.963	1311.871	1311.874	0
2	22071401	345	High	1.5	Vague	2	26	33	3	5.6	6.6	1.5	3	33	26	1.5	6.6	5.6	2	1.111	0.000	D	33	6.6	1312.376	1313.984	1315.095	1315.098	0
2	22071401	346	High	1.5	Precise	1	26	33	22	5.6	6.6	0.0	26	33	22	5.6	6.6	0.0	1	0.803	0.000	L	26	5.6	1315.601	1317.396	1318.199	1318.201	0
2	22071401	347	High	1.5	Vague	2	35	33	4	5.1	6.6	3.6	4	33	35	3.6	6.6	5.1	2	0.749	0.001	D	33	6.6	1318.705	1321.051	1321.799	1321.801	0
2	22071401	348	High	1.5	Precise	1	26	33	25	5.6	6.6	2.2	26	33	25	5.6	6.6	2.2	2	1.330	0.001	D	33	6.6	1322.305	1324.334	1325.663	1325.666	0
2	22071401	349	High	1.5	Vague	2	32	33	11	4.1	6.6	3.0	32	33	11	4.1	6.6	3.0	2	1.243	0.000	D	33	6.6	1326.168	1328.444	1329.687	1329.689	0
2	22071401	350	High	1.5	Precise	1	32	26	31	4.1	5.6	3.9	32	26	31	4.1	5.6	3.9	1	1.009	0.000	L	32	4.1	1330.192	1332.245	1333.255	1333.257	0
2	22071401	351	High	1.5	Vague	2	34	33	1	6.2	6.6	0.0	33	1	34	6.6	0.0	6.2	2	0.980	0.000	L	33	6.6	1333.760	1334.411	1335.391	1335.393	0
2	22071401	352	High	1.5	Vague	2	32	36	1	4.1	7.9	0.0	36	32	1	7.9	4.1	0.0	2	0.903	0.000	L	36	7.9	1335.896	1338.416	1339.319	1339.322	0
2	22071401	353	High	1.5	Vague	2	35	36	3	5.1	7.9	1.5	35	36	3	5.1	7.9	1.5	2	0.623	0.000	D	36	7.9	1339.825	1342.328	1342.951	1342.953	0
2	22071401	354	High	1.5	Vague	2	35	36	5	5.1	7.9	0.0	36	35	5	7.9	5.1	0.0	2	0.765	0.000	L	36	7.9	1343.456	1344.146	1344.911	1344.913	0
2	22071401	355	High	1.5	Precise	1	32	26	22	4.1	5.6	0.0	32	22	26	4.1	0.0	5.6	1	0.827	0.001	L	32	4.1	1345.417	1347.564	1348.391	1348.393	0
2	22071401	356	High	1.5	Vague	2	26	34	11	5.6	6.2	3.0	11	26	34	3.0	5.6	6.2	1	1.120	0.000	D	26	5.6	1348.897	1350.887	1352.007	1352.010	0
2	22071401	357	High	1.5	Precise	1	32	35	27	4.1	5.1	0.0	27	35	32	0.0	5.1	4.1	1	1.036	0.000	R	32	4.1	1352.514	1355.003	1356.039	1356.042	0
2	22071401	358	High	1.5	Precise	1	34	36	27	6.2	7.9	0.0	34	27	36	6.2	0.0	7.9	2	0.825	0.000	R	36	7.9	1356.545	1357.062	1357.887	1357.889	0
2	22071401	359	High	1.5	Vague	2	26	34	3	5.6	6.2	1.5	26	34	3	5.6	6.2	1.5	1	1.076	0.000	L	26	5.6	1358.393	1359.139	1360.215	1360.217	0
2	22071401	360	High	1.5	Vague	2	32	35	11	4.1	5.1	3.0	35	11	32	5.1	3.0	4.1	NaN	NaN	NaN	NaN	NaN	NaN	1360.720	1362.555	NaN	1364.041	1
