Group	subID	trial	TimePressure	TimeConstraint	Vagueness	Vaguenesscode	ID1	ID2	ID3	V1	V2	V3	ID_left	ID_middle	ID_right	Bid_left	Bid_middle	Bid_right	chosenItem	RT	RTvariance	chosenPosition	chosenID	chosenValue	fixation_time	option_time	choice_time	feedback_time	timeout
1	22072003	1	Low	10.0	Precise	1	18	17	1	10.2	10.4	1.1	18	17	1	10.2	10.4	1.1	2	1.171	0.001	D	17	10.4	4.397	7.040	8.211	8.215	0
1	22072003	2	Low	10.0	Precise	1	18	14	10	10.2	30.9	2.0	14	18	10	30.9	10.2	2.0	3	1.539	0.000	R	10	2.0	8.719	11.503	13.042	13.046	0
1	22072003	3	Low	10.0	Precise	1	12	16	8	2.3	24.1	0.3	8	12	16	0.3	2.3	24.1	2	1.322	0.001	R	16	24.1	13.549	15.633	16.955	16.958	0
1	22072003	4	Low	10.0	Precise	1	17	16	9	10.4	24.1	0.0	16	17	9	24.1	10.4	0.0	2	0.997	0.000	L	16	24.1	17.461	20.157	21.154	21.157	0
1	22072003	5	Low	10.0	Precise	1	12	13	5	2.3	3.7	0.0	12	13	5	2.3	3.7	0.0	2	1.679	0.000	D	13	3.7	21.661	22.308	23.987	23.991	0
1	22072003	6	Low	10.0	Precise	1	13	17	4	3.7	10.4	0.2	4	17	13	0.2	10.4	3.7	2	0.952	0.000	D	17	10.4	24.497	25.347	26.299	26.301	0
1	22072003	7	Low	10.0	Vague	2	12	14	20	2.3	30.9	0.0	20	14	12	0.0	30.9	2.3	1	2.799	0.000	R	12	2.3	26.803	28.428	31.226	31.229	0
1	22072003	8	Low	10.0	Vague	2	12	18	34	2.3	10.2	1.1	34	18	12	1.1	10.2	2.3	3	1.739	0.000	L	34	1.1	31.732	33.616	35.355	35.357	0
1	22072003	9	Low	10.0	Vague	2	12	14	23	2.3	30.9	0.0	14	12	23	30.9	2.3	0.0	2	2.036	0.000	L	14	30.9	35.860	37.222	39.259	39.261	0
1	22072003	10	Low	10.0	Vague	2	12	16	34	2.3	24.1	1.1	34	12	16	1.1	2.3	24.1	2	1.284	0.001	R	16	24.1	39.763	41.207	42.491	42.493	0
1	22072003	11	Low	10.0	Vague	2	13	18	22	3.7	10.2	0.8	13	22	18	3.7	0.8	10.2	1	0.692	0.000	L	13	3.7	42.995	44.823	45.515	45.517	0
1	22072003	12	Low	10.0	Precise	1	18	17	5	10.2	10.4	0.0	18	17	5	10.2	10.4	0.0	2	0.675	0.001	D	17	10.4	46.019	47.472	48.147	48.149	0
1	22072003	13	Low	10.0	Precise	1	12	13	1	2.3	3.7	1.1	13	12	1	3.7	2.3	1.1	2	1.099	0.001	L	13	3.7	48.652	50.135	51.235	51.238	0
1	22072003	14	Low	10.0	Vague	2	18	17	20	10.2	10.4	0.0	17	18	20	10.4	10.2	0.0	2	0.714	0.000	L	17	10.4	51.741	52.328	53.042	53.045	0
1	22072003	15	Low	10.0	Precise	1	13	16	1	3.7	24.1	1.1	1	13	16	1.1	3.7	24.1	1	0.934	0.000	D	13	3.7	53.547	56.164	57.099	57.101	0
1	22072003	16	Low	10.0	Precise	1	13	14	10	3.7	30.9	2.0	10	14	13	2.0	30.9	3.7	1	0.892	0.000	R	13	3.7	57.604	58.791	59.683	59.685	0
1	22072003	17	Low	10.0	Precise	1	13	17	9	3.7	10.4	0.0	9	13	17	0.0	3.7	10.4	2	1.036	0.001	R	17	10.4	60.188	61.095	62.131	62.133	0
1	22072003	18	Low	10.0	Precise	1	17	16	5	10.4	24.1	0.0	5	17	16	0.0	10.4	24.1	1	0.893	0.001	D	17	10.4	62.636	64.501	65.395	65.397	0
1	22072003	19	Low	10.0	Vague	2	12	13	23	2.3	3.7	0.0	23	13	12	0.0	3.7	2.3	2	1.508	0.000	D	13	3.7	65.900	67.159	68.666	68.669	0
1	22072003	20	Low	10.0	Vague	2	12	14	34	2.3	30.9	1.1	14	34	12	30.9	1.1	2.3	3	1.409	0.000	D	34	1.1	69.171	70.313	71.722	71.725	0
1	22072003	21	Low	10.0	Vague	2	13	17	20	3.7	10.4	0.0	20	13	17	0.0	3.7	10.4	2	0.644	0.000	R	17	10.4	72.227	74.214	74.858	74.861	0
1	22072003	22	Low	10.0	Vague	2	18	16	20	10.2	24.1	0.0	18	16	20	10.2	24.1	0.0	2	0.959	0.000	D	16	24.1	75.363	76.451	77.410	77.413	0
1	22072003	23	Low	10.0	Precise	1	17	16	4	10.4	24.1	0.2	16	4	17	24.1	0.2	10.4	1	0.887	0.000	R	17	10.4	77.916	79.916	80.802	80.805	0
1	22072003	24	Low	10.0	Precise	1	12	14	10	2.3	30.9	2.0	12	14	10	2.3	30.9	2.0	3	1.025	0.000	R	10	2.0	81.307	83.873	84.899	84.901	0
1	22072003	25	Low	10.0	Vague	2	13	18	32	3.7	10.2	0.0	32	18	13	0.0	10.2	3.7	1	0.651	0.000	R	13	3.7	85.404	87.824	88.474	88.476	0
1	22072003	26	Low	10.0	Precise	1	12	17	1	2.3	10.4	1.1	12	17	1	2.3	10.4	1.1	2	0.926	0.001	D	17	10.4	88.979	89.597	90.523	90.525	0
1	22072003	27	Low	10.0	Vague	2	18	16	34	10.2	24.1	1.1	34	18	16	1.1	10.2	24.1	2	0.783	0.000	R	16	24.1	91.028	91.571	92.355	92.357	0
1	22072003	28	Low	10.0	Precise	1	17	14	8	10.4	30.9	0.3	14	17	8	30.9	10.4	0.3	1	0.912	0.000	D	17	10.4	92.859	95.331	96.243	96.245	0
1	22072003	29	Low	10.0	Precise	1	17	14	10	10.4	30.9	2.0	10	17	14	2.0	10.4	30.9	3	0.940	0.001	L	10	2.0	96.748	98.223	99.163	99.165	0
1	22072003	30	Low	10.0	Vague	2	13	16	23	3.7	24.1	0.0	16	13	23	24.1	3.7	0.0	1	1.018	0.001	D	13	3.7	99.668	100.432	101.451	101.453	0
1	22072003	31	Low	10.0	Precise	1	12	14	4	2.3	30.9	0.2	14	12	4	30.9	2.3	0.2	1	2.085	0.000	D	12	2.3	101.955	104.070	106.154	106.157	0
1	22072003	32	Low	10.0	Vague	2	17	14	35	10.4	30.9	2.0	17	35	14	10.4	2.0	30.9	1	0.613	0.000	L	17	10.4	106.660	107.917	108.530	108.533	0
1	22072003	33	Low	10.0	Vague	2	17	16	22	10.4	24.1	0.8	17	22	16	10.4	0.8	24.1	1	0.621	0.000	L	17	10.4	109.036	111.301	111.922	111.925	0
1	22072003	34	Low	10.0	Precise	1	17	16	1	10.4	24.1	1.1	17	1	16	10.4	1.1	24.1	1	0.516	0.000	L	17	10.4	112.427	114.982	115.498	115.501	0
1	22072003	35	Low	10.0	Precise	1	12	14	1	2.3	30.9	1.1	14	1	12	30.9	1.1	2.3	3	3.655	0.000	D	1	1.1	116.003	118.051	121.706	121.709	0
1	22072003	36	Low	10.0	Vague	2	16	14	22	24.1	30.9	0.8	22	14	16	0.8	30.9	24.1	1	1.161	0.000	R	16	24.1	122.211	123.361	124.523	124.525	0
1	22072003	37	Low	10.0	Vague	2	17	16	20	10.4	24.1	0.0	20	17	16	0.0	10.4	24.1	1	1.681	0.001	D	17	10.4	125.028	126.098	127.779	127.781	0
1	22072003	38	Low	10.0	Precise	1	18	17	10	10.2	10.4	2.0	10	18	17	2.0	10.2	10.4	2	0.707	0.001	R	17	10.4	128.283	129.744	130.450	130.453	0
1	22072003	39	Low	10.0	Precise	1	18	14	8	10.2	30.9	0.3	18	14	8	10.2	30.9	0.3	2	1.790	0.000	D	14	30.9	130.955	133.477	135.266	135.269	0
1	22072003	40	Low	10.0	Precise	1	16	14	5	24.1	30.9	0.0	16	5	14	24.1	0.0	30.9	1	1.006	0.000	L	16	24.1	135.772	137.949	138.954	138.957	0
1	22072003	41	Low	10.0	Precise	1	12	13	4	2.3	3.7	0.2	13	12	4	3.7	2.3	0.2	2	2.631	0.000	L	13	3.7	139.459	140.572	143.202	143.205	0
1	22072003	42	Low	10.0	Vague	2	12	18	20	2.3	10.2	0.0	12	18	20	2.3	10.2	0.0	1	2.983	0.000	L	12	2.3	143.707	144.652	147.634	147.637	0
1	22072003	43	Low	10.0	Vague	2	13	17	32	3.7	10.4	0.0	17	13	32	10.4	3.7	0.0	2	0.942	0.000	L	17	10.4	148.140	149.820	150.762	150.765	0
1	22072003	44	Low	10.0	Precise	1	18	16	4	10.2	24.1	0.2	4	18	16	0.2	10.2	24.1	2	1.357	0.000	R	16	24.1	151.267	151.893	153.250	153.253	0
1	22072003	45	Low	10.0	Precise	1	13	16	8	3.7	24.1	0.3	13	16	8	3.7	24.1	0.3	2	1.583	0.001	D	16	24.1	153.756	154.683	156.266	156.269	0
1	22072003	46	Low	10.0	Vague	2	12	16	32	2.3	24.1	0.0	12	16	32	2.3	24.1	0.0	2	0.914	0.000	D	16	24.1	156.771	158.360	159.274	159.277	0
1	22072003	47	Low	10.0	Vague	2	16	14	34	24.1	30.9	1.1	34	14	16	1.1	30.9	24.1	1	0.978	0.000	R	16	24.1	159.780	162.233	163.211	163.213	0
1	22072003	48	Low	10.0	Precise	1	18	14	4	10.2	30.9	0.2	14	4	18	30.9	0.2	10.2	2	3.035	0.000	L	14	30.9	163.715	165.456	168.490	168.493	0
1	22072003	49	Low	10.0	Precise	1	13	18	4	3.7	10.2	0.2	4	13	18	0.2	3.7	10.2	1	0.703	0.000	D	13	3.7	168.995	170.971	171.674	171.677	0
1	22072003	50	Low	10.0	Precise	1	13	18	5	3.7	10.2	0.0	13	18	5	3.7	10.2	0.0	1	0.594	0.000	L	13	3.7	172.179	173.880	174.474	174.476	0
1	22072003	51	Low	10.0	Precise	1	18	17	8	10.2	10.4	0.3	18	8	17	10.2	0.3	10.4	2	1.132	0.000	R	17	10.4	174.979	177.351	178.483	178.485	0
1	22072003	52	Low	10.0	Precise	1	16	14	8	24.1	30.9	0.3	14	16	8	30.9	24.1	0.3	1	1.216	0.000	D	16	24.1	178.988	181.714	182.931	182.933	0
1	22072003	53	Low	10.0	Precise	1	16	14	1	24.1	30.9	1.1	1	16	14	1.1	24.1	30.9	1	0.774	0.000	D	16	24.1	183.435	184.325	185.098	185.101	0
1	22072003	54	Low	10.0	Vague	2	16	14	32	24.1	30.9	0.0	16	14	32	24.1	30.9	0.0	1	1.290	0.000	L	16	24.1	185.604	186.504	187.794	187.797	0
1	22072003	55	Low	10.0	Precise	1	18	16	5	10.2	24.1	0.0	16	5	18	24.1	0.0	10.2	1	1.035	0.000	R	18	10.2	188.300	189.639	190.674	190.677	0
1	22072003	56	Low	10.0	Precise	1	18	14	9	10.2	30.9	0.0	14	9	18	30.9	0.0	10.2	1	0.763	0.000	R	18	10.2	191.179	194.039	194.802	194.804	0
1	22072003	57	Low	10.0	Vague	2	13	18	35	3.7	10.2	2.0	18	13	35	10.2	3.7	2.0	1	1.407	0.000	D	13	3.7	195.307	195.891	197.298	197.301	0
1	22072003	58	Low	10.0	Vague	2	17	14	22	10.4	30.9	0.8	17	14	22	10.4	30.9	0.8	1	1.310	0.000	L	17	10.4	197.804	199.700	201.010	201.013	0
1	22072003	59	Low	10.0	Precise	1	18	16	9	10.2	24.1	0.0	18	16	9	10.2	24.1	0.0	2	0.855	0.000	D	16	24.1	201.515	203.044	203.898	203.901	0
1	22072003	60	Low	10.0	Precise	1	12	18	10	2.3	10.2	2.0	10	12	18	2.0	2.3	10.2	2	0.723	0.000	R	18	10.2	204.403	206.903	207.626	207.629	0
1	22072003	61	Low	10.0	Precise	1	12	18	9	2.3	10.2	0.0	18	9	12	10.2	0.0	2.3	2	0.769	0.000	L	18	10.2	212.275	212.945	213.714	213.717	0
1	22072003	62	Low	10.0	Vague	2	12	13	32	2.3	3.7	0.0	32	12	13	0.0	2.3	3.7	2	0.659	0.000	R	13	3.7	214.219	216.704	217.362	217.365	0
1	22072003	63	Low	10.0	Vague	2	12	16	22	2.3	24.1	0.8	16	22	12	24.1	0.8	2.3	2	1.206	0.000	L	16	24.1	217.868	219.221	220.426	220.429	0
1	22072003	64	Low	10.0	Precise	1	13	18	1	3.7	10.2	1.1	1	13	18	1.1	3.7	10.2	1	0.693	0.001	D	13	3.7	220.931	223.014	223.706	223.709	0
1	22072003	65	Low	10.0	Vague	2	12	17	20	2.3	10.4	0.0	17	12	20	10.4	2.3	0.0	2	0.632	0.000	L	17	10.4	224.211	226.355	226.986	226.989	0
1	22072003	66	Low	10.0	Precise	1	18	16	1	10.2	24.1	1.1	16	18	1	24.1	10.2	1.1	1	0.515	0.001	D	18	10.2	227.492	229.023	229.539	229.541	0
1	22072003	67	Low	10.0	Vague	2	13	17	22	3.7	10.4	0.8	22	13	17	0.8	3.7	10.4	2	0.795	0.000	R	17	10.4	230.044	231.935	232.730	232.733	0
1	22072003	68	Low	10.0	Precise	1	17	14	1	10.4	30.9	1.1	17	1	14	10.4	1.1	30.9	1	0.564	0.000	L	17	10.4	233.235	235.750	236.314	236.317	0
1	22072003	69	Low	10.0	Precise	1	13	16	9	3.7	24.1	0.0	16	13	9	24.1	3.7	0.0	2	0.977	0.000	L	16	24.1	236.820	239.217	240.194	240.197	0
1	22072003	70	Low	10.0	Vague	2	13	14	22	3.7	30.9	0.8	14	13	22	30.9	3.7	0.8	1	1.169	0.000	D	13	3.7	240.699	243.305	244.474	244.477	0
1	22072003	71	Low	10.0	Precise	1	18	14	1	10.2	30.9	1.1	18	14	1	10.2	30.9	1.1	1	0.926	0.000	L	18	10.2	244.979	246.044	246.970	246.972	0
1	22072003	72	Low	10.0	Precise	1	13	14	1	3.7	30.9	1.1	13	1	14	3.7	1.1	30.9	1	0.819	0.000	L	13	3.7	247.475	249.031	249.850	249.853	0
1	22072003	73	Low	10.0	Precise	1	17	16	10	10.4	24.1	2.0	17	10	16	10.4	2.0	24.1	1	0.576	0.000	L	17	10.4	250.356	252.939	253.514	253.517	0
1	22072003	74	Low	10.0	Vague	2	18	14	20	10.2	30.9	0.0	20	14	18	0.0	30.9	10.2	1	0.761	0.000	R	18	10.2	254.020	254.778	255.538	255.541	0
1	22072003	75	Low	10.0	Vague	2	17	14	20	10.4	30.9	0.0	20	17	14	0.0	10.4	30.9	1	0.722	0.000	D	17	10.4	256.043	258.608	259.330	259.333	0
1	22072003	76	Low	10.0	Precise	1	12	18	5	2.3	10.2	0.0	5	18	12	0.0	10.2	2.3	2	0.756	0.000	D	18	10.2	259.835	261.734	262.490	262.493	0
1	22072003	77	Low	10.0	Vague	2	18	17	35	10.2	10.4	2.0	18	17	35	10.2	10.4	2.0	1	0.559	0.000	L	18	10.2	262.995	264.684	265.242	265.245	0
1	22072003	78	Low	10.0	Vague	2	13	14	32	3.7	30.9	0.0	14	13	32	30.9	3.7	0.0	1	1.211	0.001	D	13	3.7	265.747	267.536	268.746	268.749	0
1	22072003	79	Low	10.0	Vague	2	12	18	32	2.3	10.2	0.0	12	32	18	2.3	0.0	10.2	2	0.545	0.001	R	18	10.2	269.252	271.458	272.003	272.005	0
1	22072003	80	Low	10.0	Vague	2	13	14	34	3.7	30.9	1.1	13	34	14	3.7	1.1	30.9	1	1.392	0.000	L	13	3.7	272.507	273.914	275.306	275.309	0
1	22072003	81	Low	10.0	Vague	2	17	14	34	10.4	30.9	1.1	14	17	34	30.9	10.4	1.1	1	0.777	0.000	D	17	10.4	275.812	278.514	279.290	279.293	0
1	22072003	82	Low	10.0	Precise	1	12	16	10	2.3	24.1	2.0	12	16	10	2.3	24.1	2.0	2	1.231	0.001	D	16	24.1	279.795	280.619	281.850	281.853	0
1	22072003	83	Low	10.0	Vague	2	12	14	22	2.3	30.9	0.8	12	22	14	2.3	0.8	30.9	2	2.849	0.000	R	14	30.9	282.355	283.753	286.602	286.604	0
1	22072003	84	Low	10.0	Vague	2	13	14	23	3.7	30.9	0.0	14	13	23	30.9	3.7	0.0	1	0.764	0.000	D	13	3.7	287.107	288.238	289.002	289.005	0
1	22072003	85	Low	10.0	Vague	2	17	16	23	10.4	24.1	0.0	16	17	23	24.1	10.4	0.0	1	0.986	0.000	D	17	10.4	289.507	292.056	293.042	293.044	0
1	22072003	86	Low	10.0	Precise	1	12	13	9	2.3	3.7	0.0	12	9	13	2.3	0.0	3.7	2	1.223	0.001	R	13	3.7	293.547	296.420	297.642	297.645	0
1	22072003	87	Low	10.0	Vague	2	12	13	20	2.3	3.7	0.0	13	12	20	3.7	2.3	0.0	2	1.000	0.001	L	13	3.7	298.147	299.098	300.098	300.101	0
1	22072003	88	Low	10.0	Vague	2	18	16	32	10.2	24.1	0.0	32	16	18	0.0	24.1	10.2	2	0.671	0.000	D	16	24.1	300.604	302.443	303.114	303.117	0
1	22072003	89	Low	10.0	Vague	2	17	16	35	10.4	24.1	2.0	17	35	16	10.4	2.0	24.1	1	0.663	0.000	L	17	10.4	303.620	306.139	306.802	306.805	0
1	22072003	90	Low	10.0	Precise	1	12	18	1	2.3	10.2	1.1	18	1	12	10.2	1.1	2.3	2	0.464	0.000	L	18	10.2	307.307	308.770	309.234	309.237	0
1	22072003	91	Low	10.0	Precise	1	17	14	5	10.4	30.9	0.0	5	14	17	0.0	30.9	10.4	1	0.990	0.000	R	17	10.4	309.739	310.388	311.378	311.381	0
1	22072003	92	Low	10.0	Precise	1	12	17	8	2.3	10.4	0.3	8	12	17	0.3	2.3	10.4	2	0.641	0.000	R	17	10.4	311.883	313.218	313.858	313.861	0
1	22072003	93	Low	10.0	Vague	2	18	17	22	10.2	10.4	0.8	22	18	17	0.8	10.2	10.4	2	0.634	0.000	R	17	10.4	314.364	315.368	316.002	316.005	0
1	22072003	94	Low	10.0	Precise	1	12	14	8	2.3	30.9	0.3	14	12	8	30.9	2.3	0.3	1	1.723	0.001	D	12	2.3	316.507	317.688	319.410	319.413	0
1	22072003	95	Low	10.0	Precise	1	12	16	5	2.3	24.1	0.0	12	5	16	2.3	0.0	24.1	2	0.816	0.000	R	16	24.1	319.916	321.842	322.658	322.660	0
1	22072003	96	Low	10.0	Precise	1	12	18	8	2.3	10.2	0.3	8	12	18	0.3	2.3	10.2	2	0.685	0.000	R	18	10.2	323.163	325.693	326.378	326.381	0
1	22072003	97	Low	10.0	Precise	1	12	17	5	2.3	10.4	0.0	17	5	12	10.4	0.0	2.3	2	0.674	0.000	L	17	10.4	326.884	328.008	328.682	328.685	0
1	22072003	98	Low	10.0	Precise	1	12	16	9	2.3	24.1	0.0	9	12	16	0.0	2.3	24.1	2	0.991	0.001	R	16	24.1	329.187	331.635	332.626	332.629	0
1	22072003	99	Low	10.0	Precise	1	17	16	8	10.4	24.1	0.3	16	17	8	24.1	10.4	0.3	1	0.880	0.000	D	17	10.4	333.132	334.946	335.826	335.829	0
1	22072003	100	Low	10.0	Precise	1	13	14	5	3.7	30.9	0.0	14	13	5	30.9	3.7	0.0	1	1.001	0.000	D	13	3.7	336.331	337.258	338.258	338.261	0
1	22072003	101	Low	10.0	Precise	1	18	17	9	10.2	10.4	0.0	9	18	17	0.0	10.2	10.4	2	0.829	0.000	R	17	10.4	338.763	341.582	342.410	342.413	0
1	22072003	102	Low	10.0	Vague	2	13	16	35	3.7	24.1	2.0	16	13	35	24.1	3.7	2.0	2	1.486	0.000	L	16	24.1	342.915	345.564	347.050	347.052	0
1	22072003	103	Low	10.0	Precise	1	13	17	10	3.7	10.4	2.0	10	13	17	2.0	3.7	10.4	2	0.561	0.000	R	17	10.4	347.555	348.249	348.810	348.812	0
1	22072003	104	Low	10.0	Precise	1	12	18	4	2.3	10.2	0.2	4	18	12	0.2	10.2	2.3	2	0.972	0.000	D	18	10.2	349.315	352.054	353.026	353.029	0
1	22072003	105	Low	10.0	Precise	1	13	14	9	3.7	30.9	0.0	9	13	14	0.0	3.7	30.9	1	0.669	0.000	D	13	3.7	353.531	355.494	356.162	356.165	0
1	22072003	106	Low	10.0	Vague	2	12	14	32	2.3	30.9	0.0	12	32	14	2.3	0.0	30.9	3	2.140	0.000	D	32	0.0	356.667	358.030	360.170	360.173	0
1	22072003	107	Low	10.0	Precise	1	13	17	5	3.7	10.4	0.0	13	17	5	3.7	10.4	0.0	2	0.910	0.000	D	17	10.4	360.675	361.980	362.890	362.893	0
1	22072003	108	Low	10.0	Precise	1	13	16	10	3.7	24.1	2.0	13	16	10	3.7	24.1	2.0	2	0.950	0.000	D	16	24.1	363.396	365.324	366.274	366.277	0
1	22072003	109	Low	10.0	Vague	2	13	16	22	3.7	24.1	0.8	16	22	13	24.1	0.8	3.7	2	1.331	0.000	L	16	24.1	366.780	367.455	368.786	368.789	0
1	22072003	110	Low	10.0	Precise	1	17	14	9	10.4	30.9	0.0	14	9	17	30.9	0.0	10.4	1	0.594	0.000	R	17	10.4	369.291	370.192	370.786	370.788	0
1	22072003	111	Low	10.0	Vague	2	12	18	22	2.3	10.2	0.8	18	12	22	10.2	2.3	0.8	2	0.792	0.000	L	18	10.2	371.291	372.858	373.650	373.652	0
1	22072003	112	Low	10.0	Vague	2	13	18	20	3.7	10.2	0.0	18	13	20	10.2	3.7	0.0	2	0.505	0.000	L	18	10.2	374.156	375.745	376.250	376.252	0
1	22072003	113	Low	10.0	Precise	1	18	16	10	10.2	24.1	2.0	18	10	16	10.2	2.0	24.1	1	0.496	0.000	L	18	10.2	376.755	379.098	379.594	379.596	0
1	22072003	114	Low	10.0	Vague	2	18	14	32	10.2	30.9	0.0	14	32	18	30.9	0.0	10.2	1	0.634	0.001	R	18	10.2	380.099	381.400	382.034	382.037	0
1	22072003	115	Low	10.0	Vague	2	18	14	34	10.2	30.9	1.1	34	18	14	1.1	10.2	30.9	1	0.519	0.000	D	18	10.2	382.539	383.588	384.106	384.109	0
1	22072003	116	Low	10.0	Precise	1	17	14	4	10.4	30.9	0.2	14	4	17	30.9	0.2	10.4	1	0.733	0.000	R	17	10.4	384.611	385.533	386.266	386.268	0
1	22072003	117	Low	10.0	Vague	2	18	17	23	10.2	10.4	0.0	18	23	17	10.2	0.0	10.4	1	0.551	0.000	L	18	10.2	386.771	387.675	388.226	388.228	0
1	22072003	118	Low	10.0	Vague	2	12	17	23	2.3	10.4	0.0	12	17	23	2.3	10.4	0.0	2	0.634	0.000	D	17	10.4	388.731	390.456	391.090	391.093	0
1	22072003	119	Low	10.0	Vague	2	12	17	32	2.3	10.4	0.0	17	12	32	10.4	2.3	0.0	2	0.611	0.000	L	17	10.4	391.595	392.231	392.842	392.844	0
1	22072003	120	Low	10.0	Vague	2	13	18	34	3.7	10.2	1.1	18	13	34	10.2	3.7	1.1	2	0.532	0.001	L	18	10.2	393.347	396.238	396.770	396.773	0
1	22072003	121	Low	10.0	Precise	1	13	16	4	3.7	24.1	0.2	16	13	4	24.1	3.7	0.2	1	1.034	0.001	D	13	3.7	409.102	411.888	412.922	412.925	0
1	22072003	122	Low	10.0	Vague	2	18	17	34	10.2	10.4	1.1	18	17	34	10.2	10.4	1.1	1	0.598	0.001	L	18	10.2	413.428	415.141	415.738	415.741	0
1	22072003	123	Low	10.0	Vague	2	18	14	23	10.2	30.9	0.0	14	23	18	30.9	0.0	10.2	1	0.515	0.000	R	18	10.2	416.243	418.799	419.314	419.317	0
1	22072003	124	Low	10.0	Vague	2	17	16	32	10.4	24.1	0.0	16	17	32	24.1	10.4	0.0	1	0.660	0.000	D	17	10.4	419.819	420.670	421.330	421.333	0
1	22072003	125	Low	10.0	Precise	1	12	13	8	2.3	3.7	0.3	12	13	8	2.3	3.7	0.3	2	0.842	0.000	D	13	3.7	421.835	422.800	423.642	423.644	0
1	22072003	126	Low	10.0	Precise	1	18	14	5	10.2	30.9	0.0	5	18	14	0.0	10.2	30.9	1	0.648	0.000	D	18	10.2	424.148	426.874	427.522	427.524	0
1	22072003	127	Low	10.0	Vague	2	13	16	32	3.7	24.1	0.0	13	16	32	3.7	24.1	0.0	2	1.011	0.001	D	16	24.1	428.028	428.583	429.594	429.597	0
1	22072003	128	Low	10.0	Vague	2	13	14	20	3.7	30.9	0.0	20	13	14	0.0	3.7	30.9	1	0.628	0.001	D	13	3.7	430.099	431.542	432.170	432.173	0
1	22072003	129	Low	10.0	Precise	1	12	13	10	2.3	3.7	2.0	10	13	12	2.0	3.7	2.3	2	0.561	0.001	D	13	3.7	432.676	435.242	435.802	435.805	0
1	22072003	130	Low	10.0	Vague	2	18	16	23	10.2	24.1	0.0	23	18	16	0.0	10.2	24.1	1	0.834	0.001	D	18	10.2	436.308	437.216	438.050	438.053	0
1	22072003	131	Low	10.0	Precise	1	13	16	5	3.7	24.1	0.0	5	13	16	0.0	3.7	24.1	1	0.612	0.000	D	13	3.7	438.555	439.190	439.802	439.804	0
1	22072003	132	Low	10.0	Vague	2	13	14	35	3.7	30.9	2.0	14	35	13	30.9	2.0	3.7	1	0.552	0.000	R	13	3.7	440.307	441.146	441.698	441.700	0
1	22072003	133	Low	10.0	Precise	1	13	18	10	3.7	10.2	2.0	18	13	10	10.2	3.7	2.0	2	1.495	0.000	L	18	10.2	442.203	443.739	445.234	445.236	0
1	22072003	134	Low	10.0	Vague	2	16	14	35	24.1	30.9	2.0	35	16	14	2.0	24.1	30.9	1	1.166	0.001	D	16	24.1	445.740	448.236	449.402	449.405	0
1	22072003	135	Low	10.0	Precise	1	13	17	1	3.7	10.4	1.1	13	1	17	3.7	1.1	10.4	2	0.941	0.000	R	17	10.4	449.908	452.861	453.802	453.805	0
1	22072003	136	Low	10.0	Vague	2	12	13	22	2.3	3.7	0.8	13	22	12	3.7	0.8	2.3	2	1.399	0.000	L	13	3.7	454.307	454.891	456.290	456.292	0
1	22072003	137	Low	10.0	Precise	1	16	14	10	24.1	30.9	2.0	14	10	16	30.9	2.0	24.1	1	1.842	0.001	R	16	24.1	456.796	459.232	461.074	461.078	0
1	22072003	138	Low	10.0	Precise	1	12	16	1	2.3	24.1	1.1	12	1	16	2.3	1.1	24.1	2	1.173	0.000	R	16	24.1	461.580	464.277	465.450	465.452	0
1	22072003	139	Low	10.0	Vague	2	12	17	34	2.3	10.4	1.1	34	17	12	1.1	10.4	2.3	2	1.109	0.001	D	17	10.4	465.955	468.421	469.530	469.533	0
1	22072003	140	Low	10.0	Vague	2	16	14	20	24.1	30.9	0.0	20	14	16	0.0	30.9	24.1	1	0.767	0.001	R	16	24.1	470.035	473.003	473.770	473.772	0
1	22072003	141	Low	10.0	Precise	1	12	17	10	2.3	10.4	2.0	17	12	10	10.4	2.3	2.0	2	0.727	0.000	L	17	10.4	474.275	475.251	475.978	475.980	0
1	22072003	142	Low	10.0	Precise	1	13	14	8	3.7	30.9	0.3	13	8	14	3.7	0.3	30.9	1	1.296	0.000	L	13	3.7	476.483	478.498	479.794	479.796	0
1	22072003	143	Low	10.0	Vague	2	12	16	20	2.3	24.1	0.0	20	16	12	0.0	24.1	2.3	2	1.133	0.000	D	16	24.1	480.299	482.413	483.546	483.548	0
1	22072003	144	Low	10.0	Precise	1	18	16	8	10.2	24.1	0.3	18	8	16	10.2	0.3	24.1	2	1.017	0.001	R	16	24.1	484.051	484.697	485.714	485.716	0
1	22072003	145	Low	10.0	Vague	2	13	16	20	3.7	24.1	0.0	16	20	13	24.1	0.0	3.7	2	0.878	0.000	L	16	24.1	486.219	487.180	488.058	488.060	0
1	22072003	146	Low	10.0	Precise	1	13	18	9	3.7	10.2	0.0	9	18	13	0.0	10.2	3.7	2	0.822	0.001	D	18	10.2	488.563	491.476	492.298	492.301	0
1	22072003	147	Low	10.0	Precise	1	12	17	9	2.3	10.4	0.0	12	17	9	2.3	10.4	0.0	2	1.100	0.000	D	17	10.4	492.803	493.454	494.554	494.556	0
1	22072003	148	Low	10.0	Vague	2	18	14	35	10.2	30.9	2.0	14	18	35	30.9	10.2	2.0	1	0.818	0.001	D	18	10.2	495.059	495.921	496.738	496.741	0
1	22072003	149	Low	10.0	Vague	2	13	18	23	3.7	10.2	0.0	13	18	23	3.7	10.2	0.0	2	0.664	0.001	D	18	10.2	497.243	499.130	499.794	499.797	0
1	22072003	150	Low	10.0	Vague	2	17	14	23	10.4	30.9	0.0	23	17	14	0.0	10.4	30.9	1	0.922	0.000	D	17	10.4	500.299	502.056	502.978	502.980	0
1	22072003	151	Low	10.0	Precise	1	16	14	4	24.1	30.9	0.2	14	4	16	30.9	0.2	24.1	1	1.016	0.000	R	16	24.1	503.483	504.810	505.826	505.828	0
1	22072003	152	Low	10.0	Precise	1	18	17	4	10.2	10.4	0.2	4	18	17	0.2	10.2	10.4	1	0.701	0.000	D	18	10.2	506.331	507.877	508.578	508.580	0
1	22072003	153	Low	10.0	Vague	2	12	13	35	2.3	3.7	2.0	12	13	35	2.3	3.7	2.0	2	1.158	0.000	D	13	3.7	509.083	510.236	511.394	511.396	0
1	22072003	154	Low	10.0	Vague	2	12	16	35	2.3	24.1	2.0	16	35	12	24.1	2.0	2.3	2	0.996	0.000	L	16	24.1	511.899	514.077	515.074	515.076	0
1	22072003	155	Low	10.0	Vague	2	13	17	34	3.7	10.4	1.1	17	34	13	10.4	1.1	3.7	2	0.808	0.001	L	17	10.4	515.579	517.058	517.866	517.869	0
1	22072003	156	Low	10.0	Vague	2	13	17	35	3.7	10.4	2.0	35	17	13	2.0	10.4	3.7	2	1.527	0.000	D	17	10.4	518.372	520.098	521.626	521.628	0
1	22072003	157	Low	10.0	Vague	2	12	17	22	2.3	10.4	0.8	12	17	22	2.3	10.4	0.8	2	0.755	0.000	D	17	10.4	522.131	524.383	525.138	525.140	0
1	22072003	158	Low	10.0	Precise	1	13	17	8	3.7	10.4	0.3	17	13	8	10.4	3.7	0.3	2	0.671	0.001	L	17	10.4	525.643	527.675	528.346	528.348	0
1	22072003	159	Low	10.0	Vague	2	17	16	34	10.4	24.1	1.1	16	34	17	24.1	1.1	10.4	1	1.125	0.000	R	17	10.4	528.851	531.629	532.754	532.756	0
1	22072003	160	Low	10.0	Vague	2	12	14	35	2.3	30.9	2.0	12	35	14	2.3	2.0	30.9	3	1.717	0.000	D	35	2.0	533.259	535.653	537.370	537.372	0
1	22072003	161	Low	10.0	Vague	2	12	16	23	2.3	24.1	0.0	12	16	23	2.3	24.1	0.0	2	0.721	0.000	D	16	24.1	537.875	540.297	541.018	541.021	0
1	22072003	162	Low	10.0	Vague	2	12	18	35	2.3	10.2	2.0	12	18	35	2.3	10.2	2.0	2	1.043	0.000	D	18	10.2	541.523	542.135	543.178	543.180	0
1	22072003	163	Low	10.0	Precise	1	12	14	9	2.3	30.9	0.0	12	9	14	2.3	0.0	30.9	3	1.751	0.000	D	9	0.0	543.684	545.299	547.050	547.052	0
1	22072003	164	Low	10.0	Vague	2	18	16	22	10.2	24.1	0.8	22	16	18	0.8	24.1	10.2	1	0.870	0.000	R	18	10.2	547.555	549.628	550.498	550.500	0
1	22072003	165	Low	10.0	Vague	2	16	14	23	24.1	30.9	0.0	23	14	16	0.0	30.9	24.1	1	0.841	0.000	R	16	24.1	551.003	553.185	554.026	554.028	0
1	22072003	166	Low	10.0	Vague	2	18	17	32	10.2	10.4	0.0	18	32	17	10.2	0.0	10.4	1	0.552	0.000	L	18	10.2	554.531	555.954	556.506	556.508	0
1	22072003	167	Low	10.0	Vague	2	18	16	35	10.2	24.1	2.0	18	35	16	10.2	2.0	24.1	1	0.523	0.001	L	18	10.2	557.011	559.687	560.210	560.213	0
1	22072003	168	Low	10.0	Vague	2	17	14	32	10.4	30.9	0.0	32	14	17	0.0	30.9	10.4	1	0.673	0.000	R	17	10.4	560.716	561.913	562.586	562.588	0
1	22072003	169	Low	10.0	Precise	1	12	14	5	2.3	30.9	0.0	14	12	5	30.9	2.3	0.0	2	2.150	0.000	L	14	30.9	563.091	563.707	565.858	565.860	0
1	22072003	170	Low	10.0	Precise	1	13	18	8	3.7	10.2	0.3	18	13	8	10.2	3.7	0.3	2	0.664	0.000	L	18	10.2	566.363	569.058	569.722	569.725	0
1	22072003	171	Low	10.0	Vague	2	18	14	22	10.2	30.9	0.8	18	22	14	10.2	0.8	30.9	1	0.648	0.001	L	18	10.2	570.228	572.842	573.490	573.492	0
1	22072003	172	Low	10.0	Precise	1	13	14	4	3.7	30.9	0.2	4	14	13	0.2	30.9	3.7	1	1.074	0.000	R	13	3.7	573.995	575.488	576.562	576.564	0
1	22072003	173	Low	10.0	Vague	2	12	13	34	2.3	3.7	1.1	34	13	12	1.1	3.7	2.3	2	1.211	0.000	D	13	3.7	577.067	579.047	580.258	580.260	0
1	22072003	174	Low	10.0	Precise	1	12	17	4	2.3	10.4	0.2	4	12	17	0.2	2.3	10.4	2	0.905	0.000	R	17	10.4	580.764	582.777	583.682	583.684	0
1	22072003	175	Low	10.0	Vague	2	12	18	23	2.3	10.2	0.0	18	23	12	10.2	0.0	2.3	2	0.710	0.001	L	18	10.2	584.187	585.004	585.714	585.716	0
1	22072003	176	Low	10.0	Precise	1	16	14	9	24.1	30.9	0.0	16	9	14	24.1	0.0	30.9	1	0.766	0.000	L	16	24.1	586.219	586.852	587.618	587.621	0
1	22072003	177	Low	10.0	Vague	2	13	16	34	3.7	24.1	1.1	13	34	16	3.7	1.1	24.1	1	0.566	0.000	L	13	3.7	588.124	588.676	589.242	589.244	0
1	22072003	178	Low	10.0	Vague	2	13	17	23	3.7	10.4	0.0	23	17	13	0.0	10.4	3.7	2	0.820	0.000	D	17	10.4	589.747	591.582	592.402	592.405	0
1	22072003	179	Low	10.0	Precise	1	12	16	4	2.3	24.1	0.2	4	16	12	0.2	24.1	2.3	2	0.725	0.000	D	16	24.1	592.907	594.197	594.922	594.924	0
1	22072003	180	Low	10.0	Vague	2	12	17	35	2.3	10.4	2.0	12	17	35	2.3	10.4	2.0	2	0.618	0.000	D	17	10.4	595.427	597.880	598.498	598.500	0
1	22072003	181	High	1.5	Vague	2	13	16	21	3.7	24.1	0.0	16	13	21	24.1	3.7	0.0	2	0.895	0.000	L	16	24.1	609.118	609.867	610.762	610.764	0
1	22072003	182	High	1.5	Precise	1	18	14	3	10.2	30.9	0.0	3	18	14	0.0	10.2	30.9	1	1.168	0.000	D	18	10.2	611.267	612.642	613.810	613.813	0
1	22072003	183	High	1.5	Precise	1	18	16	3	10.2	24.1	0.0	16	18	3	24.1	10.2	0.0	1	0.536	0.000	D	18	10.2	614.316	615.714	616.250	616.252	0
1	22072003	184	High	1.5	Precise	1	18	16	2	10.2	24.1	0.2	2	16	18	0.2	24.1	10.2	1	0.464	0.000	R	18	10.2	616.755	618.498	618.962	618.964	0
1	22072003	185	High	1.5	Vague	2	13	18	28	3.7	10.2	0.0	13	28	18	3.7	0.0	10.2	2	0.430	0.000	R	18	10.2	619.467	620.076	620.506	620.508	0
1	22072003	186	High	1.5	Precise	1	12	16	3	2.3	24.1	0.0	16	3	12	24.1	0.0	2.3	2	0.904	0.000	L	16	24.1	621.011	621.682	622.586	622.588	0
1	22072003	187	High	1.5	Precise	1	17	16	15	10.4	24.1	1.3	16	15	17	24.1	1.3	10.4	1	0.760	0.001	R	17	10.4	623.091	625.106	625.866	625.868	0
1	22072003	188	High	1.5	Vague	2	18	14	28	10.2	30.9	0.0	14	28	18	30.9	0.0	10.2	1	0.584	0.000	R	18	10.2	626.370	627.834	628.418	628.420	0
1	22072003	189	High	1.5	Vague	2	13	17	27	3.7	10.4	0.8	17	27	13	10.4	0.8	3.7	2	0.687	0.000	L	17	10.4	628.923	631.635	632.322	632.324	0
1	22072003	190	High	1.5	Precise	1	18	14	6	10.2	30.9	0.0	6	14	18	0.0	30.9	10.2	1	0.510	0.000	R	18	10.2	632.827	634.428	634.938	634.940	0
1	22072003	191	High	1.5	Vague	2	13	14	19	3.7	30.9	0.0	14	13	19	30.9	3.7	0.0	1	0.961	0.000	D	13	3.7	635.443	637.273	638.234	638.236	0
1	22072003	192	High	1.5	Vague	2	12	14	24	2.3	30.9	1.4	24	14	12	1.4	30.9	2.3	NaN	NaN	NaN	NaN	NaN	NaN	638.739	639.556	NaN	641.046	1
1	22072003	193	High	1.5	Vague	2	13	17	28	3.7	10.4	0.0	13	28	17	3.7	0.0	10.4	2	0.559	0.000	R	17	10.4	643.050	645.162	645.722	645.726	0
1	22072003	194	High	1.5	Precise	1	12	14	3	2.3	30.9	0.0	12	3	14	2.3	0.0	30.9	NaN	NaN	NaN	NaN	NaN	NaN	646.228	648.063	NaN	649.550	1
1	22072003	195	High	1.5	Vague	2	12	13	25	2.3	3.7	0.9	12	13	25	2.3	3.7	0.9	2	1.081	0.000	D	13	3.7	651.553	652.168	653.250	653.252	0
1	22072003	196	High	1.5	Vague	2	18	14	19	10.2	30.9	0.0	14	19	18	30.9	0.0	10.2	1	0.888	0.001	R	18	10.2	653.755	655.370	656.258	656.260	0
1	22072003	197	High	1.5	Vague	2	17	16	25	10.4	24.1	0.9	17	16	25	10.4	24.1	0.9	1	0.541	0.000	L	17	10.4	656.764	657.573	658.114	658.116	0
1	22072003	198	High	1.5	Precise	1	12	13	2	2.3	3.7	0.2	2	13	12	0.2	3.7	2.3	2	1.042	0.000	D	13	3.7	658.620	659.632	660.674	660.676	0
1	22072003	199	High	1.5	Precise	1	17	14	15	10.4	30.9	1.3	14	17	15	30.9	10.4	1.3	1	0.591	0.000	D	17	10.4	661.179	661.971	662.562	662.565	0
1	22072003	200	High	1.5	Vague	2	16	14	19	24.1	30.9	0.0	16	19	14	24.1	0.0	30.9	1	0.925	0.000	L	16	24.1	663.067	665.365	666.290	666.292	0
1	22072003	201	High	1.5	Precise	1	18	16	6	10.2	24.1	0.0	6	18	16	0.0	10.2	24.1	2	0.548	0.000	R	16	24.1	666.795	669.294	669.842	669.844	0
1	22072003	202	High	1.5	Precise	1	16	14	15	24.1	30.9	1.3	16	14	15	24.1	30.9	1.3	1	0.745	0.000	L	16	24.1	670.347	671.241	671.986	671.988	0
1	22072003	203	High	1.5	Vague	2	12	18	27	2.3	10.2	0.8	18	12	27	10.2	2.3	0.8	2	0.438	0.001	L	18	10.2	672.491	675.284	675.722	675.724	0
1	22072003	204	High	1.5	Vague	2	12	14	28	2.3	30.9	0.0	14	12	28	30.9	2.3	0.0	NaN	NaN	NaN	NaN	NaN	NaN	676.227	676.962	NaN	678.449	1
1	22072003	205	High	1.5	Vague	2	18	14	27	10.2	30.9	0.8	18	14	27	10.2	30.9	0.8	1	0.499	0.001	L	18	10.2	680.451	682.663	683.162	683.165	0
1	22072003	206	High	1.5	Precise	1	17	14	3	10.4	30.9	0.0	17	3	14	10.4	0.0	30.9	1	0.670	0.000	L	17	10.4	683.667	685.219	685.890	685.892	0
1	22072003	207	High	1.5	Vague	2	18	16	19	10.2	24.1	0.0	16	19	18	24.1	0.0	10.2	1	0.504	0.000	R	18	10.2	686.395	686.978	687.482	687.484	0
1	22072003	208	High	1.5	Vague	2	17	16	24	10.4	24.1	1.4	24	16	17	1.4	24.1	10.4	1	0.558	0.001	R	17	10.4	687.987	689.308	689.866	689.868	0
1	22072003	209	High	1.5	Vague	2	13	16	24	3.7	24.1	1.4	24	16	13	1.4	24.1	3.7	2	0.800	0.001	D	16	24.1	690.371	692.818	693.618	693.621	0
1	22072003	210	High	1.5	Precise	1	13	18	15	3.7	10.2	1.3	18	15	13	10.2	1.3	3.7	2	0.557	0.000	L	18	10.2	694.123	696.821	697.378	697.380	0
1	22072003	211	High	1.5	Precise	1	13	14	6	3.7	30.9	0.0	13	14	6	3.7	30.9	0.0	1	0.844	0.000	L	13	3.7	697.883	699.846	700.690	700.692	0
1	22072003	212	High	1.5	Precise	1	12	16	7	2.3	24.1	0.2	7	12	16	0.2	2.3	24.1	2	0.744	0.000	R	16	24.1	701.195	703.137	703.882	703.884	0
1	22072003	213	High	1.5	Vague	2	13	18	19	3.7	10.2	0.0	13	18	19	3.7	10.2	0.0	2	0.475	0.000	D	18	10.2	704.387	706.255	706.730	706.732	0
1	22072003	214	High	1.5	Precise	1	12	18	7	2.3	10.2	0.2	12	18	7	2.3	10.2	0.2	2	0.601	0.001	D	18	10.2	707.235	709.504	710.106	710.108	0
1	22072003	215	High	1.5	Vague	2	17	14	19	10.4	30.9	0.0	19	17	14	0.0	10.4	30.9	1	0.662	0.000	D	17	10.4	710.611	712.324	712.986	712.988	0
1	22072003	216	High	1.5	Precise	1	13	18	2	3.7	10.2	0.2	18	2	13	10.2	0.2	3.7	2	0.570	0.000	L	18	10.2	713.491	714.568	715.138	715.140	0
1	22072003	217	High	1.5	Precise	1	12	17	11	2.3	10.4	0.6	12	17	11	2.3	10.4	0.6	2	0.601	0.000	D	17	10.4	715.642	717.336	717.938	717.940	0
1	22072003	218	High	1.5	Vague	2	18	16	24	10.2	24.1	1.4	18	16	24	10.2	24.1	1.4	1	0.470	0.000	L	18	10.2	718.442	721.092	721.562	721.564	0
1	22072003	219	High	1.5	Precise	1	18	16	11	10.2	24.1	0.6	18	16	11	10.2	24.1	0.6	1	0.490	0.000	L	18	10.2	722.067	724.992	725.482	725.484	0
1	22072003	220	High	1.5	Precise	1	12	13	7	2.3	3.7	0.2	12	13	7	2.3	3.7	0.2	2	0.798	0.001	D	13	3.7	725.987	728.868	729.666	729.669	0
1	22072003	221	High	1.5	Precise	1	18	17	2	10.2	10.4	0.2	2	18	17	0.2	10.2	10.4	1	0.522	0.000	D	18	10.2	730.172	733.048	733.570	733.572	0
1	22072003	222	High	1.5	Vague	2	16	14	25	24.1	30.9	0.9	14	25	16	30.9	0.9	24.1	1	0.832	0.001	R	16	24.1	734.075	736.530	737.362	737.364	0
1	22072003	223	High	1.5	Precise	1	17	14	6	10.4	30.9	0.0	17	6	14	10.4	0.0	30.9	1	0.612	0.000	L	17	10.4	737.867	738.790	739.402	739.404	0
1	22072003	224	High	1.5	Vague	2	13	18	24	3.7	10.2	1.4	24	18	13	1.4	10.2	3.7	2	0.669	0.000	D	18	10.2	739.907	741.589	742.258	742.260	0
1	22072003	225	High	1.5	Vague	2	13	14	25	3.7	30.9	0.9	14	13	25	30.9	3.7	0.9	1	0.896	0.000	D	13	3.7	742.763	745.602	746.498	746.500	0
1	22072003	226	High	1.5	Vague	2	12	17	28	2.3	10.4	0.0	17	28	12	10.4	0.0	2.3	2	0.635	0.001	L	17	10.4	747.003	749.183	749.818	749.820	0
1	22072003	227	High	1.5	Precise	1	18	17	11	10.2	10.4	0.6	18	11	17	10.2	0.6	10.4	1	0.517	0.001	L	18	10.2	750.323	753.060	753.578	753.580	0
1	22072003	228	High	1.5	Vague	2	17	16	21	10.4	24.1	0.0	17	21	16	10.4	0.0	24.1	1	0.691	0.000	L	17	10.4	754.083	755.199	755.890	755.892	0
1	22072003	229	High	1.5	Precise	1	16	14	2	24.1	30.9	0.2	2	16	14	0.2	24.1	30.9	1	1.341	0.000	D	16	24.1	756.395	757.301	758.642	758.644	0
1	22072003	230	High	1.5	Precise	1	12	14	15	2.3	30.9	1.3	12	15	14	2.3	1.3	30.9	NaN	NaN	NaN	NaN	NaN	NaN	759.146	760.079	NaN	761.566	1
1	22072003	231	High	1.5	Precise	1	13	16	6	3.7	24.1	0.0	16	6	13	24.1	0.0	3.7	2	0.791	0.000	L	16	24.1	763.569	765.491	766.282	766.284	0
1	22072003	232	High	1.5	Vague	2	13	18	21	3.7	10.2	0.0	18	13	21	10.2	3.7	0.0	2	0.782	0.000	L	18	10.2	766.787	769.228	770.010	770.012	0
1	22072003	233	High	1.5	Precise	1	18	14	15	10.2	30.9	1.3	15	18	14	1.3	10.2	30.9	NaN	NaN	NaN	NaN	NaN	NaN	770.515	772.084	NaN	773.572	1
1	22072003	234	High	1.5	Vague	2	13	14	28	3.7	30.9	0.0	14	13	28	30.9	3.7	0.0	1	0.897	0.001	D	13	3.7	775.576	777.937	778.834	778.836	0
1	22072003	235	High	1.5	Vague	2	17	14	25	10.4	30.9	0.9	17	25	14	10.4	0.9	30.9	1	0.646	0.001	L	17	10.4	779.339	782.252	782.898	782.900	0
1	22072003	236	High	1.5	Vague	2	16	14	21	24.1	30.9	0.0	21	16	14	0.0	24.1	30.9	1	0.715	0.000	D	16	24.1	783.403	786.167	786.882	786.884	0
1	22072003	237	High	1.5	Precise	1	12	13	3	2.3	3.7	0.0	12	13	3	2.3	3.7	0.0	2	1.205	0.001	D	13	3.7	787.387	790.077	791.282	791.285	0
1	22072003	238	High	1.5	Precise	1	17	14	2	10.4	30.9	0.2	14	17	2	30.9	10.4	0.2	1	0.628	0.000	D	17	10.4	791.788	792.358	792.986	792.988	0
1	22072003	239	High	1.5	Precise	1	12	16	15	2.3	24.1	1.3	16	15	12	24.1	1.3	2.3	2	0.720	0.000	L	16	24.1	793.491	794.466	795.185	795.188	0
1	22072003	240	High	1.5	Vague	2	18	16	28	10.2	24.1	0.0	18	16	28	10.2	24.1	0.0	2	0.545	0.001	D	16	24.1	795.691	797.057	797.602	797.605	0
1	22072003	241	High	1.5	Vague	2	18	17	19	10.2	10.4	0.0	19	17	18	0.0	10.4	10.2	1	0.536	0.000	R	18	10.2	804.895	806.786	807.321	807.325	0
1	22072003	242	High	1.5	Precise	1	13	17	11	3.7	10.4	0.6	13	11	17	3.7	0.6	10.4	2	0.999	0.000	R	17	10.4	807.828	809.923	810.922	810.924	0
1	22072003	243	High	1.5	Precise	1	13	16	2	3.7	24.1	0.2	16	2	13	24.1	0.2	3.7	2	0.907	0.001	L	16	24.1	811.427	813.207	814.114	814.116	0
1	22072003	244	High	1.5	Precise	1	17	16	7	10.4	24.1	0.2	16	17	7	24.1	10.4	0.2	1	1.042	0.001	D	17	10.4	814.619	815.592	816.634	816.636	0
1	22072003	245	High	1.5	Precise	1	17	16	2	10.4	24.1	0.2	17	16	2	10.4	24.1	0.2	1	0.592	0.000	L	17	10.4	817.139	819.066	819.658	819.660	0
1	22072003	246	High	1.5	Precise	1	12	18	2	2.3	10.2	0.2	18	12	2	10.2	2.3	0.2	2	0.561	0.000	L	18	10.2	820.162	823.080	823.641	823.644	0
1	22072003	247	High	1.5	Precise	1	12	18	3	2.3	10.2	0.0	3	12	18	0.0	2.3	10.2	2	0.550	0.000	R	18	10.2	824.147	825.116	825.666	825.668	0
1	22072003	248	High	1.5	Precise	1	13	17	3	3.7	10.4	0.0	3	17	13	0.0	10.4	3.7	2	0.792	0.000	D	17	10.4	826.170	829.073	829.866	829.868	0
1	22072003	249	High	1.5	Precise	1	13	18	11	3.7	10.2	0.6	18	11	13	10.2	0.6	3.7	2	0.500	0.000	L	18	10.2	830.371	830.878	831.377	831.380	0
1	22072003	250	High	1.5	Vague	2	17	14	21	10.4	30.9	0.0	17	21	14	10.4	0.0	30.9	1	0.599	0.000	L	17	10.4	831.883	834.411	835.009	835.012	0
1	22072003	251	High	1.5	Vague	2	12	16	28	2.3	24.1	0.0	28	12	16	0.0	2.3	24.1	2	0.866	0.000	R	16	24.1	835.514	838.063	838.929	838.932	0
1	22072003	252	High	1.5	Precise	1	12	17	15	2.3	10.4	1.3	15	12	17	1.3	2.3	10.4	2	0.804	0.001	R	17	10.4	839.435	842.142	842.946	842.948	0
1	22072003	253	High	1.5	Vague	2	13	17	25	3.7	10.4	0.9	13	17	25	3.7	10.4	0.9	2	0.663	0.000	D	17	10.4	843.452	845.251	845.914	845.916	0
1	22072003	254	High	1.5	Precise	1	12	13	6	2.3	3.7	0.0	6	13	12	0.0	3.7	2.3	NaN	NaN	NaN	NaN	NaN	NaN	846.419	847.460	NaN	848.950	1
1	22072003	255	High	1.5	Vague	2	17	16	28	10.4	24.1	0.0	28	16	17	0.0	24.1	10.4	1	0.632	0.000	R	17	10.4	850.952	852.585	853.217	853.220	0
1	22072003	256	High	1.5	Precise	1	13	14	15	3.7	30.9	1.3	13	15	14	3.7	1.3	30.9	1	0.800	0.001	L	13	3.7	853.723	854.250	855.050	855.052	0
1	22072003	257	High	1.5	Vague	2	13	16	28	3.7	24.1	0.0	16	28	13	24.1	0.0	3.7	2	0.947	0.000	L	16	24.1	855.555	858.238	859.185	859.188	0
1	22072003	258	High	1.5	Vague	2	12	17	19	2.3	10.4	0.0	17	19	12	10.4	0.0	2.3	2	0.910	0.001	L	17	10.4	859.690	860.308	861.218	861.220	0
1	22072003	259	High	1.5	Precise	1	13	17	7	3.7	10.4	0.2	13	7	17	3.7	0.2	10.4	2	0.502	0.000	R	17	10.4	861.722	864.011	864.513	864.516	0
1	22072003	260	High	1.5	Precise	1	18	17	3	10.2	10.4	0.0	18	3	17	10.2	0.0	10.4	2	0.497	0.001	R	17	10.4	865.019	866.704	867.202	867.204	0
1	22072003	261	High	1.5	Precise	1	12	17	6	2.3	10.4	0.0	17	12	6	10.4	2.3	0.0	2	0.593	0.000	L	17	10.4	867.707	868.928	869.521	869.524	0
1	22072003	262	High	1.5	Vague	2	18	16	21	10.2	24.1	0.0	16	18	21	24.1	10.2	0.0	1	0.520	0.000	D	18	10.2	870.027	870.665	871.186	871.188	0
1	22072003	263	High	1.5	Vague	2	18	16	25	10.2	24.1	0.9	25	18	16	0.9	10.2	24.1	2	0.470	0.000	R	16	24.1	871.691	872.539	873.010	873.012	0
1	22072003	264	High	1.5	Vague	2	12	17	24	2.3	10.4	1.4	17	24	12	10.4	1.4	2.3	2	0.617	0.000	L	17	10.4	873.514	875.664	876.281	876.284	0
1	22072003	265	High	1.5	Vague	2	12	18	28	2.3	10.2	0.0	28	18	12	0.0	10.2	2.3	2	0.523	0.000	D	18	10.2	876.787	879.255	879.778	879.780	0
1	22072003	266	High	1.5	Precise	1	18	17	15	10.2	10.4	1.3	18	17	15	10.2	10.4	1.3	1	0.516	0.001	L	18	10.2	880.282	883.230	883.746	883.749	0
1	22072003	267	High	1.5	Precise	1	12	18	15	2.3	10.2	1.3	15	12	18	1.3	2.3	10.2	2	0.525	0.001	R	18	10.2	884.251	885.285	885.810	885.812	0
1	22072003	268	High	1.5	Vague	2	18	14	25	10.2	30.9	0.9	14	18	25	30.9	10.2	0.9	1	0.534	0.000	D	18	10.2	886.315	887.667	888.202	888.204	0
1	22072003	269	High	1.5	Vague	2	13	14	27	3.7	30.9	0.8	14	13	27	30.9	3.7	0.8	1	1.023	0.001	D	13	3.7	888.706	890.610	891.634	891.637	0
1	22072003	270	High	1.5	Precise	1	17	14	7	10.4	30.9	0.2	7	17	14	0.2	10.4	30.9	1	0.800	0.001	D	17	10.4	892.140	893.482	894.282	894.284	0
1	22072003	271	High	1.5	Vague	2	18	14	21	10.2	30.9	0.0	18	21	14	10.2	0.0	30.9	1	0.959	0.001	L	18	10.2	894.787	896.523	897.482	897.484	0
1	22072003	272	High	1.5	Vague	2	13	14	21	3.7	30.9	0.0	14	21	13	30.9	0.0	3.7	1	0.964	0.000	R	13	3.7	897.987	900.797	901.761	901.764	0
1	22072003	273	High	1.5	Precise	1	12	17	2	2.3	10.4	0.2	12	17	2	2.3	10.4	0.2	2	1.308	0.000	D	17	10.4	902.267	903.894	905.202	905.204	0
1	22072003	274	High	1.5	Precise	1	12	18	11	2.3	10.2	0.6	11	12	18	0.6	2.3	10.2	2	0.665	0.000	R	18	10.2	905.707	908.184	908.850	908.852	0
1	22072003	275	High	1.5	Vague	2	18	14	24	10.2	30.9	1.4	24	18	14	1.4	10.2	30.9	1	0.569	0.001	D	18	10.2	909.354	911.081	911.650	911.652	0
1	22072003	276	High	1.5	Vague	2	12	16	24	2.3	24.1	1.4	24	12	16	1.4	2.3	24.1	2	0.912	0.000	R	16	24.1	912.154	914.026	914.938	914.940	0
1	22072003	277	High	1.5	Vague	2	12	17	27	2.3	10.4	0.8	12	17	27	2.3	10.4	0.8	2	1.095	0.000	D	17	10.4	915.442	916.067	917.162	917.164	0
1	22072003	278	High	1.5	Precise	1	13	14	11	3.7	30.9	0.6	14	13	11	30.9	3.7	0.6	1	0.936	0.000	D	13	3.7	917.667	918.689	919.626	919.628	0
1	22072003	279	High	1.5	Vague	2	12	13	19	2.3	3.7	0.0	13	19	12	3.7	0.0	2.3	2	0.892	0.001	L	13	3.7	920.131	922.957	923.850	923.852	0
1	22072003	280	High	1.5	Vague	2	13	17	24	3.7	10.4	1.4	24	17	13	1.4	10.4	3.7	2	0.869	0.000	D	17	10.4	924.355	926.596	927.465	927.468	0
1	22072003	281	High	1.5	Precise	1	17	14	11	10.4	30.9	0.6	14	17	11	30.9	10.4	0.6	1	0.981	0.000	D	17	10.4	927.971	929.220	930.201	930.204	0
1	22072003	282	High	1.5	Vague	2	16	14	27	24.1	30.9	0.8	27	14	16	0.8	30.9	24.1	1	0.634	0.001	R	16	24.1	930.706	933.640	934.274	934.276	0
1	22072003	283	High	1.5	Precise	1	18	17	6	10.2	10.4	0.0	6	18	17	0.0	10.2	10.4	2	0.558	0.000	R	17	10.4	934.779	936.059	936.617	936.620	0
1	22072003	284	High	1.5	Precise	1	13	16	3	3.7	24.1	0.0	13	3	16	3.7	0.0	24.1	1	0.692	0.000	L	13	3.7	937.122	937.710	938.402	938.404	0
1	22072003	285	High	1.5	Vague	2	12	14	21	2.3	30.9	0.0	21	12	14	0.0	2.3	30.9	NaN	NaN	NaN	NaN	NaN	NaN	938.907	940.407	NaN	941.893	1
1	22072003	286	High	1.5	Precise	1	12	14	2	2.3	30.9	0.2	2	14	12	0.2	30.9	2.3	NaN	NaN	NaN	NaN	NaN	NaN	943.896	944.768	NaN	946.255	1
1	22072003	287	High	1.5	Vague	2	12	16	19	2.3	24.1	0.0	12	16	19	2.3	24.1	0.0	2	0.868	0.000	D	16	24.1	948.257	949.054	949.922	949.925	0
1	22072003	288	High	1.5	Vague	2	17	14	24	10.4	30.9	1.4	24	14	17	1.4	30.9	10.4	1	0.577	0.000	R	17	10.4	950.427	952.201	952.777	952.780	0
1	22072003	289	High	1.5	Vague	2	13	18	27	3.7	10.2	0.8	18	27	13	10.2	0.8	3.7	2	0.742	0.000	L	18	10.2	953.282	955.908	956.650	956.652	0
1	22072003	290	High	1.5	Precise	1	12	17	3	2.3	10.4	0.0	3	17	12	0.0	10.4	2.3	2	0.736	0.000	D	17	10.4	957.154	957.706	958.442	958.444	0
1	22072003	291	High	1.5	Vague	2	18	17	28	10.2	10.4	0.0	28	17	18	0.0	10.4	10.2	2	0.616	0.001	D	17	10.4	958.946	961.298	961.914	961.917	0
1	22072003	292	High	1.5	Vague	2	12	13	27	2.3	3.7	0.8	13	12	27	3.7	2.3	0.8	2	0.839	0.000	L	13	3.7	962.419	965.106	965.945	965.948	0
1	22072003	293	High	1.5	Precise	1	13	18	3	3.7	10.2	0.0	13	3	18	3.7	0.0	10.2	2	0.800	0.000	R	18	10.2	966.450	967.817	968.617	968.620	0
1	22072003	294	High	1.5	Precise	1	13	17	15	3.7	10.4	1.3	17	15	13	10.4	1.3	3.7	2	0.685	0.001	L	17	10.4	969.123	971.444	972.130	972.132	0
1	22072003	295	High	1.5	Precise	1	13	16	7	3.7	24.1	0.2	13	7	16	3.7	0.2	24.1	2	0.998	0.000	R	16	24.1	972.634	974.452	975.450	975.452	0
1	22072003	296	High	1.5	Precise	1	12	13	11	2.3	3.7	0.6	11	12	13	0.6	2.3	3.7	2	1.185	0.000	R	13	3.7	975.954	977.328	978.513	978.516	0
1	22072003	297	High	1.5	Vague	2	18	17	27	10.2	10.4	0.8	17	27	18	10.4	0.8	10.2	2	0.593	0.000	L	17	10.4	979.019	980.953	981.546	981.548	0
1	22072003	298	High	1.5	Vague	2	12	13	24	2.3	3.7	1.4	24	12	13	1.4	2.3	3.7	2	0.886	0.000	R	13	3.7	982.050	983.980	984.866	984.868	0
1	22072003	299	High	1.5	Vague	2	17	14	28	10.4	30.9	0.0	17	28	14	10.4	0.0	30.9	1	0.711	0.000	L	17	10.4	985.371	988.002	988.713	988.716	0
1	22072003	300	High	1.5	Precise	1	13	14	7	3.7	30.9	0.2	13	14	7	3.7	30.9	0.2	1	0.854	0.000	L	13	3.7	989.219	990.084	990.937	990.940	0
1	22072003	301	High	1.5	Precise	1	17	16	6	10.4	24.1	0.0	17	16	6	10.4	24.1	0.0	1	0.741	0.000	L	17	10.4	1002.382	1003.220	1003.961	1003.964	0
1	22072003	302	High	1.5	Vague	2	18	16	27	10.2	24.1	0.8	27	18	16	0.8	10.2	24.1	1	0.789	0.000	D	18	10.2	1004.467	1007.028	1007.817	1007.820	0
1	22072003	303	High	1.5	Precise	1	18	14	7	10.2	30.9	0.2	7	18	14	0.2	10.2	30.9	1	0.600	0.000	D	18	10.2	1008.323	1010.562	1011.162	1011.164	0
1	22072003	304	High	1.5	Precise	1	12	17	7	2.3	10.4	0.2	12	7	17	2.3	0.2	10.4	2	0.693	0.000	R	17	10.4	1011.667	1013.612	1014.305	1014.308	0
1	22072003	305	High	1.5	Precise	1	13	17	2	3.7	10.4	0.2	13	2	17	3.7	0.2	10.4	2	0.569	0.000	R	17	10.4	1014.810	1016.553	1017.122	1017.124	0
1	22072003	306	High	1.5	Vague	2	12	16	25	2.3	24.1	0.9	25	12	16	0.9	2.3	24.1	2	0.814	0.000	R	16	24.1	1017.626	1018.532	1019.346	1019.348	0
1	22072003	307	High	1.5	Vague	2	17	16	19	10.4	24.1	0.0	16	19	17	24.1	0.0	10.4	1	0.492	0.000	R	17	10.4	1019.850	1021.365	1021.858	1021.861	0
1	22072003	308	High	1.5	Precise	1	16	14	6	24.1	30.9	0.0	14	16	6	30.9	24.1	0.0	1	0.745	0.000	D	16	24.1	1022.363	1025.049	1025.794	1025.796	0
1	22072003	309	High	1.5	Vague	2	16	14	28	24.1	30.9	0.0	16	28	14	24.1	0.0	30.9	1	0.685	0.001	L	16	24.1	1026.298	1026.893	1027.578	1027.580	0
1	22072003	310	High	1.5	Vague	2	13	16	25	3.7	24.1	0.9	13	16	25	3.7	24.1	0.9	2	0.863	0.000	D	16	24.1	1028.083	1030.923	1031.786	1031.788	0
1	22072003	311	High	1.5	Precise	1	13	18	6	3.7	10.2	0.0	18	6	13	10.2	0.0	3.7	1	0.819	0.000	R	13	3.7	1032.290	1033.575	1034.393	1034.396	0
1	22072003	312	High	1.5	Vague	2	12	17	25	2.3	10.4	0.9	25	12	17	0.9	2.3	10.4	2	0.521	0.000	R	17	10.4	1034.898	1037.241	1037.761	1037.764	0
1	22072003	313	High	1.5	Vague	2	12	16	27	2.3	24.1	0.8	16	12	27	24.1	2.3	0.8	2	0.791	0.001	L	16	24.1	1038.266	1040.419	1041.210	1041.212	0
1	22072003	314	High	1.5	Precise	1	18	17	7	10.2	10.4	0.2	17	7	18	10.4	0.2	10.2	1	0.515	0.000	R	18	10.2	1041.714	1043.894	1044.410	1044.412	0
1	22072003	315	High	1.5	Precise	1	12	16	6	2.3	24.1	0.0	6	12	16	0.0	2.3	24.1	2	0.493	0.001	R	16	24.1	1044.914	1046.236	1046.730	1046.732	0
1	22072003	316	High	1.5	Precise	1	13	14	3	3.7	30.9	0.0	3	13	14	0.0	3.7	30.9	1	1.172	0.000	D	13	3.7	1047.234	1049.374	1050.546	1050.548	0
1	22072003	317	High	1.5	Precise	1	12	14	11	2.3	30.9	0.6	12	11	14	2.3	0.6	30.9	NaN	NaN	NaN	NaN	NaN	NaN	1051.050	1052.412	NaN	1053.901	1
1	22072003	318	High	1.5	Precise	1	13	18	7	3.7	10.2	0.2	13	7	18	3.7	0.2	10.2	2	0.888	0.000	R	18	10.2	1055.903	1057.201	1058.089	1058.092	0
1	22072003	319	High	1.5	Precise	1	12	16	2	2.3	24.1	0.2	16	2	12	24.1	0.2	2.3	2	0.867	0.001	L	16	24.1	1058.595	1061.143	1062.009	1062.012	0
1	22072003	320	High	1.5	Precise	1	17	16	11	10.4	24.1	0.6	16	11	17	24.1	0.6	10.4	1	0.677	0.001	R	17	10.4	1062.515	1063.652	1064.330	1064.332	0
1	22072003	321	High	1.5	Precise	1	13	16	15	3.7	24.1	1.3	15	16	13	1.3	24.1	3.7	2	0.957	0.000	D	16	24.1	1064.835	1066.548	1067.505	1067.508	0
1	22072003	322	High	1.5	Precise	1	18	14	2	10.2	30.9	0.2	14	18	2	30.9	10.2	0.2	1	0.647	0.000	D	18	10.2	1068.011	1070.842	1071.489	1071.492	0
1	22072003	323	High	1.5	Vague	2	12	18	21	2.3	10.2	0.0	18	12	21	10.2	2.3	0.0	2	0.832	0.001	L	18	10.2	1071.994	1072.705	1073.538	1073.540	0
1	22072003	324	High	1.5	Precise	1	17	16	3	10.4	24.1	0.0	16	17	3	24.1	10.4	0.0	2	0.655	0.000	L	16	24.1	1074.043	1076.266	1076.921	1076.924	0
1	22072003	325	High	1.5	Vague	2	13	16	27	3.7	24.1	0.8	27	13	16	0.8	3.7	24.1	2	0.823	0.000	R	16	24.1	1077.426	1078.091	1078.914	1078.916	0
1	22072003	326	High	1.5	Precise	1	12	18	6	2.3	10.2	0.0	18	6	12	10.2	0.0	2.3	2	0.619	0.000	L	18	10.2	1079.418	1081.286	1081.905	1081.908	0
1	22072003	327	High	1.5	Vague	2	18	17	25	10.2	10.4	0.9	25	17	18	0.9	10.4	10.2	2	0.594	0.000	D	17	10.4	1082.410	1084.032	1084.625	1084.628	0
1	22072003	328	High	1.5	Vague	2	12	18	25	2.3	10.2	0.9	25	12	18	0.9	2.3	10.2	2	0.737	0.000	R	18	10.2	1085.130	1086.336	1087.074	1087.076	0
1	22072003	329	High	1.5	Vague	2	13	16	19	3.7	24.1	0.0	19	16	13	0.0	24.1	3.7	2	1.114	0.000	D	16	24.1	1087.579	1090.456	1091.569	1091.572	0
1	22072003	330	High	1.5	Vague	2	12	17	21	2.3	10.4	0.0	21	12	17	0.0	2.3	10.4	2	0.507	0.001	R	17	10.4	1092.074	1093.463	1093.970	1093.972	0
1	22072003	331	High	1.5	Precise	1	18	14	11	10.2	30.9	0.6	11	14	18	0.6	30.9	10.2	1	0.608	0.000	R	18	10.2	1094.474	1095.225	1095.833	1095.837	0
1	22072003	332	High	1.5	Vague	2	18	17	24	10.2	10.4	1.4	24	18	17	1.4	10.2	10.4	2	0.476	0.001	R	17	10.4	1096.339	1097.190	1097.666	1097.668	0
1	22072003	333	High	1.5	Precise	1	16	14	11	24.1	30.9	0.6	14	11	16	30.9	0.6	24.1	1	0.983	0.000	R	16	24.1	1098.170	1099.146	1100.130	1100.132	0
1	22072003	334	High	1.5	Precise	1	13	16	11	3.7	24.1	0.6	13	16	11	3.7	24.1	0.6	2	1.190	0.001	D	16	24.1	1100.635	1102.036	1103.226	1103.228	0
1	22072003	335	High	1.5	Vague	2	12	18	19	2.3	10.2	0.0	12	19	18	2.3	0.0	10.2	2	0.618	0.000	R	18	10.2	1103.731	1104.584	1105.201	1105.204	0
1	22072003	336	High	1.5	Vague	2	12	16	21	2.3	24.1	0.0	21	12	16	0.0	2.3	24.1	2	0.624	0.000	R	16	24.1	1105.706	1108.153	1108.777	1108.780	0
1	22072003	337	High	1.5	Precise	1	13	17	6	3.7	10.4	0.0	13	6	17	3.7	0.0	10.4	2	0.677	0.000	R	17	10.4	1109.282	1112.117	1112.793	1112.796	0
1	22072003	338	High	1.5	Vague	2	13	17	19	3.7	10.4	0.0	17	13	19	10.4	3.7	0.0	2	0.565	0.001	L	17	10.4	1113.299	1115.693	1116.258	1116.260	0
1	22072003	339	High	1.5	Precise	1	12	13	15	2.3	3.7	1.3	15	12	13	1.3	2.3	3.7	2	0.694	0.000	R	13	3.7	1116.762	1118.539	1119.234	1119.236	0
1	22072003	340	High	1.5	Vague	2	12	14	19	2.3	30.9	0.0	19	14	12	0.0	30.9	2.3	NaN	NaN	NaN	NaN	NaN	NaN	1119.739	1122.432	NaN	1123.918	1
1	22072003	341	High	1.5	Precise	1	12	14	6	2.3	30.9	0.0	6	12	14	0.0	2.3	30.9	NaN	NaN	NaN	NaN	NaN	NaN	1125.921	1126.674	NaN	1128.160	1
1	22072003	342	High	1.5	Precise	1	16	14	7	24.1	30.9	0.2	14	7	16	30.9	0.2	24.1	1	0.595	0.000	R	16	24.1	1130.163	1131.935	1132.529	1132.532	0
1	22072003	343	High	1.5	Vague	2	12	18	24	2.3	10.2	1.4	12	18	24	2.3	10.2	1.4	2	0.523	0.000	D	18	10.2	1133.034	1134.766	1135.289	1135.292	0
1	22072003	344	High	1.5	Vague	2	16	14	24	24.1	30.9	1.4	14	16	24	30.9	24.1	1.4	1	0.718	0.000	D	16	24.1	1135.795	1138.012	1138.730	1138.732	0
1	22072003	345	High	1.5	Precise	1	16	14	3	24.1	30.9	0.0	14	3	16	30.9	0.0	24.1	1	0.777	0.000	R	16	24.1	1139.235	1141.600	1142.377	1142.380	0
1	22072003	346	High	1.5	Precise	1	12	14	7	2.3	30.9	0.2	7	12	14	0.2	2.3	30.9	NaN	NaN	NaN	NaN	NaN	NaN	1142.882	1145.267	NaN	1146.754	1
1	22072003	347	High	1.5	Vague	2	13	18	25	3.7	10.2	0.9	18	25	13	10.2	0.9	3.7	2	0.738	0.000	L	18	10.2	1148.756	1151.743	1152.481	1152.484	0
1	22072003	348	High	1.5	Vague	2	17	16	27	10.4	24.1	0.8	16	17	27	24.1	10.4	0.8	1	0.775	0.000	D	17	10.4	1152.987	1154.466	1155.241	1155.244	0
1	22072003	349	High	1.5	Precise	1	13	14	2	3.7	30.9	0.2	2	14	13	0.2	30.9	3.7	1	0.807	0.001	R	13	3.7	1155.746	1158.395	1159.202	1159.204	0
1	22072003	350	High	1.5	Precise	1	12	16	11	2.3	24.1	0.6	11	16	12	0.6	24.1	2.3	2	0.613	0.000	D	16	24.1	1159.706	1160.940	1161.554	1161.556	0
1	22072003	351	High	1.5	Precise	1	18	16	15	10.2	24.1	1.3	18	15	16	10.2	1.3	24.1	3	0.186	0.000	D	15	1.3	1162.058	1164.991	1165.178	1165.180	0
1	22072003	352	High	1.5	Vague	2	12	13	28	2.3	3.7	0.0	13	28	12	3.7	0.0	2.3	NaN	NaN	NaN	NaN	NaN	NaN	1165.682	1167.131	NaN	1168.617	1
1	22072003	353	High	1.5	Vague	2	17	14	27	10.4	30.9	0.8	17	27	14	10.4	0.8	30.9	1	0.655	0.000	L	17	10.4	1170.620	1171.715	1172.369	1172.372	0
1	22072003	354	High	1.5	Vague	2	13	14	24	3.7	30.9	1.4	14	13	24	30.9	3.7	1.4	1	1.223	0.000	D	13	3.7	1172.874	1175.226	1176.449	1176.453	0
1	22072003	355	High	1.5	Vague	2	12	13	21	2.3	3.7	0.0	12	21	13	2.3	0.0	3.7	2	1.083	0.000	R	13	3.7	1176.955	1177.479	1178.561	1178.564	0
1	22072003	356	High	1.5	Vague	2	12	14	25	2.3	30.9	0.9	14	12	25	30.9	2.3	0.9	NaN	NaN	NaN	NaN	NaN	NaN	1179.066	1180.163	NaN	1181.649	1
1	22072003	357	High	1.5	Precise	1	18	16	7	10.2	24.1	0.2	16	7	18	24.1	0.2	10.2	2	0.792	0.000	L	16	24.1	1183.652	1185.217	1186.009	1186.012	0
1	22072003	358	High	1.5	Vague	2	12	14	27	2.3	30.9	0.8	27	14	12	0.8	30.9	2.3	NaN	NaN	NaN	NaN	NaN	NaN	1186.514	1188.387	NaN	1189.873	1
1	22072003	359	High	1.5	Vague	2	18	17	21	10.2	10.4	0.0	17	18	21	10.4	10.2	0.0	1	0.729	0.001	D	18	10.2	1191.876	1194.633	1195.361	1195.364	0
1	22072003	360	High	1.5	Vague	2	13	17	21	3.7	10.4	0.0	17	13	21	10.4	3.7	0.0	2	0.491	0.001	L	17	10.4	1195.866	1197.103	1197.593	1197.596	0
