Group	subID	trial	TimePressure	TimeConstraint	Vagueness	Vaguenesscode	ID1	ID2	ID3	V1	V2	V3	ID_left	ID_middle	ID_right	Bid_left	Bid_middle	Bid_right	chosenItem	RT	RTvariance	chosenPosition	chosenID	chosenValue	fixation_time	option_time	choice_time	feedback_time	timeout
2	22102706	1	High	1.5	Precise	1	30	32	24	1.7	11.7	1.7	30	24	32	1.7	1.7	11.7	NaN	NaN	NaN	NaN	NaN	NaN	6.013	7.631	NaN	9.121	1
2	22102706	2	High	1.5	Precise	1	30	26	21	1.7	10.0	0.0	30	26	21	1.7	10.0	0.0	2	1.376	0.000	D	26	10.0	11.126	12.070	13.446	13.451	0
2	22102706	3	High	1.5	Precise	1	22	35	36	10.0	21.7	0.0	36	35	22	0.0	21.7	10.0	1	1.029	0.001	R	22	10.0	13.958	15.729	16.758	16.761	0
2	22102706	4	High	1.5	Vague	2	30	35	3	1.7	21.7	0.0	3	30	35	0.0	1.7	21.7	NaN	NaN	NaN	NaN	NaN	NaN	17.267	18.839	NaN	20.325	1
2	22102706	5	High	1.5	Precise	1	22	33	36	10.0	25.0	0.0	36	33	22	0.0	25.0	10.0	1	0.867	0.001	R	22	10.0	22.329	22.827	23.694	23.699	0
2	22102706	6	High	1.5	Precise	1	22	35	24	10.0	21.7	1.7	24	35	22	1.7	21.7	10.0	1	0.600	0.000	R	22	10.0	24.205	25.286	25.886	25.889	0
2	22102706	7	High	1.5	Vague	2	30	32	5	1.7	11.7	0.0	32	5	30	11.7	0.0	1.7	2	0.943	0.000	L	32	11.7	26.392	27.359	28.302	28.305	0
2	22102706	8	High	1.5	Precise	1	32	35	36	11.7	21.7	0.0	32	35	36	11.7	21.7	0.0	1	1.014	0.000	L	32	11.7	28.809	31.135	32.150	32.152	0
2	22102706	9	High	1.5	Vague	2	30	22	7	1.7	10.0	0.0	22	30	7	10.0	1.7	0.0	2	0.914	0.001	L	22	10.0	32.655	34.468	35.382	35.384	0
2	22102706	10	High	1.5	Precise	1	30	32	36	1.7	11.7	0.0	36	30	32	0.0	1.7	11.7	2	0.844	0.000	R	32	11.7	35.887	37.050	37.894	37.896	0
2	22102706	11	High	1.5	Vague	2	26	32	12	10.0	11.7	0.0	26	12	32	10.0	0.0	11.7	1	0.938	0.001	L	26	10.0	38.399	40.844	41.782	41.785	0
2	22102706	12	High	1.5	Precise	1	32	33	21	11.7	25.0	0.0	32	21	33	11.7	0.0	25.0	1	0.819	0.001	L	32	11.7	42.288	44.171	44.990	44.993	0
2	22102706	13	High	1.5	Precise	1	32	33	24	11.7	25.0	1.7	24	33	32	1.7	25.0	11.7	3	1.170	0.000	L	24	1.7	45.496	47.652	48.822	48.824	0
2	22102706	14	High	1.5	Vague	2	30	33	3	1.7	25.0	0.0	3	33	30	0.0	25.0	1.7	1	0.978	0.000	R	30	1.7	49.328	50.228	51.206	51.208	0
2	22102706	15	High	1.5	Precise	1	35	33	25	21.7	25.0	0.8	35	33	25	21.7	25.0	0.8	1	0.804	0.000	L	35	21.7	51.711	53.993	54.798	54.800	0
2	22102706	16	High	1.5	Precise	1	26	33	21	10.0	25.0	0.0	26	21	33	10.0	0.0	25.0	3	0.802	0.000	D	21	0.0	55.303	55.860	56.662	56.664	0
2	22102706	17	High	1.5	Vague	2	22	33	3	10.0	25.0	0.0	3	22	33	0.0	10.0	25.0	1	0.906	0.001	D	22	10.0	57.167	58.420	59.326	59.328	0
2	22102706	18	High	1.5	Precise	1	26	33	27	10.0	25.0	0.0	33	26	27	25.0	10.0	0.0	3	0.972	0.000	R	27	0.0	59.831	60.610	61.582	61.584	0
2	22102706	19	High	1.5	Vague	2	32	33	7	11.7	25.0	0.0	7	32	33	0.0	11.7	25.0	1	0.991	0.001	D	32	11.7	62.088	63.351	64.342	64.344	0
2	22102706	20	High	1.5	Precise	1	30	35	27	1.7	21.7	0.0	35	27	30	21.7	0.0	1.7	2	1.043	0.001	L	35	21.7	64.848	65.907	66.950	66.952	0
2	22102706	21	High	1.5	Precise	1	30	32	31	1.7	11.7	0.0	30	31	32	1.7	0.0	11.7	2	0.994	0.001	R	32	11.7	67.455	69.292	70.286	70.288	0
2	22102706	22	High	1.5	Vague	2	32	33	1	11.7	25.0	0.0	33	32	1	25.0	11.7	0.0	1	0.964	0.000	D	32	11.7	70.791	72.466	73.430	73.432	0
2	22102706	23	High	1.5	Precise	1	30	33	27	1.7	25.0	0.0	30	33	27	1.7	25.0	0.0	2	1.098	0.000	D	33	25.0	73.935	76.532	77.630	77.632	0
2	22102706	24	High	1.5	Precise	1	30	33	31	1.7	25.0	0.0	30	33	31	1.7	25.0	0.0	3	1.238	0.000	R	31	0.0	78.136	79.528	80.766	80.768	0
2	22102706	25	High	1.5	Vague	2	26	32	5	10.0	11.7	0.0	26	32	5	10.0	11.7	0.0	2	0.903	0.001	D	32	11.7	81.272	82.775	83.678	83.680	0
2	22102706	26	High	1.5	Precise	1	22	26	21	10.0	10.0	0.0	22	26	21	10.0	10.0	0.0	1	0.970	0.001	L	22	10.0	84.184	86.660	87.630	87.633	0
2	22102706	27	High	1.5	Precise	1	32	35	27	11.7	21.7	0.0	27	32	35	0.0	11.7	21.7	2	1.336	0.000	R	35	21.7	88.136	91.021	92.358	92.361	0
2	22102706	28	High	1.5	Vague	2	30	33	7	1.7	25.0	0.0	33	30	7	25.0	1.7	0.0	1	0.921	0.001	D	30	1.7	92.864	95.813	96.734	96.736	0
2	22102706	29	High	1.5	Vague	2	26	35	14	10.0	21.7	1.7	26	14	35	10.0	1.7	21.7	2	0.742	0.000	R	35	21.7	97.239	98.144	98.885	98.888	0
2	22102706	30	High	1.5	Vague	2	22	35	12	10.0	21.7	0.0	35	22	12	21.7	10.0	0.0	2	0.966	0.001	L	35	21.7	99.391	100.272	101.238	101.240	0
2	22102706	31	High	1.5	Precise	1	30	35	31	1.7	21.7	0.0	30	35	31	1.7	21.7	0.0	2	0.790	0.001	D	35	21.7	101.744	103.593	104.382	104.385	0
2	22102706	32	High	1.5	Vague	2	22	33	7	10.0	25.0	0.0	7	33	22	0.0	25.0	10.0	1	0.796	0.001	R	22	10.0	104.888	105.978	106.774	106.776	0
2	22102706	33	High	1.5	Precise	1	32	35	21	11.7	21.7	0.0	21	32	35	0.0	11.7	21.7	2	0.708	0.000	R	35	21.7	107.280	109.081	109.789	109.792	0
2	22102706	34	High	1.5	Precise	1	22	26	25	10.0	10.0	0.8	22	25	26	10.0	0.8	10.0	2	0.839	0.001	R	26	10.0	110.295	111.199	112.038	112.040	0
2	22102706	35	High	1.5	Vague	2	26	35	3	10.0	21.7	0.0	35	3	26	21.7	0.0	10.0	1	0.912	0.000	R	26	10.0	112.543	113.862	114.774	114.776	0
2	22102706	36	High	1.5	Vague	2	35	33	5	21.7	25.0	0.0	33	35	5	25.0	21.7	0.0	1	0.713	0.000	D	35	21.7	115.279	118.268	118.982	118.984	0
2	22102706	37	High	1.5	Vague	2	22	26	12	10.0	10.0	0.0	12	26	22	0.0	10.0	10.0	1	0.781	0.000	R	22	10.0	119.487	121.513	122.294	122.296	0
2	22102706	38	High	1.5	Vague	2	22	33	5	10.0	25.0	0.0	22	33	5	10.0	25.0	0.0	1	1.041	0.000	L	22	10.0	122.800	123.405	124.446	124.448	0
2	22102706	39	High	1.5	Precise	1	35	33	27	21.7	25.0	0.0	33	35	27	25.0	21.7	0.0	1	0.987	0.001	D	35	21.7	124.951	127.275	128.262	128.264	0
2	22102706	40	High	1.5	Precise	1	30	22	24	1.7	10.0	1.7	24	30	22	1.7	1.7	10.0	2	0.707	0.000	R	22	10.0	128.767	131.034	131.741	131.744	0
2	22102706	41	High	1.5	Precise	1	30	32	27	1.7	11.7	0.0	32	30	27	11.7	1.7	0.0	2	0.881	0.001	L	32	11.7	132.247	132.844	133.726	133.728	0
2	22102706	42	High	1.5	Precise	1	30	26	36	1.7	10.0	0.0	26	36	30	10.0	0.0	1.7	2	0.859	0.000	L	26	10.0	134.231	135.426	136.285	136.288	0
2	22102706	43	High	1.5	Precise	1	26	35	21	10.0	21.7	0.0	26	21	35	10.0	0.0	21.7	2	0.788	0.000	R	35	21.7	136.791	139.754	140.541	140.544	0
2	22102706	44	High	1.5	Precise	1	32	33	36	11.7	25.0	0.0	32	33	36	11.7	25.0	0.0	1	0.940	0.001	L	32	11.7	141.048	143.289	144.230	144.232	0
2	22102706	45	High	1.5	Precise	1	26	33	24	10.0	25.0	1.7	26	24	33	10.0	1.7	25.0	1	0.713	0.000	L	26	10.0	144.735	146.133	146.846	146.848	0
2	22102706	46	High	1.5	Vague	2	30	32	14	1.7	11.7	1.7	30	32	14	1.7	11.7	1.7	2	1.291	0.000	D	32	11.7	147.351	149.699	150.990	150.992	0
2	22102706	47	High	1.5	Vague	2	30	26	5	1.7	10.0	0.0	26	5	30	10.0	0.0	1.7	3	0.752	0.000	D	5	0.0	151.495	152.110	152.862	152.864	0
2	22102706	48	High	1.5	Vague	2	30	32	1	1.7	11.7	0.0	1	30	32	0.0	1.7	11.7	2	1.307	0.001	R	32	11.7	153.366	155.467	156.774	156.776	0
2	22102706	49	High	1.5	Vague	2	26	33	5	10.0	25.0	0.0	33	26	5	25.0	10.0	0.0	3	0.803	0.000	R	5	0.0	157.279	159.706	160.509	160.512	0
2	22102706	50	High	1.5	Vague	2	35	33	14	21.7	25.0	1.7	33	14	35	25.0	1.7	21.7	1	0.704	0.001	R	35	21.7	161.015	162.014	162.718	162.720	0
2	22102706	51	High	1.5	Vague	2	30	32	12	1.7	11.7	0.0	12	32	30	0.0	11.7	1.7	3	1.381	0.000	L	12	0.0	163.223	164.689	166.070	166.072	0
2	22102706	52	High	1.5	Precise	1	30	26	25	1.7	10.0	0.8	30	25	26	1.7	0.8	10.0	2	0.889	0.000	R	26	10.0	166.575	168.301	169.189	169.192	0
2	22102706	53	High	1.5	Precise	1	22	32	24	10.0	11.7	1.7	24	32	22	1.7	11.7	10.0	1	0.903	0.001	R	22	10.0	169.695	170.351	171.254	171.256	0
2	22102706	54	High	1.5	Precise	1	26	33	31	10.0	25.0	0.0	26	31	33	10.0	0.0	25.0	1	0.759	0.001	L	26	10.0	171.759	173.791	174.550	174.552	0
2	22102706	55	High	1.5	Vague	2	32	35	1	11.7	21.7	0.0	1	32	35	0.0	11.7	21.7	2	0.583	0.000	R	35	21.7	175.055	176.558	177.141	177.144	0
2	22102706	56	High	1.5	Precise	1	30	22	27	1.7	10.0	0.0	27	22	30	0.0	10.0	1.7	2	0.701	0.001	D	22	10.0	177.647	180.344	181.046	181.048	0
2	22102706	57	High	1.5	Precise	1	22	35	25	10.0	21.7	0.8	35	25	22	21.7	0.8	10.0	2	0.861	0.000	L	35	21.7	181.551	182.784	183.645	183.648	0
2	22102706	58	High	1.5	Vague	2	30	33	14	1.7	25.0	1.7	30	33	14	1.7	25.0	1.7	3	0.796	0.000	R	14	1.7	184.151	186.802	187.597	187.600	0
2	22102706	59	High	1.5	Vague	2	26	33	3	10.0	25.0	0.0	3	26	33	0.0	10.0	25.0	1	0.930	0.000	D	26	10.0	188.103	190.315	191.245	191.248	0
2	22102706	60	High	1.5	Precise	1	22	33	21	10.0	25.0	0.0	33	21	22	25.0	0.0	10.0	1	0.639	0.000	R	22	10.0	191.750	193.006	193.645	193.648	0
2	22102706	61	High	1.5	Precise	1	26	32	21	10.0	11.7	0.0	26	21	32	10.0	0.0	11.7	1	0.749	0.000	L	26	10.0	209.456	211.176	211.925	211.928	0
2	22102706	62	High	1.5	Precise	1	22	33	24	10.0	25.0	1.7	24	22	33	1.7	10.0	25.0	3	0.626	0.001	L	24	1.7	212.432	215.188	215.814	215.816	0
2	22102706	63	High	1.5	Precise	1	26	32	25	10.0	11.7	0.8	25	32	26	0.8	11.7	10.0	1	0.624	0.000	R	26	10.0	216.320	219.253	219.877	219.880	0
2	22102706	64	High	1.5	Vague	2	30	26	3	1.7	10.0	0.0	3	26	30	0.0	10.0	1.7	2	1.097	0.000	D	26	10.0	220.383	221.748	222.846	222.848	0
2	22102706	65	High	1.5	Precise	1	30	22	31	1.7	10.0	0.0	31	30	22	0.0	1.7	10.0	2	0.684	0.001	R	22	10.0	223.351	224.033	224.718	224.720	0
2	22102706	66	High	1.5	Precise	1	22	33	31	10.0	25.0	0.0	31	33	22	0.0	25.0	10.0	1	0.669	0.001	R	22	10.0	225.222	228.001	228.670	228.672	0
2	22102706	67	High	1.5	Vague	2	30	33	1	1.7	25.0	0.0	30	1	33	1.7	0.0	25.0	3	0.834	0.001	D	1	0.0	229.175	232.027	232.862	232.864	0
2	22102706	68	High	1.5	Vague	2	30	35	14	1.7	21.7	1.7	14	35	30	1.7	21.7	1.7	1	0.961	0.001	R	30	1.7	233.367	234.500	235.462	235.464	0
2	22102706	69	High	1.5	Vague	2	30	35	5	1.7	21.7	0.0	30	35	5	1.7	21.7	0.0	2	0.567	0.000	D	35	21.7	235.966	238.670	239.237	239.240	0
2	22102706	70	High	1.5	Precise	1	22	26	31	10.0	10.0	0.0	22	26	31	10.0	10.0	0.0	1	1.176	0.000	L	22	10.0	239.743	240.406	241.582	241.584	0
2	22102706	71	High	1.5	Vague	2	30	26	12	1.7	10.0	0.0	12	26	30	0.0	10.0	1.7	3	1.301	0.001	L	12	0.0	242.087	242.849	244.150	244.152	0
2	22102706	72	High	1.5	Precise	1	22	32	31	10.0	11.7	0.0	31	32	22	0.0	11.7	10.0	2	0.612	0.000	D	32	11.7	244.654	246.754	247.366	247.368	0
2	22102706	73	High	1.5	Vague	2	32	33	14	11.7	25.0	1.7	33	14	32	25.0	1.7	11.7	1	1.088	0.000	R	32	11.7	247.871	249.517	250.605	250.608	0
2	22102706	74	High	1.5	Precise	1	22	32	36	10.0	11.7	0.0	22	32	36	10.0	11.7	0.0	1	1.061	0.001	L	22	10.0	251.110	253.416	254.478	254.480	0
2	22102706	75	High	1.5	Vague	2	22	35	5	10.0	21.7	0.0	22	5	35	10.0	0.0	21.7	2	0.722	0.001	R	35	21.7	254.983	257.212	257.934	257.936	0
2	22102706	76	High	1.5	Precise	1	32	33	25	11.7	25.0	0.8	32	25	33	11.7	0.8	25.0	1	0.918	0.001	L	32	11.7	258.438	261.335	262.254	262.257	0
2	22102706	77	High	1.5	Precise	1	22	35	31	10.0	21.7	0.0	22	31	35	10.0	0.0	21.7	2	0.566	0.000	R	35	21.7	262.760	264.911	265.478	265.480	0
2	22102706	78	High	1.5	Vague	2	30	35	1	1.7	21.7	0.0	35	30	1	21.7	1.7	0.0	2	0.676	0.000	L	35	21.7	265.982	268.481	269.157	269.160	0
2	22102706	79	High	1.5	Vague	2	22	33	12	10.0	25.0	0.0	12	33	22	0.0	25.0	10.0	1	0.851	0.001	R	22	10.0	269.663	270.715	271.566	271.568	0
2	22102706	80	High	1.5	Vague	2	32	33	5	11.7	25.0	0.0	5	32	33	0.0	11.7	25.0	1	1.003	0.001	D	32	11.7	272.071	273.603	274.606	274.608	0
2	22102706	81	High	1.5	Precise	1	26	33	25	10.0	25.0	0.8	26	33	25	10.0	25.0	0.8	1	0.744	0.000	L	26	10.0	275.110	275.742	276.485	276.488	0
2	22102706	82	High	1.5	Precise	1	30	22	36	1.7	10.0	0.0	22	30	36	10.0	1.7	0.0	2	0.935	0.001	L	22	10.0	276.990	279.207	280.142	280.144	0
2	22102706	83	High	1.5	Precise	1	32	35	31	11.7	21.7	0.0	31	35	32	0.0	21.7	11.7	2	0.953	0.001	D	35	21.7	280.647	283.141	284.094	284.096	0
2	22102706	84	High	1.5	Vague	2	30	22	5	1.7	10.0	0.0	30	5	22	1.7	0.0	10.0	2	0.773	0.001	R	22	10.0	284.599	287.080	287.853	287.856	0
2	22102706	85	High	1.5	Vague	2	22	35	1	10.0	21.7	0.0	35	1	22	21.7	0.0	10.0	2	0.834	0.001	L	35	21.7	288.359	289.651	290.486	290.488	0
2	22102706	86	High	1.5	Precise	1	22	35	21	10.0	21.7	0.0	21	22	35	0.0	10.0	21.7	2	0.702	0.000	R	35	21.7	290.991	291.639	292.342	292.344	0
2	22102706	87	High	1.5	Vague	2	22	32	7	10.0	11.7	0.0	32	22	7	11.7	10.0	0.0	1	0.565	0.000	D	22	10.0	292.848	295.320	295.886	295.888	0
2	22102706	88	High	1.5	Precise	1	30	35	21	1.7	21.7	0.0	35	21	30	21.7	0.0	1.7	2	0.701	0.000	L	35	21.7	296.392	298.896	299.597	299.600	0
2	22102706	89	High	1.5	Precise	1	22	26	36	10.0	10.0	0.0	36	22	26	0.0	10.0	10.0	2	0.864	0.001	R	26	10.0	300.102	302.486	303.350	303.352	0
2	22102706	90	High	1.5	Vague	2	26	32	3	10.0	11.7	0.0	32	3	26	11.7	0.0	10.0	1	0.955	0.000	R	26	10.0	303.855	305.986	306.941	306.944	0
2	22102706	91	High	1.5	Precise	1	32	33	27	11.7	25.0	0.0	27	32	33	0.0	11.7	25.0	1	0.859	0.001	D	32	11.7	307.446	310.355	311.214	311.216	0
2	22102706	92	High	1.5	Precise	1	22	26	27	10.0	10.0	0.0	26	27	22	10.0	0.0	10.0	1	0.667	0.000	R	22	10.0	311.719	313.178	313.845	313.848	0
2	22102706	93	High	1.5	Vague	2	22	33	14	10.0	25.0	1.7	14	22	33	1.7	10.0	25.0	1	0.780	0.001	D	22	10.0	314.350	315.305	316.086	316.088	0
2	22102706	94	High	1.5	Vague	2	26	33	14	10.0	25.0	1.7	14	26	33	1.7	10.0	25.0	1	1.058	0.001	D	26	10.0	316.590	317.860	318.918	318.920	0
2	22102706	95	High	1.5	Vague	2	22	32	3	10.0	11.7	0.0	32	22	3	11.7	10.0	0.0	2	0.794	0.000	L	32	11.7	319.422	320.035	320.829	320.832	0
2	22102706	96	High	1.5	Precise	1	26	35	31	10.0	21.7	0.0	35	26	31	21.7	10.0	0.0	1	0.911	0.000	D	26	10.0	321.335	323.502	324.413	324.416	0
2	22102706	97	High	1.5	Vague	2	30	26	14	1.7	10.0	1.7	14	26	30	1.7	10.0	1.7	2	0.960	0.000	D	26	10.0	324.918	326.485	327.445	327.448	0
2	22102706	98	High	1.5	Precise	1	26	32	36	10.0	11.7	0.0	26	32	36	10.0	11.7	0.0	1	0.850	0.000	L	26	10.0	327.951	330.499	331.349	331.352	0
2	22102706	99	High	1.5	Precise	1	35	33	31	21.7	25.0	0.0	35	33	31	21.7	25.0	0.0	1	0.760	0.001	L	35	21.7	331.855	334.413	335.174	335.176	0
2	22102706	100	High	1.5	Precise	1	26	32	24	10.0	11.7	1.7	24	26	32	1.7	10.0	11.7	1	0.938	0.001	D	26	10.0	335.679	336.620	337.558	337.560	0
2	22102706	101	High	1.5	Vague	2	35	33	1	21.7	25.0	0.0	33	35	1	25.0	21.7	0.0	1	0.913	0.000	D	35	21.7	338.062	340.589	341.502	341.504	0
2	22102706	102	High	1.5	Precise	1	30	33	25	1.7	25.0	0.8	30	33	25	1.7	25.0	0.8	2	1.241	0.000	D	33	25.0	342.007	344.076	345.317	345.320	0
2	22102706	103	High	1.5	Precise	1	26	35	25	10.0	21.7	0.8	25	26	35	0.8	10.0	21.7	2	0.592	0.000	R	35	21.7	345.823	347.678	348.269	348.272	0
2	22102706	104	High	1.5	Precise	1	22	33	25	10.0	25.0	0.8	33	22	25	25.0	10.0	0.8	1	0.687	0.000	D	22	10.0	348.775	350.519	351.206	351.208	0
2	22102706	105	High	1.5	Precise	1	30	22	25	1.7	10.0	0.8	22	25	30	10.0	0.8	1.7	2	0.957	0.001	L	22	10.0	351.710	354.464	355.421	355.424	0
2	22102706	106	High	1.5	Precise	1	26	35	24	10.0	21.7	1.7	26	24	35	10.0	1.7	21.7	2	0.656	0.000	R	35	21.7	355.926	356.757	357.413	357.416	0
2	22102706	107	High	1.5	Vague	2	22	26	1	10.0	10.0	0.0	26	22	1	10.0	10.0	0.0	1	0.593	0.000	D	22	10.0	357.919	360.564	361.157	361.160	0
2	22102706	108	High	1.5	Vague	2	32	35	5	11.7	21.7	0.0	32	35	5	11.7	21.7	0.0	2	0.565	0.000	D	35	21.7	361.663	364.184	364.749	364.752	0
2	22102706	109	High	1.5	Vague	2	22	26	7	10.0	10.0	0.0	22	26	7	10.0	10.0	0.0	1	1.125	0.000	L	22	10.0	365.255	366.752	367.877	367.880	0
2	22102706	110	High	1.5	Vague	2	35	33	7	21.7	25.0	0.0	33	35	7	25.0	21.7	0.0	1	0.553	0.001	D	35	21.7	368.382	369.572	370.125	370.128	0
2	22102706	111	High	1.5	Precise	1	32	35	24	11.7	21.7	1.7	32	24	35	11.7	1.7	21.7	2	0.558	0.000	R	35	21.7	370.630	371.599	372.157	372.159	0
2	22102706	112	High	1.5	Precise	1	22	35	27	10.0	21.7	0.0	22	27	35	10.0	0.0	21.7	2	0.584	0.001	R	35	21.7	372.662	374.485	375.069	375.072	0
2	22102706	113	High	1.5	Vague	2	30	35	7	1.7	21.7	0.0	30	35	7	1.7	21.7	0.0	2	0.556	0.001	D	35	21.7	375.575	378.258	378.813	378.816	0
2	22102706	114	High	1.5	Vague	2	35	33	12	21.7	25.0	0.0	33	12	35	25.0	0.0	21.7	1	0.684	0.000	R	35	21.7	379.319	380.249	380.933	380.936	0
2	22102706	115	High	1.5	Vague	2	26	32	7	10.0	11.7	0.0	32	26	7	11.7	10.0	0.0	1	0.578	0.001	D	26	10.0	381.438	382.708	383.286	383.288	0
2	22102706	116	High	1.5	Vague	2	26	35	12	10.0	21.7	0.0	26	35	12	10.0	21.7	0.0	2	0.556	0.000	D	35	21.7	383.790	385.986	386.541	386.544	0
2	22102706	117	High	1.5	Vague	2	22	32	14	10.0	11.7	1.7	32	14	22	11.7	1.7	10.0	1	0.492	0.001	R	22	10.0	387.047	389.665	390.157	390.160	0
2	22102706	118	High	1.5	Vague	2	26	35	5	10.0	21.7	0.0	5	26	35	0.0	10.0	21.7	2	0.585	0.001	R	35	21.7	390.663	391.948	392.533	392.536	0
2	22102706	119	High	1.5	Precise	1	30	33	21	1.7	25.0	0.0	30	21	33	1.7	0.0	25.0	3	0.666	0.001	D	21	0.0	393.038	394.540	395.206	395.208	0
2	22102706	120	High	1.5	Precise	1	26	35	27	10.0	21.7	0.0	35	26	27	21.7	10.0	0.0	2	0.631	0.001	L	35	21.7	395.711	397.110	397.741	397.744	0
2	22102706	121	High	1.5	Vague	2	22	35	14	10.0	21.7	1.7	14	22	35	1.7	10.0	21.7	2	0.713	0.001	R	35	21.7	425.301	426.221	426.933	426.936	0
2	22102706	122	High	1.5	Precise	1	26	32	31	10.0	11.7	0.0	31	32	26	0.0	11.7	10.0	1	0.860	0.000	R	26	10.0	427.439	428.585	429.445	429.447	0
2	22102706	123	High	1.5	Precise	1	30	33	24	1.7	25.0	1.7	30	24	33	1.7	1.7	25.0	2	1.480	0.000	R	33	25.0	429.950	432.909	434.389	434.392	0
2	22102706	124	High	1.5	Vague	2	30	22	1	1.7	10.0	0.0	22	1	30	10.0	0.0	1.7	2	1.194	0.001	L	22	10.0	434.896	436.467	437.661	437.671	0
2	22102706	125	High	1.5	Vague	2	32	35	3	11.7	21.7	0.0	3	35	32	0.0	21.7	11.7	2	0.576	0.001	D	35	21.7	438.174	440.725	441.301	441.304	0
2	22102706	126	High	1.5	Precise	1	26	33	36	10.0	25.0	0.0	33	26	36	25.0	10.0	0.0	1	0.952	0.000	D	26	10.0	441.806	443.014	443.965	443.968	0
2	22102706	127	High	1.5	Vague	2	30	33	5	1.7	25.0	0.0	33	5	30	25.0	0.0	1.7	1	0.778	0.000	R	30	1.7	444.470	445.523	446.301	446.304	0
2	22102706	128	High	1.5	Precise	1	30	35	36	1.7	21.7	0.0	36	35	30	0.0	21.7	1.7	2	0.569	0.000	D	35	21.7	446.806	449.372	449.941	449.944	0
2	22102706	129	High	1.5	Vague	2	30	33	12	1.7	25.0	0.0	30	33	12	1.7	25.0	0.0	3	0.951	0.001	R	12	0.0	450.446	451.414	452.365	452.368	0
2	22102706	130	High	1.5	Vague	2	26	35	1	10.0	21.7	0.0	26	1	35	10.0	0.0	21.7	2	0.675	0.001	R	35	21.7	452.871	454.611	455.285	455.288	0
2	22102706	131	High	1.5	Precise	1	22	32	27	10.0	11.7	0.0	22	32	27	10.0	11.7	0.0	1	0.990	0.001	L	22	10.0	455.791	457.847	458.837	458.840	0
2	22102706	132	High	1.5	Precise	1	35	33	24	21.7	25.0	1.7	33	35	24	25.0	21.7	1.7	1	0.656	0.001	D	35	21.7	459.343	462.197	462.853	462.856	0
2	22102706	133	High	1.5	Vague	2	30	22	3	1.7	10.0	0.0	22	30	3	10.0	1.7	0.0	NaN	NaN	NaN	NaN	NaN	NaN	463.359	463.856	NaN	465.346	1
2	22102706	134	High	1.5	Vague	2	30	22	14	1.7	10.0	1.7	22	30	14	10.0	1.7	1.7	2	0.802	0.001	L	22	10.0	467.351	470.332	471.133	471.136	0
2	22102706	135	High	1.5	Vague	2	22	35	7	10.0	21.7	0.0	22	35	7	10.0	21.7	0.0	2	0.552	0.000	D	35	21.7	471.639	474.125	474.677	474.680	0
2	22102706	136	High	1.5	Vague	2	26	33	1	10.0	25.0	0.0	1	33	26	0.0	25.0	10.0	1	0.782	0.000	R	26	10.0	475.183	477.351	478.133	478.136	0
2	22102706	137	High	1.5	Vague	2	30	35	12	1.7	21.7	0.0	30	35	12	1.7	21.7	0.0	2	0.562	0.000	D	35	21.7	478.638	480.707	481.269	481.272	0
2	22102706	138	High	1.5	Precise	1	30	32	25	1.7	11.7	0.8	25	30	32	0.8	1.7	11.7	2	0.899	0.001	R	32	11.7	481.774	482.723	483.621	483.624	0
2	22102706	139	High	1.5	Vague	2	26	32	1	10.0	11.7	0.0	1	32	26	0.0	11.7	10.0	1	0.853	0.000	R	26	10.0	484.126	485.352	486.205	486.208	0
2	22102706	140	High	1.5	Vague	2	22	26	14	10.0	10.0	1.7	26	22	14	10.0	10.0	1.7	1	0.725	0.001	D	22	10.0	486.710	488.856	489.581	489.584	0
2	22102706	141	High	1.5	Vague	2	26	33	7	10.0	25.0	0.0	7	26	33	0.0	10.0	25.0	1	0.541	0.000	D	26	10.0	490.086	492.448	492.989	492.992	0
2	22102706	142	High	1.5	Precise	1	30	22	21	1.7	10.0	0.0	30	22	21	1.7	10.0	0.0	2	1.125	0.001	D	22	10.0	493.494	494.040	495.165	495.168	0
2	22102706	143	High	1.5	Vague	2	22	32	12	10.0	11.7	0.0	12	22	32	0.0	10.0	11.7	1	0.546	0.001	D	22	10.0	495.671	497.107	497.653	497.656	0
2	22102706	144	High	1.5	Vague	2	22	33	1	10.0	25.0	0.0	1	33	22	0.0	25.0	10.0	1	0.489	0.000	R	22	10.0	498.158	500.508	500.997	500.999	0
2	22102706	145	High	1.5	Precise	1	22	33	27	10.0	25.0	0.0	27	22	33	0.0	10.0	25.0	1	0.533	0.000	D	22	10.0	501.502	504.256	504.789	504.791	0
2	22102706	146	High	1.5	Precise	1	35	33	36	21.7	25.0	0.0	33	35	36	25.0	21.7	0.0	1	0.612	0.000	D	35	21.7	505.295	506.498	507.109	507.112	0
2	22102706	147	High	1.5	Precise	1	22	32	21	10.0	11.7	0.0	32	22	21	11.7	10.0	0.0	1	0.827	0.001	D	22	10.0	507.614	509.042	509.869	509.872	0
2	22102706	148	High	1.5	Precise	1	30	26	31	1.7	10.0	0.0	31	26	30	0.0	10.0	1.7	2	0.964	0.000	D	26	10.0	510.374	513.330	514.293	514.295	0
2	22102706	149	High	1.5	Vague	2	30	26	7	1.7	10.0	0.0	7	30	26	0.0	1.7	10.0	2	0.848	0.001	R	26	10.0	514.798	515.845	516.693	516.696	0
2	22102706	150	High	1.5	Vague	2	22	26	5	10.0	10.0	0.0	26	22	5	10.0	10.0	0.0	1	0.863	0.001	D	22	10.0	517.199	519.087	519.949	519.952	0
2	22102706	151	High	1.5	Vague	2	30	26	1	1.7	10.0	0.0	26	30	1	10.0	1.7	0.0	2	0.990	0.001	L	26	10.0	520.455	522.319	523.309	523.312	0
2	22102706	152	High	1.5	Precise	1	30	26	24	1.7	10.0	1.7	24	30	26	1.7	1.7	10.0	2	0.580	0.000	R	26	10.0	523.815	526.337	526.917	526.919	0
2	22102706	153	High	1.5	Vague	2	26	33	12	10.0	25.0	0.0	26	33	12	10.0	25.0	0.0	1	0.870	0.000	L	26	10.0	527.422	530.335	531.205	531.207	0
2	22102706	154	High	1.5	Vague	2	35	33	3	21.7	25.0	0.0	33	35	3	25.0	21.7	0.0	1	0.772	0.001	D	35	21.7	531.710	533.553	534.325	534.328	0
2	22102706	155	High	1.5	Precise	1	32	35	25	11.7	21.7	0.8	35	32	25	21.7	11.7	0.8	1	0.832	0.001	D	32	11.7	534.831	537.605	538.437	538.440	0
2	22102706	156	High	1.5	Vague	2	26	35	7	10.0	21.7	0.0	7	35	26	0.0	21.7	10.0	2	0.576	0.001	D	35	21.7	538.942	541.765	542.341	542.344	0
2	22102706	157	High	1.5	Precise	1	30	33	36	1.7	25.0	0.0	36	30	33	0.0	1.7	25.0	3	1.094	0.000	L	36	0.0	542.847	544.390	545.485	545.487	0
2	22102706	158	High	1.5	Vague	2	32	35	7	11.7	21.7	0.0	32	35	7	11.7	21.7	0.0	2	0.563	0.000	D	35	21.7	545.990	548.210	548.773	548.775	0
2	22102706	159	High	1.5	Precise	1	22	26	24	10.0	10.0	1.7	22	26	24	10.0	10.0	1.7	2	0.589	0.001	D	26	10.0	549.278	551.992	552.581	552.584	0
2	22102706	160	High	1.5	Precise	1	30	26	27	1.7	10.0	0.0	30	27	26	1.7	0.0	10.0	2	0.948	0.000	R	26	10.0	553.087	555.617	556.565	556.567	0
2	22102706	161	High	1.5	Vague	2	30	22	12	1.7	10.0	0.0	30	12	22	1.7	0.0	10.0	2	0.647	0.001	R	22	10.0	557.071	559.526	560.173	560.176	0
2	22102706	162	High	1.5	Vague	2	22	26	3	10.0	10.0	0.0	26	3	22	10.0	0.0	10.0	1	0.662	0.001	R	22	10.0	560.678	563.047	563.709	563.712	0
2	22102706	163	High	1.5	Precise	1	26	35	36	10.0	21.7	0.0	36	35	26	0.0	21.7	10.0	2	0.782	0.000	D	35	21.7	564.214	566.959	567.741	567.743	0
2	22102706	164	High	1.5	Vague	2	26	32	14	10.0	11.7	1.7	14	26	32	1.7	10.0	11.7	3	0.911	0.000	L	14	1.7	568.246	568.982	569.893	569.895	0
2	22102706	165	High	1.5	Vague	2	32	33	3	11.7	25.0	0.0	33	3	32	25.0	0.0	11.7	1	1.098	0.000	R	32	11.7	570.398	571.819	572.917	572.919	0
2	22102706	166	High	1.5	Precise	1	30	35	25	1.7	21.7	0.8	30	25	35	1.7	0.8	21.7	2	0.608	0.000	R	35	21.7	573.423	574.845	575.453	575.456	0
2	22102706	167	High	1.5	Vague	2	30	32	7	1.7	11.7	0.0	30	32	7	1.7	11.7	0.0	2	0.778	0.001	D	32	11.7	575.959	576.539	577.317	577.319	0
2	22102706	168	High	1.5	Precise	1	35	33	21	21.7	25.0	0.0	21	35	33	0.0	21.7	25.0	1	0.589	0.001	D	35	21.7	577.823	580.768	581.357	581.360	0
2	22102706	169	High	1.5	Vague	2	22	35	3	10.0	21.7	0.0	35	3	22	21.7	0.0	10.0	1	0.605	0.001	R	22	10.0	581.863	582.952	583.557	583.560	0
2	22102706	170	High	1.5	Precise	1	26	32	27	10.0	11.7	0.0	26	27	32	10.0	0.0	11.7	3	0.767	0.000	D	27	0.0	584.062	585.174	585.941	585.943	0
2	22102706	171	High	1.5	Vague	2	32	35	14	11.7	21.7	1.7	32	35	14	11.7	21.7	1.7	2	0.584	0.000	D	35	21.7	586.447	588.757	589.341	589.343	0
2	22102706	172	High	1.5	Precise	1	32	33	31	11.7	25.0	0.0	31	33	32	0.0	25.0	11.7	1	0.812	0.000	R	32	11.7	589.846	590.928	591.741	591.743	0
2	22102706	173	High	1.5	Precise	1	30	35	24	1.7	21.7	1.7	24	35	30	1.7	21.7	1.7	2	0.757	0.001	D	35	21.7	592.247	593.336	594.093	594.095	0
2	22102706	174	High	1.5	Vague	2	32	33	12	11.7	25.0	0.0	33	12	32	25.0	0.0	11.7	1	1.082	0.001	R	32	11.7	594.599	595.891	596.973	596.975	0
2	22102706	175	High	1.5	Precise	1	30	32	21	1.7	11.7	0.0	30	21	32	1.7	0.0	11.7	2	0.802	0.001	R	32	11.7	597.479	598.267	599.069	599.072	0
2	22102706	176	High	1.5	Vague	2	32	35	12	11.7	21.7	0.0	35	32	12	21.7	11.7	0.0	2	0.621	0.001	L	35	21.7	599.575	602.007	602.629	602.631	0
2	22102706	177	High	1.5	Vague	2	22	32	5	10.0	11.7	0.0	22	5	32	10.0	0.0	11.7	2	1.095	0.000	R	32	11.7	603.134	605.670	606.765	606.767	0
2	22102706	178	High	1.5	Vague	2	30	32	3	1.7	11.7	0.0	3	30	32	0.0	1.7	11.7	2	0.920	0.001	R	32	11.7	607.270	609.012	609.933	609.935	0
2	22102706	179	High	1.5	Precise	1	22	32	25	10.0	11.7	0.8	32	25	22	11.7	0.8	10.0	1	0.600	0.000	R	22	10.0	610.437	611.765	612.365	612.367	0
2	22102706	180	High	1.5	Vague	2	22	32	1	10.0	11.7	0.0	1	22	32	0.0	10.0	11.7	1	0.579	0.001	D	22	10.0	612.870	614.338	614.917	614.920	0
2	22102706	181	Low	10.0	Precise	1	30	35	34	1.7	21.7	0.0	34	35	30	0.0	21.7	1.7	2	0.792	0.000	D	35	21.7	639.527	641.029	641.821	641.823	0
2	22102706	182	Low	10.0	Precise	1	30	22	29	1.7	10.0	0.8	22	29	30	10.0	0.8	1.7	2	1.041	0.000	L	22	10.0	642.326	644.923	645.965	645.967	0
2	22102706	183	Low	10.0	Precise	1	32	35	23	11.7	21.7	0.0	32	23	35	11.7	0.0	21.7	2	0.690	0.000	R	35	21.7	646.470	649.387	650.077	650.079	0
2	22102706	184	Low	10.0	Precise	1	30	35	23	1.7	21.7	0.0	35	23	30	21.7	0.0	1.7	2	0.810	0.000	L	35	21.7	650.583	652.491	653.301	653.303	0
2	22102706	185	Low	10.0	Vague	2	26	32	13	10.0	11.7	2.5	26	13	32	10.0	2.5	11.7	2	1.577	0.001	R	32	11.7	653.806	656.645	658.221	658.224	0
2	22102706	186	Low	10.0	Precise	1	30	33	23	1.7	25.0	0.0	30	23	33	1.7	0.0	25.0	1	1.349	0.000	L	30	1.7	658.727	661.224	662.573	662.575	0
2	22102706	187	Low	10.0	Vague	2	22	33	2	10.0	25.0	0.0	2	22	33	0.0	10.0	25.0	1	1.206	0.000	D	22	10.0	663.078	664.623	665.829	665.831	0
2	22102706	188	Low	10.0	Precise	1	22	33	29	10.0	25.0	0.8	33	22	29	25.0	10.0	0.8	1	1.083	0.000	D	22	10.0	666.334	667.769	668.853	668.855	0
2	22102706	189	Low	10.0	Vague	2	35	33	2	21.7	25.0	0.0	33	2	35	25.0	0.0	21.7	1	0.778	0.000	R	35	21.7	669.358	671.554	672.333	672.335	0
2	22102706	190	Low	10.0	Precise	1	32	33	28	11.7	25.0	0.0	33	32	28	25.0	11.7	0.0	1	1.094	0.000	D	32	11.7	672.838	675.359	676.453	676.455	0
2	22102706	191	Low	10.0	Vague	2	26	35	11	10.0	21.7	0.8	26	11	35	10.0	0.8	21.7	2	0.647	0.000	R	35	21.7	676.959	678.413	679.061	679.063	0
2	22102706	192	Low	10.0	Precise	1	22	26	20	10.0	10.0	0.0	26	22	20	10.0	10.0	0.0	1	1.028	0.000	D	22	10.0	679.566	682.000	683.029	683.031	0
2	22102706	193	Low	10.0	Vague	2	22	32	11	10.0	11.7	0.8	11	32	22	0.8	11.7	10.0	1	0.606	0.001	R	22	10.0	683.534	685.847	686.453	686.455	0
2	22102706	194	Low	10.0	Precise	1	30	22	20	1.7	10.0	0.0	22	20	30	10.0	0.0	1.7	2	1.125	0.001	L	22	10.0	686.958	689.480	690.605	690.607	0
2	22102706	195	Low	10.0	Vague	2	26	32	6	10.0	11.7	0.0	6	32	26	0.0	11.7	10.0	1	1.330	0.000	R	26	10.0	691.110	691.683	693.013	693.015	0
2	22102706	196	Low	10.0	Vague	2	32	35	2	11.7	21.7	0.0	35	32	2	21.7	11.7	0.0	1	0.754	0.000	D	32	11.7	693.518	695.379	696.133	696.135	0
2	22102706	197	Low	10.0	Vague	2	35	33	4	21.7	25.0	0.0	33	35	4	25.0	21.7	0.0	1	0.764	0.001	D	35	21.7	696.638	697.896	698.661	698.663	0
2	22102706	198	Low	10.0	Vague	2	30	33	11	1.7	25.0	0.8	11	33	30	0.8	25.0	1.7	3	1.766	0.000	L	11	0.8	699.166	700.551	702.316	702.319	0
2	22102706	199	Low	10.0	Precise	1	22	35	34	10.0	21.7	0.0	35	22	34	21.7	10.0	0.0	2	0.748	0.000	L	35	21.7	702.822	703.513	704.261	704.263	0
2	22102706	200	Low	10.0	Precise	1	30	35	29	1.7	21.7	0.8	30	29	35	1.7	0.8	21.7	2	0.792	0.000	R	35	21.7	704.766	705.716	706.509	706.511	0
2	22102706	201	Low	10.0	Vague	2	22	33	4	10.0	25.0	0.0	4	33	22	0.0	25.0	10.0	1	0.837	0.001	R	22	10.0	707.014	708.752	709.589	709.591	0
2	22102706	202	Low	10.0	Vague	2	32	35	4	11.7	21.7	0.0	4	35	32	0.0	21.7	11.7	2	0.751	0.001	D	35	21.7	710.095	711.214	711.965	711.968	0
2	22102706	203	Low	10.0	Precise	1	35	33	34	21.7	25.0	0.0	35	33	34	21.7	25.0	0.0	1	0.709	0.000	L	35	21.7	712.471	713.752	714.461	714.463	0
2	22102706	204	Low	10.0	Precise	1	22	33	34	10.0	25.0	0.0	22	33	34	10.0	25.0	0.0	1	0.928	0.001	L	22	10.0	714.966	716.580	717.509	717.511	0
2	22102706	205	Low	10.0	Precise	1	26	32	23	10.0	11.7	0.0	23	26	32	0.0	10.0	11.7	1	1.002	0.000	D	26	10.0	718.014	720.123	721.125	721.127	0
2	22102706	206	Low	10.0	Precise	1	22	33	20	10.0	25.0	0.0	33	20	22	25.0	0.0	10.0	1	0.655	0.000	R	22	10.0	721.630	722.462	723.116	723.119	0
2	22102706	207	Low	10.0	Precise	1	32	33	29	11.7	25.0	0.8	32	29	33	11.7	0.8	25.0	1	1.331	0.000	L	32	11.7	723.622	726.354	727.684	727.687	0
2	22102706	208	Low	10.0	Vague	2	22	32	13	10.0	11.7	2.5	22	32	13	10.0	11.7	2.5	1	1.141	0.000	L	22	10.0	728.189	729.312	730.453	730.455	0
2	22102706	209	Low	10.0	Precise	1	30	32	28	1.7	11.7	0.0	32	30	28	11.7	1.7	0.0	2	1.190	0.001	L	32	11.7	730.958	733.223	734.413	734.415	0
2	22102706	210	Low	10.0	Vague	2	30	35	6	1.7	21.7	0.0	30	35	6	1.7	21.7	0.0	2	0.733	0.001	D	35	21.7	734.918	736.200	736.933	736.935	0
2	22102706	211	Low	10.0	Vague	2	22	35	13	10.0	21.7	2.5	22	13	35	10.0	2.5	21.7	2	0.729	0.000	R	35	21.7	737.438	738.300	739.029	739.031	0
2	22102706	212	Low	10.0	Vague	2	30	32	4	1.7	11.7	0.0	4	32	30	0.0	11.7	1.7	2	1.340	0.001	D	32	11.7	739.534	742.153	743.493	743.495	0
2	22102706	213	Low	10.0	Vague	2	30	35	2	1.7	21.7	0.0	2	30	35	0.0	1.7	21.7	2	0.680	0.000	R	35	21.7	743.999	745.517	746.197	746.199	0
2	22102706	214	Low	10.0	Precise	1	30	22	23	1.7	10.0	0.0	22	23	30	10.0	0.0	1.7	2	1.186	0.001	L	22	10.0	746.702	747.635	748.821	748.823	0
2	22102706	215	Low	10.0	Precise	1	30	33	19	1.7	25.0	0.8	19	30	33	0.8	1.7	25.0	1	1.368	0.001	D	30	1.7	749.326	749.845	751.213	751.215	0
2	22102706	216	Low	10.0	Precise	1	30	22	19	1.7	10.0	0.8	30	22	19	1.7	10.0	0.8	2	1.427	0.000	D	22	10.0	751.718	754.026	755.453	755.455	0
2	22102706	217	Low	10.0	Precise	1	22	32	28	10.0	11.7	0.0	22	32	28	10.0	11.7	0.0	1	0.733	0.001	L	22	10.0	755.958	758.624	759.357	759.359	0
2	22102706	218	Low	10.0	Precise	1	26	35	34	10.0	21.7	0.0	35	34	26	21.7	0.0	10.0	2	0.983	0.000	L	35	21.7	759.862	762.406	763.389	763.391	0
2	22102706	219	Low	10.0	Precise	1	26	33	23	10.0	25.0	0.0	26	23	33	10.0	0.0	25.0	1	1.166	0.001	L	26	10.0	763.894	766.735	767.901	767.903	0
2	22102706	220	Low	10.0	Precise	1	22	32	19	10.0	11.7	0.8	19	22	32	0.8	10.0	11.7	2	1.119	0.001	R	32	11.7	768.406	769.654	770.773	770.775	0
2	22102706	221	Low	10.0	Vague	2	22	35	8	10.0	21.7	0.0	22	8	35	10.0	0.0	21.7	2	0.664	0.001	R	35	21.7	771.278	772.716	773.381	773.384	0
2	22102706	222	Low	10.0	Precise	1	26	32	29	10.0	11.7	0.8	32	29	26	11.7	0.8	10.0	2	1.324	0.001	L	32	11.7	773.887	775.433	776.757	776.759	0
2	22102706	223	Low	10.0	Vague	2	30	22	2	1.7	10.0	0.0	30	2	22	1.7	0.0	10.0	2	1.070	0.001	R	22	10.0	777.262	778.911	779.981	779.983	0
2	22102706	224	Low	10.0	Vague	2	30	32	11	1.7	11.7	0.8	30	32	11	1.7	11.7	0.8	2	0.986	0.000	D	32	11.7	780.486	781.531	782.517	782.519	0
2	22102706	225	Low	10.0	Precise	1	32	33	20	11.7	25.0	0.0	20	33	32	0.0	25.0	11.7	1	0.988	0.001	R	32	11.7	783.022	783.921	784.909	784.911	0
2	22102706	226	Low	10.0	Vague	2	30	26	2	1.7	10.0	0.0	2	30	26	0.0	1.7	10.0	2	0.711	0.000	R	26	10.0	785.414	786.165	786.876	786.879	0
2	22102706	227	Low	10.0	Precise	1	32	35	34	11.7	21.7	0.0	32	34	35	11.7	0.0	21.7	2	0.637	0.000	R	35	21.7	787.383	789.296	789.933	789.935	0
2	22102706	228	Low	10.0	Vague	2	22	26	13	10.0	10.0	2.5	13	26	22	2.5	10.0	10.0	1	0.659	0.000	R	22	10.0	790.438	791.826	792.484	792.487	0
2	22102706	229	Low	10.0	Precise	1	30	33	34	1.7	25.0	0.0	33	34	30	25.0	0.0	1.7	1	1.335	0.001	R	30	1.7	792.990	795.518	796.853	796.855	0
2	22102706	230	Low	10.0	Precise	1	32	33	19	11.7	25.0	0.8	19	32	33	0.8	11.7	25.0	1	1.152	0.001	D	32	11.7	797.358	800.316	801.469	801.471	0
2	22102706	231	Low	10.0	Vague	2	32	35	13	11.7	21.7	2.5	35	32	13	21.7	11.7	2.5	2	0.679	0.000	L	35	21.7	801.973	803.502	804.181	804.183	0
2	22102706	232	Low	10.0	Vague	2	30	35	8	1.7	21.7	0.0	30	8	35	1.7	0.0	21.7	2	0.623	0.000	R	35	21.7	804.685	806.950	807.573	807.575	0
2	22102706	233	Low	10.0	Vague	2	32	33	13	11.7	25.0	2.5	13	32	33	2.5	11.7	25.0	1	1.150	0.000	D	32	11.7	808.078	808.838	809.988	809.991	0
2	22102706	234	Low	10.0	Vague	2	30	32	8	1.7	11.7	0.0	32	8	30	11.7	0.0	1.7	2	0.949	0.000	L	32	11.7	810.494	813.280	814.229	814.231	0
2	22102706	235	Low	10.0	Vague	2	22	35	2	10.0	21.7	0.0	35	22	2	21.7	10.0	0.0	2	0.674	0.001	L	35	21.7	814.735	815.842	816.517	816.519	0
2	22102706	236	Low	10.0	Vague	2	22	32	8	10.0	11.7	0.0	22	8	32	10.0	0.0	11.7	1	0.703	0.000	L	22	10.0	817.022	818.366	819.068	819.071	0
2	22102706	237	Low	10.0	Precise	1	30	32	23	1.7	11.7	0.0	32	23	30	11.7	0.0	1.7	2	1.084	0.001	L	32	11.7	819.573	821.361	822.445	822.447	0
2	22102706	238	Low	10.0	Precise	1	26	32	20	10.0	11.7	0.0	20	32	26	0.0	11.7	10.0	1	0.727	0.000	R	26	10.0	822.950	825.461	826.188	826.191	0
2	22102706	239	Low	10.0	Vague	2	30	22	11	1.7	10.0	0.8	30	22	11	1.7	10.0	0.8	2	0.711	0.001	D	22	10.0	826.693	827.582	828.293	828.295	0
2	22102706	240	Low	10.0	Precise	1	30	26	19	1.7	10.0	0.8	19	26	30	0.8	10.0	1.7	2	1.098	0.001	D	26	10.0	828.797	831.211	832.309	832.311	0
2	22102706	241	Low	10.0	Precise	1	32	33	23	11.7	25.0	0.0	33	32	23	25.0	11.7	0.0	1	0.901	0.001	D	32	11.7	840.566	841.815	842.717	842.719	0
2	22102706	242	Low	10.0	Precise	1	30	33	29	1.7	25.0	0.8	30	33	29	1.7	25.0	0.8	1	1.077	0.001	L	30	1.7	843.222	844.704	845.781	845.783	0
2	22102706	243	Low	10.0	Precise	1	26	33	19	10.0	25.0	0.8	19	26	33	0.8	10.0	25.0	1	0.982	0.000	D	26	10.0	846.286	849.150	850.132	850.135	0
2	22102706	244	Low	10.0	Vague	2	22	26	4	10.0	10.0	0.0	22	4	26	10.0	0.0	10.0	1	0.995	0.001	L	22	10.0	850.638	852.730	853.725	853.727	0
2	22102706	245	Low	10.0	Precise	1	22	35	28	10.0	21.7	0.0	22	35	28	10.0	21.7	0.0	2	0.744	0.000	D	35	21.7	854.230	855.141	855.884	855.887	0
2	22102706	246	Low	10.0	Vague	2	22	26	11	10.0	10.0	0.8	11	22	26	0.8	10.0	10.0	1	0.981	0.001	D	22	10.0	856.390	858.880	859.861	859.863	0
2	22102706	247	Low	10.0	Vague	2	26	35	6	10.0	21.7	0.0	35	6	26	21.7	0.0	10.0	2	0.687	0.000	L	35	21.7	860.366	862.269	862.957	862.959	0
2	22102706	248	Low	10.0	Precise	1	22	32	20	10.0	11.7	0.0	32	22	20	11.7	10.0	0.0	2	0.991	0.000	L	32	11.7	863.462	864.174	865.165	865.167	0
2	22102706	249	Low	10.0	Vague	2	22	33	13	10.0	25.0	2.5	22	13	33	10.0	2.5	25.0	1	1.030	0.000	L	22	10.0	865.669	867.183	868.212	868.215	0
2	22102706	250	Low	10.0	Vague	2	26	35	13	10.0	21.7	2.5	13	35	26	2.5	21.7	10.0	2	0.823	0.000	D	35	21.7	868.718	870.294	871.117	871.119	0
2	22102706	251	Low	10.0	Precise	1	35	33	29	21.7	25.0	0.8	33	29	35	25.0	0.8	21.7	1	0.700	0.001	R	35	21.7	871.622	874.193	874.893	874.895	0
2	22102706	252	Low	10.0	Vague	2	26	32	4	10.0	11.7	0.0	4	32	26	0.0	11.7	10.0	1	1.336	0.001	R	26	10.0	875.398	878.365	879.701	879.703	0
2	22102706	253	Low	10.0	Vague	2	26	33	2	10.0	25.0	0.0	2	26	33	0.0	10.0	25.0	1	1.320	0.000	D	26	10.0	880.206	881.557	882.877	882.879	0
2	22102706	254	Low	10.0	Precise	1	26	35	29	10.0	21.7	0.8	26	29	35	10.0	0.8	21.7	2	0.724	0.000	R	35	21.7	883.381	886.336	887.061	887.063	0
2	22102706	255	Low	10.0	Precise	1	26	35	19	10.0	21.7	0.8	19	26	35	0.8	10.0	21.7	2	0.626	0.001	R	35	21.7	887.566	889.211	889.837	889.839	0
2	22102706	256	Low	10.0	Vague	2	22	35	11	10.0	21.7	0.8	22	11	35	10.0	0.8	21.7	2	0.605	0.000	R	35	21.7	890.342	891.415	892.020	892.023	0
2	22102706	257	Low	10.0	Vague	2	26	35	4	10.0	21.7	0.0	35	4	26	21.7	0.0	10.0	2	0.661	0.001	L	35	21.7	892.525	895.384	896.045	896.047	0
2	22102706	258	Low	10.0	Precise	1	32	35	28	11.7	21.7	0.0	35	28	32	21.7	0.0	11.7	2	0.535	0.001	L	35	21.7	896.551	897.878	898.413	898.415	0
2	22102706	259	Low	10.0	Precise	1	35	33	20	21.7	25.0	0.0	33	20	35	25.0	0.0	21.7	1	0.578	0.000	R	35	21.7	898.918	899.699	900.276	900.279	0
2	22102706	260	Low	10.0	Vague	2	30	32	13	1.7	11.7	2.5	32	13	30	11.7	2.5	1.7	2	0.925	0.000	L	32	11.7	900.781	901.280	902.204	902.207	0
2	22102706	261	Low	10.0	Vague	2	30	26	13	1.7	10.0	2.5	26	30	13	10.0	1.7	2.5	2	1.480	0.000	L	26	10.0	902.709	905.541	907.021	907.023	0
2	22102706	262	Low	10.0	Vague	2	32	35	6	11.7	21.7	0.0	35	6	32	21.7	0.0	11.7	2	0.569	0.000	L	35	21.7	907.525	909.204	909.773	909.775	0
2	22102706	263	Low	10.0	Precise	1	30	26	23	1.7	10.0	0.0	26	23	30	10.0	0.0	1.7	2	1.551	0.000	L	26	10.0	910.278	912.149	913.700	913.703	0
2	22102706	264	Low	10.0	Vague	2	22	33	6	10.0	25.0	0.0	6	33	22	0.0	25.0	10.0	1	1.020	0.000	R	22	10.0	914.206	916.080	917.100	917.103	0
2	22102706	265	Low	10.0	Precise	1	30	22	34	1.7	10.0	0.0	34	22	30	0.0	10.0	1.7	2	1.260	0.000	D	22	10.0	917.606	919.001	920.261	920.263	0
2	22102706	266	Low	10.0	Precise	1	22	33	23	10.0	25.0	0.0	22	23	33	10.0	0.0	25.0	1	0.646	0.000	L	22	10.0	920.766	923.335	923.981	923.983	0
2	22102706	267	Low	10.0	Precise	1	30	22	28	1.7	10.0	0.0	28	30	22	0.0	1.7	10.0	2	0.675	0.001	R	22	10.0	924.485	926.473	927.149	927.151	0
2	22102706	268	Low	10.0	Precise	1	26	32	28	10.0	11.7	0.0	26	28	32	10.0	0.0	11.7	2	0.828	0.000	R	32	11.7	927.653	930.528	931.356	931.359	0
2	22102706	269	Low	10.0	Precise	1	26	33	29	10.0	25.0	0.8	26	29	33	10.0	0.8	25.0	1	0.948	0.000	L	26	10.0	931.862	932.945	933.892	933.895	0
2	22102706	270	Low	10.0	Vague	2	22	26	6	10.0	10.0	0.0	22	6	26	10.0	0.0	10.0	1	0.792	0.000	L	22	10.0	934.397	936.325	937.116	937.119	0
2	22102706	271	Low	10.0	Precise	1	26	35	23	10.0	21.7	0.0	26	35	23	10.0	21.7	0.0	1	1.087	0.000	L	26	10.0	937.622	939.286	940.372	940.375	0
2	22102706	272	Low	10.0	Precise	1	26	32	19	10.0	11.7	0.8	19	32	26	0.8	11.7	10.0	1	0.985	0.000	R	26	10.0	940.877	943.340	944.324	944.327	0
2	22102706	273	Low	10.0	Vague	2	22	26	8	10.0	10.0	0.0	22	26	8	10.0	10.0	0.0	1	0.983	0.000	L	22	10.0	944.830	947.326	948.308	948.311	0
2	22102706	274	Low	10.0	Precise	1	26	35	20	10.0	21.7	0.0	35	20	26	21.7	0.0	10.0	2	0.809	0.000	L	35	21.7	948.813	950.219	951.028	951.031	0
2	22102706	275	Low	10.0	Precise	1	35	33	23	21.7	25.0	0.0	23	35	33	0.0	21.7	25.0	1	0.887	0.000	D	35	21.7	951.533	952.861	953.748	953.751	0
2	22102706	276	Low	10.0	Precise	1	32	35	29	11.7	21.7	0.8	32	29	35	11.7	0.8	21.7	2	0.627	0.001	R	35	21.7	954.254	956.729	957.356	957.359	0
2	22102706	277	Low	10.0	Precise	1	30	26	28	1.7	10.0	0.0	30	28	26	1.7	0.0	10.0	2	0.658	0.000	R	26	10.0	957.862	959.691	960.348	960.351	0
2	22102706	278	Low	10.0	Precise	1	22	35	20	10.0	21.7	0.0	22	20	35	10.0	0.0	21.7	2	0.561	0.000	R	35	21.7	960.853	962.611	963.172	963.175	0
2	22102706	279	Low	10.0	Vague	2	22	35	4	10.0	21.7	0.0	22	4	35	10.0	0.0	21.7	2	0.503	0.000	R	35	21.7	963.678	966.550	967.052	967.055	0
2	22102706	280	Low	10.0	Precise	1	30	26	20	1.7	10.0	0.0	30	26	20	1.7	10.0	0.0	2	1.056	0.000	D	26	10.0	967.558	968.829	969.884	969.887	0
2	22102706	281	Low	10.0	Vague	2	30	22	13	1.7	10.0	2.5	13	22	30	2.5	10.0	1.7	2	1.233	0.000	D	22	10.0	970.390	972.179	973.412	973.415	0
2	22102706	282	Low	10.0	Vague	2	32	33	11	11.7	25.0	0.8	32	33	11	11.7	25.0	0.8	1	1.005	0.000	L	32	11.7	973.917	974.871	975.876	975.879	0
2	22102706	283	Low	10.0	Precise	1	30	35	19	1.7	21.7	0.8	30	35	19	1.7	21.7	0.8	2	1.086	0.000	D	35	21.7	976.381	977.079	978.164	978.167	0
2	22102706	284	Low	10.0	Vague	2	32	33	2	11.7	25.0	0.0	2	33	32	0.0	25.0	11.7	3	0.937	0.000	L	2	0.0	978.671	979.243	980.180	980.183	0
2	22102706	285	Low	10.0	Precise	1	26	35	28	10.0	21.7	0.0	26	28	35	10.0	0.0	21.7	2	0.632	0.001	R	35	21.7	980.686	982.300	982.932	982.936	0
2	22102706	286	Low	10.0	Vague	2	35	33	8	21.7	25.0	0.0	35	33	8	21.7	25.0	0.0	1	0.798	0.000	L	35	21.7	983.439	984.854	985.652	985.655	0
2	22102706	287	Low	10.0	Vague	2	30	22	8	1.7	10.0	0.0	30	8	22	1.7	0.0	10.0	2	0.683	0.000	R	22	10.0	986.158	987.761	988.444	988.447	0
2	22102706	288	Low	10.0	Vague	2	30	33	6	1.7	25.0	0.0	6	33	30	0.0	25.0	1.7	3	1.848	0.001	L	6	0.0	988.949	991.500	993.348	993.351	0
2	22102706	289	Low	10.0	Precise	1	26	32	34	10.0	11.7	0.0	34	26	32	0.0	10.0	11.7	2	0.721	0.001	R	32	11.7	993.854	996.756	997.476	997.479	0
2	22102706	290	Low	10.0	Vague	2	22	32	4	10.0	11.7	0.0	4	32	22	0.0	11.7	10.0	1	0.745	0.000	R	22	10.0	997.981	1000.331	1001.076	1001.079	0
2	22102706	291	Low	10.0	Vague	2	32	35	11	11.7	21.7	0.8	32	11	35	11.7	0.8	21.7	2	0.629	0.001	R	35	21.7	1001.582	1003.512	1004.140	1004.143	0
2	22102706	292	Low	10.0	Precise	1	30	26	29	1.7	10.0	0.8	26	30	29	10.0	1.7	0.8	2	1.482	0.001	L	26	10.0	1004.646	1005.387	1006.868	1006.871	0
2	22102706	293	Low	10.0	Precise	1	32	33	34	11.7	25.0	0.0	33	32	34	25.0	11.7	0.0	1	1.083	0.000	D	32	11.7	1007.374	1007.882	1008.964	1008.967	0
2	22102706	294	Low	10.0	Vague	2	30	32	2	1.7	11.7	0.0	30	2	32	1.7	0.0	11.7	2	0.940	0.000	R	32	11.7	1009.469	1011.472	1012.412	1012.415	0
2	22102706	295	Low	10.0	Precise	1	30	33	28	1.7	25.0	0.0	28	33	30	0.0	25.0	1.7	1	1.275	0.000	R	30	1.7	1012.917	1014.570	1015.844	1015.847	0
2	22102706	296	Low	10.0	Precise	1	22	26	34	10.0	10.0	0.0	34	26	22	0.0	10.0	10.0	1	0.787	0.000	R	22	10.0	1016.350	1019.073	1019.860	1019.863	0
2	22102706	297	Low	10.0	Precise	1	30	35	20	1.7	21.7	0.0	30	20	35	1.7	0.0	21.7	2	0.576	0.001	R	35	21.7	1020.365	1022.613	1023.188	1023.191	0
2	22102706	298	Low	10.0	Vague	2	30	26	11	1.7	10.0	0.8	11	30	26	0.8	1.7	10.0	2	0.574	0.001	R	26	10.0	1023.694	1024.415	1024.989	1024.991	0
2	22102706	299	Low	10.0	Precise	1	22	35	19	10.0	21.7	0.8	35	22	19	21.7	10.0	0.8	2	0.777	0.000	L	35	21.7	1025.493	1028.196	1028.972	1028.975	0
2	22102706	300	Low	10.0	Vague	2	32	33	6	11.7	25.0	0.0	33	32	6	25.0	11.7	0.0	1	0.891	0.001	D	32	11.7	1029.478	1031.609	1032.500	1032.503	0
2	22102706	301	Low	10.0	Vague	2	26	33	13	10.0	25.0	2.5	13	26	33	2.5	10.0	25.0	1	1.104	0.000	D	26	10.0	1039.620	1040.276	1041.380	1041.383	0
2	22102706	302	Low	10.0	Vague	2	22	35	6	10.0	21.7	0.0	22	35	6	10.0	21.7	0.0	2	0.827	0.001	D	35	21.7	1041.885	1044.105	1044.932	1044.935	0
2	22102706	303	Low	10.0	Vague	2	32	33	8	11.7	25.0	0.0	8	33	32	0.0	25.0	11.7	1	0.918	0.000	R	32	11.7	1045.437	1046.702	1047.620	1047.623	0
2	22102706	304	Low	10.0	Vague	2	30	26	8	1.7	10.0	0.0	30	8	26	1.7	0.0	10.0	2	1.219	0.001	R	26	10.0	1048.126	1049.122	1050.340	1050.343	0
2	22102706	305	Low	10.0	Vague	2	26	32	8	10.0	11.7	0.0	8	32	26	0.0	11.7	10.0	1	0.947	0.000	R	26	10.0	1050.846	1052.002	1052.948	1052.951	0
2	22102706	306	Low	10.0	Precise	1	22	26	19	10.0	10.0	0.8	22	19	26	10.0	0.8	10.0	2	0.907	0.001	R	26	10.0	1053.454	1056.034	1056.940	1056.943	0
2	22102706	307	Low	10.0	Vague	2	26	33	4	10.0	25.0	0.0	4	33	26	0.0	25.0	10.0	1	0.817	0.001	R	26	10.0	1057.446	1059.851	1060.668	1060.671	0
2	22102706	308	Low	10.0	Precise	1	22	33	19	10.0	25.0	0.8	19	22	33	0.8	10.0	25.0	1	1.020	0.001	D	22	10.0	1061.173	1062.416	1063.437	1063.439	0
2	22102706	309	Low	10.0	Precise	1	22	32	34	10.0	11.7	0.0	32	34	22	11.7	0.0	10.0	1	0.673	0.001	R	22	10.0	1063.941	1066.852	1067.524	1067.527	0
2	22102706	310	Low	10.0	Precise	1	22	26	23	10.0	10.0	0.0	26	22	23	10.0	10.0	0.0	1	1.617	0.000	D	22	10.0	1068.029	1068.523	1070.140	1070.143	0
2	22102706	311	Low	10.0	Vague	2	30	22	4	1.7	10.0	0.0	22	30	4	10.0	1.7	0.0	2	0.962	0.000	L	22	10.0	1070.645	1073.162	1074.124	1074.126	0
2	22102706	312	Low	10.0	Vague	2	30	33	13	1.7	25.0	2.5	30	13	33	1.7	2.5	25.0	1	1.514	0.001	L	30	1.7	1074.629	1075.906	1077.420	1077.423	0
2	22102706	313	Low	10.0	Vague	2	26	32	11	10.0	11.7	0.8	11	32	26	0.8	11.7	10.0	1	0.810	0.000	R	26	10.0	1077.925	1080.170	1080.980	1080.983	0
2	22102706	314	Low	10.0	Vague	2	35	33	6	21.7	25.0	0.0	6	35	33	0.0	21.7	25.0	1	0.793	0.000	D	35	21.7	1081.486	1082.227	1083.020	1083.023	0
2	22102706	315	Low	10.0	Vague	2	30	32	6	1.7	11.7	0.0	30	6	32	1.7	0.0	11.7	2	0.701	0.000	R	32	11.7	1083.526	1085.464	1086.164	1086.167	0
2	22102706	316	Low	10.0	Vague	2	32	35	8	11.7	21.7	0.0	32	35	8	11.7	21.7	0.0	2	0.685	0.001	D	35	21.7	1086.670	1088.736	1089.420	1089.423	0
2	22102706	317	Low	10.0	Precise	1	22	26	28	10.0	10.0	0.0	28	22	26	0.0	10.0	10.0	1	1.143	0.001	D	22	10.0	1089.926	1091.422	1092.564	1092.567	0
2	22102706	318	Low	10.0	Vague	2	30	33	2	1.7	25.0	0.0	33	30	2	25.0	1.7	0.0	1	1.342	0.001	D	30	1.7	1093.070	1095.758	1097.100	1097.103	0
2	22102706	319	Low	10.0	Precise	1	32	35	20	11.7	21.7	0.0	35	20	32	21.7	0.0	11.7	2	2.378	0.000	L	35	21.7	1097.606	1099.907	1102.284	1102.287	0
2	22102706	320	Low	10.0	Precise	1	30	32	29	1.7	11.7	0.8	30	32	29	1.7	11.7	0.8	2	1.138	0.001	D	32	11.7	1102.790	1104.330	1105.468	1105.471	0
2	22102706	321	Low	10.0	Vague	2	30	35	4	1.7	21.7	0.0	4	30	35	0.0	1.7	21.7	2	0.621	0.001	R	35	21.7	1105.973	1108.959	1109.580	1109.583	0
2	22102706	322	Low	10.0	Vague	2	35	33	13	21.7	25.0	2.5	13	35	33	2.5	21.7	25.0	1	0.614	0.001	D	35	21.7	1110.086	1112.430	1113.044	1113.047	0
2	22102706	323	Low	10.0	Vague	2	26	32	2	10.0	11.7	0.0	32	2	26	11.7	0.0	10.0	1	0.750	0.000	R	26	10.0	1113.550	1115.725	1116.476	1116.478	0
2	22102706	324	Low	10.0	Vague	2	32	33	4	11.7	25.0	0.0	32	4	33	11.7	0.0	25.0	1	0.914	0.000	L	32	11.7	1116.982	1119.522	1120.436	1120.438	0
2	22102706	325	Low	10.0	Vague	2	26	33	8	10.0	25.0	0.0	8	26	33	0.0	10.0	25.0	1	0.965	0.000	D	26	10.0	1120.942	1122.839	1123.804	1123.806	0
2	22102706	326	Low	10.0	Precise	1	26	33	20	10.0	25.0	0.0	20	33	26	0.0	25.0	10.0	1	0.709	0.000	R	26	10.0	1124.310	1125.719	1126.428	1126.430	0
2	22102706	327	Low	10.0	Vague	2	30	33	4	1.7	25.0	0.0	33	30	4	25.0	1.7	0.0	1	1.138	0.001	D	30	1.7	1126.933	1129.002	1130.140	1130.143	0
2	22102706	328	Low	10.0	Precise	1	30	32	19	1.7	11.7	0.8	30	32	19	1.7	11.7	0.8	1	1.365	0.000	L	30	1.7	1130.645	1133.175	1134.540	1134.542	0
2	22102706	329	Low	10.0	Precise	1	30	33	20	1.7	25.0	0.0	33	30	20	25.0	1.7	0.0	3	1.232	0.001	R	20	0.0	1135.046	1136.884	1138.116	1138.119	0
2	22102706	330	Low	10.0	Vague	2	26	35	8	10.0	21.7	0.0	35	26	8	21.7	10.0	0.0	2	0.681	0.000	L	35	21.7	1138.622	1140.331	1141.012	1141.014	0
2	22102706	331	Low	10.0	Precise	1	32	35	19	11.7	21.7	0.8	35	32	19	21.7	11.7	0.8	2	0.652	0.001	L	35	21.7	1141.517	1142.728	1143.380	1143.382	0
2	22102706	332	Low	10.0	Vague	2	22	33	8	10.0	25.0	0.0	8	33	22	0.0	25.0	10.0	1	1.053	0.000	R	22	10.0	1143.886	1146.543	1147.596	1147.599	0
2	22102706	333	Low	10.0	Vague	2	26	33	11	10.0	25.0	0.8	26	11	33	10.0	0.8	25.0	1	1.067	0.000	L	26	10.0	1148.102	1148.921	1149.988	1149.990	0
2	22102706	334	Low	10.0	Precise	1	22	32	23	10.0	11.7	0.0	32	23	22	11.7	0.0	10.0	1	1.124	0.001	R	22	10.0	1150.493	1152.728	1153.852	1153.855	0
2	22102706	335	Low	10.0	Precise	1	22	35	23	10.0	21.7	0.0	22	35	23	10.0	21.7	0.0	1	0.740	0.001	L	22	10.0	1154.358	1156.480	1157.220	1157.222	0
2	22102706	336	Low	10.0	Precise	1	30	32	34	1.7	11.7	0.0	32	30	34	11.7	1.7	0.0	2	0.945	0.001	L	32	11.7	1157.725	1158.507	1159.452	1159.455	0
2	22102706	337	Low	10.0	Precise	1	35	33	28	21.7	25.0	0.0	33	35	28	25.0	21.7	0.0	1	0.882	0.001	D	35	21.7	1159.957	1161.970	1162.852	1162.854	0
2	22102706	338	Low	10.0	Precise	1	26	33	28	10.0	25.0	0.0	33	28	26	25.0	0.0	10.0	1	0.831	0.001	R	26	10.0	1163.358	1166.045	1166.876	1166.879	0
2	22102706	339	Low	10.0	Vague	2	30	26	4	1.7	10.0	0.0	4	26	30	0.0	10.0	1.7	2	0.875	0.000	D	26	10.0	1167.383	1168.953	1169.828	1169.830	0
2	22102706	340	Low	10.0	Precise	1	30	35	28	1.7	21.7	0.0	28	30	35	0.0	1.7	21.7	2	0.572	0.000	R	35	21.7	1170.333	1172.816	1173.388	1173.390	0
2	22102706	341	Low	10.0	Precise	1	30	26	34	1.7	10.0	0.0	26	34	30	10.0	0.0	1.7	2	1.130	0.000	L	26	10.0	1173.893	1176.138	1177.268	1177.270	0
2	22102706	342	Low	10.0	Vague	2	22	33	11	10.0	25.0	0.8	22	33	11	10.0	25.0	0.8	1	0.591	0.001	L	22	10.0	1177.774	1180.541	1181.132	1181.134	0
2	22102706	343	Low	10.0	Vague	2	26	33	6	10.0	25.0	0.0	26	33	6	10.0	25.0	0.0	1	0.855	0.001	L	26	10.0	1181.638	1184.573	1185.428	1185.431	0
2	22102706	344	Low	10.0	Vague	2	22	26	2	10.0	10.0	0.0	22	26	2	10.0	10.0	0.0	1	0.832	0.000	L	22	10.0	1185.934	1187.444	1188.276	1188.278	0
2	22102706	345	Low	10.0	Vague	2	30	22	6	1.7	10.0	0.0	6	22	30	0.0	10.0	1.7	2	0.825	0.001	D	22	10.0	1188.781	1190.396	1191.220	1191.223	0
2	22102706	346	Low	10.0	Vague	2	22	32	6	10.0	11.7	0.0	6	32	22	0.0	11.7	10.0	1	0.793	0.001	R	22	10.0	1191.725	1192.731	1193.524	1193.527	0
2	22102706	347	Low	10.0	Vague	2	30	35	11	1.7	21.7	0.8	30	11	35	1.7	0.8	21.7	2	0.753	0.000	R	35	21.7	1194.030	1195.699	1196.452	1196.454	0
2	22102706	348	Low	10.0	Precise	1	22	26	29	10.0	10.0	0.8	26	29	22	10.0	0.8	10.0	1	0.676	0.000	R	22	10.0	1196.957	1198.041	1198.716	1198.719	0
2	22102706	349	Low	10.0	Precise	1	30	32	20	1.7	11.7	0.0	30	32	20	1.7	11.7	0.0	1	1.632	0.000	L	30	1.7	1199.222	1201.044	1202.676	1202.678	0
2	22102706	350	Low	10.0	Vague	2	30	35	13	1.7	21.7	2.5	35	13	30	21.7	2.5	1.7	2	0.881	0.001	L	35	21.7	1203.181	1205.251	1206.132	1206.134	0
2	22102706	351	Low	10.0	Vague	2	26	35	2	10.0	21.7	0.0	2	35	26	0.0	21.7	10.0	2	0.641	0.000	D	35	21.7	1206.637	1208.899	1209.540	1209.543	0
2	22102706	352	Low	10.0	Vague	2	22	32	2	10.0	11.7	0.0	32	22	2	11.7	10.0	0.0	1	0.749	0.001	D	22	10.0	1210.045	1211.616	1212.364	1212.366	0
2	22102706	353	Low	10.0	Precise	1	26	33	34	10.0	25.0	0.0	34	33	26	0.0	25.0	10.0	1	0.828	0.000	R	26	10.0	1212.869	1214.232	1215.060	1215.062	0
2	22102706	354	Low	10.0	Precise	1	22	35	29	10.0	21.7	0.8	22	35	29	10.0	21.7	0.8	2	0.832	0.000	D	35	21.7	1215.565	1216.260	1217.092	1217.094	0
2	22102706	355	Low	10.0	Vague	2	30	33	8	1.7	25.0	0.0	30	8	33	1.7	0.0	25.0	1	1.165	0.000	L	30	1.7	1217.597	1218.390	1219.556	1219.558	0
2	22102706	356	Low	10.0	Vague	2	35	33	11	21.7	25.0	0.8	33	11	35	25.0	0.8	21.7	1	0.611	0.000	R	35	21.7	1220.061	1221.657	1222.268	1222.270	0
2	22102706	357	Low	10.0	Precise	1	22	33	28	10.0	25.0	0.0	22	28	33	10.0	0.0	25.0	1	1.365	0.000	L	22	10.0	1222.773	1223.295	1224.660	1224.662	0
2	22102706	358	Low	10.0	Vague	2	30	26	6	1.7	10.0	0.0	30	26	6	1.7	10.0	0.0	2	1.498	0.001	D	26	10.0	1225.166	1226.970	1228.468	1228.470	0
2	22102706	359	Low	10.0	Precise	1	22	32	29	10.0	11.7	0.8	29	32	22	0.8	11.7	10.0	1	0.768	0.000	R	22	10.0	1228.973	1230.812	1231.580	1231.582	0
2	22102706	360	Low	10.0	Precise	1	35	33	19	21.7	25.0	0.8	35	19	33	21.7	0.8	25.0	1	1.025	0.000	L	35	21.7	1232.086	1232.667	1233.692	1233.694	0
