Group	subID	trial	TimePressure	TimeConstraint	Vagueness	Vaguenesscode	ID1	ID2	ID3	V1	V2	V3	ID_left	ID_middle	ID_right	Bid_left	Bid_middle	Bid_right	chosenItem	RT	RTvariance	chosenPosition	chosenID	chosenValue	fixation_time	option_time	choice_time	feedback_time	timeout
1	22071803	1	Low	10.0	Precise	1	8	15	1	26.0	31.3	2.2	15	8	1	31.3	26.0	2.2	2	1.929	0.000	L	15	31.3	5.459	6.580	8.509	8.513	0
1	22071803	2	Low	10.0	Vague	2	8	16	24	26.0	35.5	3.4	8	24	16	26.0	3.4	35.5	2	1.548	0.000	R	16	35.5	9.017	9.905	11.453	11.456	0
1	22071803	3	Low	10.0	Vague	2	18	16	31	21.5	35.5	14.0	18	16	31	21.5	35.5	14.0	2	1.935	0.001	D	16	35.5	11.963	14.703	16.638	16.641	0
1	22071803	4	Low	10.0	Vague	2	18	17	24	21.5	22.5	3.4	18	17	24	21.5	22.5	3.4	1	2.024	0.000	L	18	21.5	17.144	19.637	21.662	21.664	0
1	22071803	5	Low	10.0	Vague	2	8	16	31	26.0	35.5	14.0	8	31	16	26.0	14.0	35.5	2	1.422	0.001	R	16	35.5	22.169	22.832	24.254	24.258	0
1	22071803	6	Low	10.0	Vague	2	17	15	20	22.5	31.3	1.3	17	20	15	22.5	1.3	31.3	2	1.144	0.001	R	15	31.3	24.764	25.509	26.654	26.657	0
1	22071803	7	Low	10.0	Vague	2	18	12	20	21.5	28.0	1.3	20	12	18	1.3	28.0	21.5	1	2.506	0.001	R	18	21.5	27.159	29.539	32.046	32.048	0
1	22071803	8	Low	10.0	Vague	2	15	16	21	31.3	35.5	1.9	15	16	21	31.3	35.5	1.9	2	1.040	0.000	D	16	35.5	32.551	33.997	35.037	35.040	0
1	22071803	9	Low	10.0	Precise	1	15	16	1	31.3	35.5	2.2	15	1	16	31.3	2.2	35.5	2	0.991	0.001	R	16	35.5	35.543	36.255	37.246	37.248	0
1	22071803	10	Low	10.0	Vague	2	17	16	20	22.5	35.5	1.3	16	17	20	35.5	22.5	1.3	2	0.983	0.001	L	16	35.5	37.751	40.199	41.182	41.184	0
1	22071803	11	Low	10.0	Vague	2	8	12	26	26.0	28.0	10.7	12	8	26	28.0	26.0	10.7	2	1.967	0.001	L	12	28.0	41.687	44.559	46.526	46.528	0
1	22071803	12	Low	10.0	Vague	2	15	16	31	31.3	35.5	14.0	15	16	31	31.3	35.5	14.0	1	0.774	0.000	L	15	31.3	47.031	48.056	48.830	48.832	0
1	22071803	13	Low	10.0	Precise	1	17	8	13	22.5	26.0	7.2	13	17	8	7.2	22.5	26.0	2	2.152	0.001	R	8	26.0	49.336	52.277	54.430	54.432	0
1	22071803	14	Low	10.0	Vague	2	8	15	20	26.0	31.3	1.3	8	20	15	26.0	1.3	31.3	2	1.096	0.001	R	15	31.3	54.935	56.966	58.062	58.064	0
1	22071803	15	Low	10.0	Vague	2	15	16	24	31.3	35.5	3.4	15	16	24	31.3	35.5	3.4	1	2.806	0.001	L	15	31.3	58.566	59.352	62.158	62.160	0
1	22071803	16	Low	10.0	Precise	1	15	16	10	31.3	35.5	16.5	16	15	10	35.5	31.3	16.5	2	2.272	0.001	L	16	35.5	62.663	64.541	66.814	66.816	0
1	22071803	17	Low	10.0	Precise	1	18	16	13	21.5	35.5	7.2	13	16	18	7.2	35.5	21.5	2	1.764	0.001	D	16	35.5	67.319	67.962	69.726	69.728	0
1	22071803	18	Low	10.0	Precise	1	17	8	1	22.5	26.0	2.2	1	17	8	2.2	22.5	26.0	2	1.883	0.001	R	8	26.0	70.231	72.083	73.966	73.968	0
1	22071803	19	Low	10.0	Vague	2	12	16	26	28.0	35.5	10.7	16	12	26	35.5	28.0	10.7	2	1.470	0.000	L	16	35.5	74.471	75.071	76.541	76.544	0
1	22071803	20	Low	10.0	Precise	1	18	8	13	21.5	26.0	7.2	13	8	18	7.2	26.0	21.5	2	1.255	0.001	D	8	26.0	77.047	79.687	80.942	80.944	0
1	22071803	21	Low	10.0	Precise	1	17	12	11	22.5	28.0	13.5	17	11	12	22.5	13.5	28.0	2	1.862	0.001	R	12	28.0	81.449	82.424	84.286	84.288	0
1	22071803	22	Low	10.0	Vague	2	18	15	24	21.5	31.3	3.4	15	18	24	31.3	21.5	3.4	2	0.659	0.000	L	15	31.3	84.790	86.859	87.517	87.520	0
1	22071803	23	Low	10.0	Precise	1	8	12	10	26.0	28.0	16.5	8	12	10	26.0	28.0	16.5	2	1.980	0.001	D	12	28.0	88.023	90.353	92.334	92.337	0
1	22071803	24	Low	10.0	Vague	2	8	15	24	26.0	31.3	3.4	15	8	24	31.3	26.0	3.4	2	1.046	0.001	L	15	31.3	92.839	94.679	95.726	95.728	0
1	22071803	25	Low	10.0	Precise	1	18	16	7	21.5	35.5	2.5	7	18	16	2.5	21.5	35.5	2	0.851	0.000	R	16	35.5	96.231	99.018	99.870	99.872	0
1	22071803	26	Low	10.0	Precise	1	8	15	10	26.0	31.3	16.5	10	15	8	16.5	31.3	26.0	2	1.430	0.001	D	15	31.3	100.374	101.448	102.878	102.880	0
1	22071803	27	Low	10.0	Vague	2	8	12	21	26.0	28.0	1.9	12	21	8	28.0	1.9	26.0	2	1.658	0.000	L	12	28.0	103.383	105.667	107.325	107.328	0
1	22071803	28	Low	10.0	Precise	1	17	16	14	22.5	35.5	21.3	16	14	17	35.5	21.3	22.5	2	0.751	0.000	L	16	35.5	107.831	108.799	109.549	109.552	0
1	22071803	29	Low	10.0	Vague	2	18	17	21	21.5	22.5	1.9	17	18	21	22.5	21.5	1.9	1	1.776	0.001	D	18	21.5	110.055	112.365	114.142	114.144	0
1	22071803	30	Low	10.0	Vague	2	18	12	21	21.5	28.0	1.9	21	12	18	1.9	28.0	21.5	2	1.147	0.001	D	12	28.0	114.647	115.299	116.446	116.448	0
1	22071803	31	Low	10.0	Precise	1	18	8	7	21.5	26.0	2.5	8	18	7	26.0	21.5	2.5	2	1.986	0.001	L	8	26.0	116.951	118.188	120.174	120.176	0
1	22071803	32	Low	10.0	Vague	2	17	15	26	22.5	31.3	10.7	17	26	15	22.5	10.7	31.3	2	0.721	0.001	R	15	31.3	120.679	122.413	123.134	123.136	0
1	22071803	33	Low	10.0	Vague	2	18	15	21	21.5	31.3	1.9	21	15	18	1.9	31.3	21.5	2	0.844	0.001	D	15	31.3	123.639	124.626	125.470	125.472	0
1	22071803	34	Low	10.0	Precise	1	12	15	7	28.0	31.3	2.5	15	7	12	31.3	2.5	28.0	2	1.161	0.000	L	15	31.3	125.975	126.517	127.677	127.680	0
1	22071803	35	Low	10.0	Vague	2	18	12	24	21.5	28.0	3.4	18	24	12	21.5	3.4	28.0	2	1.190	0.001	R	12	28.0	128.183	129.656	130.846	130.848	0
1	22071803	36	Low	10.0	Vague	2	17	12	24	22.5	28.0	3.4	12	24	17	28.0	3.4	22.5	2	1.308	0.001	L	12	28.0	131.351	134.306	135.614	135.616	0
1	22071803	37	Low	10.0	Precise	1	17	12	1	22.5	28.0	2.2	12	1	17	28.0	2.2	22.5	2	0.860	0.001	L	12	28.0	136.119	138.690	139.550	139.553	0
1	22071803	38	Low	10.0	Precise	1	18	17	10	21.5	22.5	16.5	17	10	18	22.5	16.5	21.5	1	2.412	0.000	R	18	21.5	140.055	141.474	143.886	143.888	0
1	22071803	39	Low	10.0	Vague	2	17	8	26	22.5	26.0	10.7	8	17	26	26.0	22.5	10.7	2	1.649	0.000	L	8	26.0	144.391	145.917	147.566	147.568	0
1	22071803	40	Low	10.0	Vague	2	8	15	21	26.0	31.3	1.9	21	15	8	1.9	31.3	26.0	2	0.779	0.000	D	15	31.3	148.071	149.554	150.334	150.336	0
1	22071803	41	Low	10.0	Vague	2	12	16	20	28.0	35.5	1.3	20	12	16	1.3	28.0	35.5	2	1.464	0.001	R	16	35.5	150.839	152.117	153.582	153.585	0
1	22071803	42	Low	10.0	Precise	1	18	15	14	21.5	31.3	21.3	14	18	15	21.3	21.5	31.3	2	0.882	0.000	R	15	31.3	154.088	154.652	155.534	155.536	0
1	22071803	43	Low	10.0	Precise	1	8	16	11	26.0	35.5	13.5	11	8	16	13.5	26.0	35.5	2	0.701	0.001	R	16	35.5	156.039	158.689	159.390	159.392	0
1	22071803	44	Low	10.0	Precise	1	18	17	14	21.5	22.5	21.3	14	17	18	21.3	22.5	21.5	1	1.398	0.000	R	18	21.5	159.895	161.319	162.717	162.720	0
1	22071803	45	Low	10.0	Precise	1	18	12	1	21.5	28.0	2.2	12	1	18	28.0	2.2	21.5	2	3.154	0.000	L	12	28.0	163.223	164.524	167.678	167.680	0
1	22071803	46	Low	10.0	Vague	2	12	16	31	28.0	35.5	14.0	16	12	31	35.5	28.0	14.0	2	0.916	0.001	L	16	35.5	168.183	169.994	170.910	170.913	0
1	22071803	47	Low	10.0	Precise	1	12	16	13	28.0	35.5	7.2	12	16	13	28.0	35.5	7.2	2	1.021	0.001	D	16	35.5	171.416	173.265	174.286	174.288	0
1	22071803	48	Low	10.0	Vague	2	18	17	26	21.5	22.5	10.7	17	26	18	22.5	10.7	21.5	1	1.833	0.001	R	18	21.5	174.791	176.853	178.686	178.688	0
1	22071803	49	Low	10.0	Vague	2	18	15	20	21.5	31.3	1.3	20	18	15	1.3	21.5	31.3	2	0.750	0.001	R	15	31.3	179.191	181.888	182.638	182.640	0
1	22071803	50	Low	10.0	Precise	1	15	16	13	31.3	35.5	7.2	15	16	13	31.3	35.5	7.2	2	1.012	0.001	D	16	35.5	183.143	185.481	186.494	186.496	0
1	22071803	51	Low	10.0	Vague	2	18	16	26	21.5	35.5	10.7	18	26	16	21.5	10.7	35.5	2	1.487	0.000	R	16	35.5	186.999	188.783	190.269	190.272	0
1	22071803	52	Low	10.0	Precise	1	17	15	10	22.5	31.3	16.5	17	15	10	22.5	31.3	16.5	2	0.881	0.000	D	15	31.3	190.775	193.212	194.093	194.096	0
1	22071803	53	Low	10.0	Precise	1	18	15	13	21.5	31.3	7.2	13	18	15	7.2	21.5	31.3	2	0.597	0.000	R	15	31.3	194.599	195.640	196.237	196.240	0
1	22071803	54	Low	10.0	Vague	2	17	12	31	22.5	28.0	14.0	31	12	17	14.0	28.0	22.5	2	1.474	0.001	D	12	28.0	196.743	197.916	199.390	199.392	0
1	22071803	55	Low	10.0	Precise	1	12	15	10	28.0	31.3	16.5	15	10	12	31.3	16.5	28.0	2	0.820	0.001	L	15	31.3	199.896	202.634	203.454	203.456	0
1	22071803	56	Low	10.0	Precise	1	18	12	11	21.5	28.0	13.5	11	18	12	13.5	21.5	28.0	2	0.951	0.001	R	12	28.0	203.959	205.383	206.334	206.337	0
1	22071803	57	Low	10.0	Precise	1	18	17	7	21.5	22.5	2.5	7	18	17	2.5	21.5	22.5	1	1.430	0.001	D	18	21.5	206.839	208.568	209.998	210.000	0
1	22071803	58	Low	10.0	Precise	1	8	12	7	26.0	28.0	2.5	12	8	7	28.0	26.0	2.5	2	1.708	0.001	L	12	28.0	210.503	212.930	214.638	214.640	0
1	22071803	59	Low	10.0	Vague	2	18	8	28	21.5	26.0	8.2	28	8	18	8.2	26.0	21.5	1	1.653	0.001	R	18	21.5	215.143	216.329	217.982	217.984	0
1	22071803	60	Low	10.0	Precise	1	17	12	13	22.5	28.0	7.2	13	17	12	7.2	22.5	28.0	2	0.774	0.000	R	12	28.0	218.487	220.088	220.862	220.864	0
1	22071803	61	Low	10.0	Precise	1	18	17	13	21.5	22.5	7.2	18	17	13	21.5	22.5	7.2	1	1.411	0.001	L	18	21.5	232.924	234.763	236.174	236.176	0
1	22071803	62	Low	10.0	Vague	2	18	8	21	21.5	26.0	1.9	21	18	8	1.9	21.5	26.0	1	1.240	0.001	D	18	21.5	236.679	237.494	238.734	238.736	0
1	22071803	63	Low	10.0	Precise	1	17	16	7	22.5	35.5	2.5	17	7	16	22.5	2.5	35.5	2	0.626	0.001	R	16	35.5	239.239	241.340	241.966	241.968	0
1	22071803	64	Low	10.0	Vague	2	12	15	26	28.0	31.3	10.7	15	26	12	31.3	10.7	28.0	2	0.860	0.001	L	15	31.3	242.471	243.314	244.174	244.176	0
1	22071803	65	Low	10.0	Precise	1	8	16	14	26.0	35.5	21.3	8	14	16	26.0	21.3	35.5	2	0.593	0.000	R	16	35.5	244.679	246.605	247.198	247.200	0
1	22071803	66	Low	10.0	Precise	1	15	16	11	31.3	35.5	13.5	11	15	16	13.5	31.3	35.5	2	0.851	0.001	R	16	35.5	247.703	248.203	249.054	249.056	0
1	22071803	67	Low	10.0	Vague	2	8	16	20	26.0	35.5	1.3	16	8	20	35.5	26.0	1.3	2	0.861	0.001	L	16	35.5	249.559	250.369	251.230	251.232	0
1	22071803	68	Low	10.0	Precise	1	8	16	13	26.0	35.5	7.2	13	8	16	7.2	26.0	35.5	2	0.875	0.001	R	16	35.5	251.735	252.403	253.278	253.280	0
1	22071803	69	Low	10.0	Vague	2	12	15	24	28.0	31.3	3.4	15	12	24	31.3	28.0	3.4	2	0.945	0.001	L	15	31.3	253.783	255.197	256.142	256.145	0
1	22071803	70	Low	10.0	Vague	2	17	16	26	22.5	35.5	10.7	26	16	17	10.7	35.5	22.5	2	0.942	0.001	D	16	35.5	256.648	259.040	259.982	259.984	0
1	22071803	71	Low	10.0	Vague	2	12	15	21	28.0	31.3	1.9	21	15	12	1.9	31.3	28.0	2	0.676	0.000	D	15	31.3	260.487	261.226	261.902	261.904	0
1	22071803	72	Low	10.0	Precise	1	17	12	10	22.5	28.0	16.5	12	10	17	28.0	16.5	22.5	2	1.050	0.000	L	12	28.0	262.407	264.468	265.518	265.520	0
1	22071803	73	Low	10.0	Precise	1	8	12	14	26.0	28.0	21.3	14	12	8	21.3	28.0	26.0	2	1.084	0.001	D	12	28.0	266.023	268.193	269.278	269.280	0
1	22071803	74	Low	10.0	Vague	2	18	8	24	21.5	26.0	3.4	24	8	18	3.4	26.0	21.5	1	1.104	0.000	R	18	21.5	269.782	271.134	272.238	272.240	0
1	22071803	75	Low	10.0	Precise	1	12	15	11	28.0	31.3	13.5	12	11	15	28.0	13.5	31.3	2	0.608	0.001	R	15	31.3	272.743	273.550	274.158	274.160	0
1	22071803	76	Low	10.0	Vague	2	12	16	21	28.0	35.5	1.9	12	16	21	28.0	35.5	1.9	2	0.634	0.001	D	16	35.5	274.663	276.020	276.654	276.656	0
1	22071803	77	Low	10.0	Vague	2	8	15	26	26.0	31.3	10.7	26	8	15	10.7	26.0	31.3	2	0.557	0.001	R	15	31.3	277.159	278.017	278.574	278.576	0
1	22071803	78	Low	10.0	Precise	1	12	16	1	28.0	35.5	2.2	1	12	16	2.2	28.0	35.5	2	0.683	0.001	R	16	35.5	279.080	280.531	281.214	281.217	0
1	22071803	79	Low	10.0	Vague	2	18	16	28	21.5	35.5	8.2	18	16	28	21.5	35.5	8.2	2	0.640	0.000	D	16	35.5	281.720	282.861	283.502	283.504	0
1	22071803	80	Low	10.0	Precise	1	17	16	13	22.5	35.5	7.2	16	13	17	35.5	7.2	22.5	2	0.618	0.000	L	16	35.5	284.006	286.948	287.565	287.568	0
1	22071803	81	Low	10.0	Vague	2	17	12	28	22.5	28.0	8.2	12	17	28	28.0	22.5	8.2	2	1.060	0.000	L	12	28.0	288.071	290.714	291.774	291.776	0
1	22071803	82	Low	10.0	Vague	2	8	16	26	26.0	35.5	10.7	8	16	26	26.0	35.5	10.7	2	0.565	0.000	D	16	35.5	292.279	293.529	294.094	294.096	0
1	22071803	83	Low	10.0	Precise	1	18	16	1	21.5	35.5	2.2	18	16	1	21.5	35.5	2.2	2	0.566	0.001	D	16	35.5	294.599	297.256	297.822	297.825	0
1	22071803	84	Low	10.0	Vague	2	17	16	21	22.5	35.5	1.9	17	16	21	22.5	35.5	1.9	2	0.525	0.001	D	16	35.5	298.327	300.625	301.150	301.153	0
1	22071803	85	Low	10.0	Precise	1	8	16	10	26.0	35.5	16.5	16	8	10	35.5	26.0	16.5	2	0.604	0.001	L	16	35.5	301.656	302.930	303.534	303.536	0
1	22071803	86	Low	10.0	Precise	1	18	16	11	21.5	35.5	13.5	18	11	16	21.5	13.5	35.5	2	0.498	0.000	R	16	35.5	304.039	306.140	306.638	306.640	0
1	22071803	87	Low	10.0	Precise	1	8	15	11	26.0	31.3	13.5	8	11	15	26.0	13.5	31.3	2	0.639	0.001	R	15	31.3	307.142	309.407	310.046	310.048	0
1	22071803	88	Low	10.0	Precise	1	8	12	13	26.0	28.0	7.2	8	12	13	26.0	28.0	7.2	2	1.314	0.000	D	12	28.0	310.552	312.060	313.374	313.376	0
1	22071803	89	Low	10.0	Precise	1	8	16	1	26.0	35.5	2.2	16	8	1	35.5	26.0	2.2	2	0.993	0.001	L	16	35.5	313.879	314.445	315.438	315.440	0
1	22071803	90	Low	10.0	Precise	1	15	16	14	31.3	35.5	21.3	16	15	14	35.5	31.3	21.3	2	0.676	0.000	L	16	35.5	315.943	318.122	318.798	318.800	0
1	22071803	91	Low	10.0	Vague	2	17	15	24	22.5	31.3	3.4	24	17	15	3.4	22.5	31.3	2	0.622	0.001	R	15	31.3	319.303	320.368	320.990	320.992	0
1	22071803	92	Low	10.0	Precise	1	18	12	14	21.5	28.0	21.3	18	12	14	21.5	28.0	21.3	2	0.873	0.000	D	12	28.0	321.496	322.228	323.102	323.104	0
1	22071803	93	Low	10.0	Vague	2	18	8	31	21.5	26.0	14.0	18	31	8	21.5	14.0	26.0	1	1.812	0.001	L	18	21.5	323.606	325.802	327.614	327.616	0
1	22071803	94	Low	10.0	Precise	1	8	15	13	26.0	31.3	7.2	15	8	13	31.3	26.0	7.2	2	0.614	0.001	L	15	31.3	328.119	329.096	329.710	329.712	0
1	22071803	95	Low	10.0	Precise	1	17	16	1	22.5	35.5	2.2	1	16	17	2.2	35.5	22.5	2	0.708	0.001	D	16	35.5	330.215	332.490	333.198	333.200	0
1	22071803	96	Low	10.0	Vague	2	17	8	21	22.5	26.0	1.9	8	17	21	26.0	22.5	1.9	2	1.747	0.000	L	8	26.0	333.703	335.339	337.085	337.088	0
1	22071803	97	Low	10.0	Precise	1	12	15	1	28.0	31.3	2.2	15	12	1	31.3	28.0	2.2	2	0.590	0.000	L	15	31.3	337.591	339.328	339.917	339.920	0
1	22071803	98	Low	10.0	Precise	1	12	16	14	28.0	35.5	21.3	12	16	14	28.0	35.5	21.3	2	0.747	0.000	D	16	35.5	340.423	342.931	343.678	343.680	0
1	22071803	99	Low	10.0	Vague	2	18	12	26	21.5	28.0	10.7	26	18	12	10.7	21.5	28.0	2	0.952	0.001	R	12	28.0	344.183	346.278	347.230	347.232	0
1	22071803	100	Low	10.0	Vague	2	17	12	20	22.5	28.0	1.3	12	17	20	28.0	22.5	1.3	2	0.837	0.001	L	12	28.0	347.735	349.849	350.686	350.688	0
1	22071803	101	Low	10.0	Precise	1	17	15	13	22.5	31.3	7.2	13	15	17	7.2	31.3	22.5	2	0.696	0.000	D	15	31.3	351.191	353.990	354.686	354.688	0
1	22071803	102	Low	10.0	Precise	1	8	12	1	26.0	28.0	2.2	1	8	12	2.2	26.0	28.0	2	1.368	0.000	R	12	28.0	355.191	356.438	357.806	357.808	0
1	22071803	103	Low	10.0	Vague	2	8	16	21	26.0	35.5	1.9	21	8	16	1.9	26.0	35.5	2	0.697	0.000	R	16	35.5	358.311	360.261	360.958	360.960	0
1	22071803	104	Low	10.0	Precise	1	12	16	11	28.0	35.5	13.5	12	11	16	28.0	13.5	35.5	2	0.642	0.000	R	16	35.5	361.463	363.723	364.366	364.368	0
1	22071803	105	Low	10.0	Vague	2	18	17	20	21.5	22.5	1.3	18	20	17	21.5	1.3	22.5	1	1.588	0.001	L	18	21.5	364.871	366.026	367.614	367.616	0
1	22071803	106	Low	10.0	Vague	2	12	15	31	28.0	31.3	14.0	15	31	12	31.3	14.0	28.0	2	0.607	0.000	L	15	31.3	368.119	370.831	371.438	371.440	0
1	22071803	107	Low	10.0	Vague	2	17	12	21	22.5	28.0	1.9	17	21	12	22.5	1.9	28.0	2	1.240	0.000	R	12	28.0	371.943	374.486	375.726	375.728	0
1	22071803	108	Low	10.0	Vague	2	18	15	28	21.5	31.3	8.2	15	18	28	31.3	21.5	8.2	2	0.692	0.000	L	15	31.3	376.231	377.466	378.158	378.160	0
1	22071803	109	Low	10.0	Precise	1	12	15	14	28.0	31.3	21.3	12	15	14	28.0	31.3	21.3	2	0.834	0.001	D	15	31.3	378.663	379.452	380.286	380.288	0
1	22071803	110	Low	10.0	Precise	1	15	16	7	31.3	35.5	2.5	15	16	7	31.3	35.5	2.5	2	1.320	0.001	D	16	35.5	380.791	381.399	382.718	382.721	0
1	22071803	111	Low	10.0	Vague	2	17	8	24	22.5	26.0	3.4	8	24	17	26.0	3.4	22.5	2	1.806	0.001	L	8	26.0	383.223	384.864	386.670	386.672	0
1	22071803	112	Low	10.0	Vague	2	18	15	26	21.5	31.3	10.7	26	15	18	10.7	31.3	21.5	2	0.718	0.001	D	15	31.3	387.175	388.496	389.214	389.216	0
1	22071803	113	Low	10.0	Precise	1	18	8	10	21.5	26.0	16.5	8	18	10	26.0	21.5	16.5	1	2.203	0.001	D	18	21.5	389.719	392.659	394.862	394.864	0
1	22071803	114	Low	10.0	Vague	2	17	8	31	22.5	26.0	14.0	31	8	17	14.0	26.0	22.5	2	1.926	0.000	D	8	26.0	395.367	397.832	399.758	399.760	0
1	22071803	115	Low	10.0	Precise	1	18	16	14	21.5	35.5	21.3	18	16	14	21.5	35.5	21.3	2	0.978	0.000	D	16	35.5	400.263	403.067	404.046	404.048	0
1	22071803	116	Low	10.0	Vague	2	8	12	28	26.0	28.0	8.2	28	8	12	8.2	26.0	28.0	2	1.519	0.000	R	12	28.0	404.551	407.246	408.766	408.768	0
1	22071803	117	Low	10.0	Precise	1	12	15	13	28.0	31.3	7.2	12	15	13	28.0	31.3	7.2	2	0.864	0.001	D	15	31.3	409.271	411.086	411.950	411.952	0
1	22071803	118	Low	10.0	Vague	2	12	15	28	28.0	31.3	8.2	28	12	15	8.2	28.0	31.3	2	0.656	0.000	R	15	31.3	412.455	414.446	415.102	415.104	0
1	22071803	119	Low	10.0	Precise	1	18	8	11	21.5	26.0	13.5	8	18	11	26.0	21.5	13.5	1	1.095	0.000	D	18	21.5	415.606	416.887	417.982	417.984	0
1	22071803	120	Low	10.0	Precise	1	18	8	1	21.5	26.0	2.2	1	18	8	2.2	21.5	26.0	1	1.463	0.001	D	18	21.5	418.487	420.231	421.694	421.696	0
1	22071803	121	Low	10.0	Vague	2	8	12	20	26.0	28.0	1.3	8	12	20	26.0	28.0	1.3	2	1.005	0.000	D	12	28.0	438.812	440.961	441.966	441.968	0
1	22071803	122	Low	10.0	Vague	2	18	8	26	21.5	26.0	10.7	18	8	26	21.5	26.0	10.7	1	1.305	0.001	L	18	21.5	442.471	444.917	446.222	446.224	0
1	22071803	123	Low	10.0	Precise	1	17	15	7	22.5	31.3	2.5	17	15	7	22.5	31.3	2.5	2	0.687	0.000	D	15	31.3	446.727	447.455	448.142	448.144	0
1	22071803	124	Low	10.0	Precise	1	18	8	14	21.5	26.0	21.3	18	8	14	21.5	26.0	21.3	1	1.151	0.001	L	18	21.5	448.646	451.535	452.686	452.688	0
1	22071803	125	Low	10.0	Precise	1	18	12	7	21.5	28.0	2.5	7	12	18	2.5	28.0	21.5	1	1.330	0.001	R	18	21.5	453.191	454.028	455.358	455.361	0
1	22071803	126	Low	10.0	Vague	2	17	15	31	22.5	31.3	14.0	17	15	31	22.5	31.3	14.0	2	0.660	0.001	D	15	31.3	455.864	458.778	459.438	459.441	0
1	22071803	127	Low	10.0	Vague	2	18	8	20	21.5	26.0	1.3	20	18	8	1.3	21.5	26.0	1	1.203	0.001	D	18	21.5	459.944	462.043	463.246	463.248	0
1	22071803	128	Low	10.0	Precise	1	18	17	1	21.5	22.5	2.2	1	18	17	2.2	21.5	22.5	1	0.719	0.001	D	18	21.5	463.751	464.511	465.230	465.232	0
1	22071803	129	Low	10.0	Precise	1	8	15	7	26.0	31.3	2.5	7	15	8	2.5	31.3	26.0	2	1.035	0.000	D	15	31.3	465.735	467.331	468.366	468.368	0
1	22071803	130	Low	10.0	Vague	2	12	15	20	28.0	31.3	1.3	20	12	15	1.3	28.0	31.3	2	0.617	0.001	R	15	31.3	468.871	471.253	471.870	471.872	0
1	22071803	131	Low	10.0	Vague	2	18	12	28	21.5	28.0	8.2	28	12	18	8.2	28.0	21.5	2	1.224	0.001	D	12	28.0	472.375	475.014	476.238	476.240	0
1	22071803	132	Low	10.0	Vague	2	17	12	26	22.5	28.0	10.7	12	26	17	28.0	10.7	22.5	2	1.042	0.001	L	12	28.0	476.743	477.676	478.718	478.720	0
1	22071803	133	Low	10.0	Precise	1	12	16	10	28.0	35.5	16.5	16	12	10	35.5	28.0	16.5	2	0.631	0.000	L	16	35.5	479.223	480.199	480.830	480.832	0
1	22071803	134	Low	10.0	Vague	2	17	15	21	22.5	31.3	1.9	17	15	21	22.5	31.3	1.9	2	0.564	0.001	D	15	31.3	481.336	484.090	484.654	484.656	0
1	22071803	135	Low	10.0	Precise	1	18	15	10	21.5	31.3	16.5	18	10	15	21.5	16.5	31.3	2	0.561	0.000	R	15	31.3	485.159	487.309	487.870	487.872	0
1	22071803	136	Low	10.0	Precise	1	17	15	11	22.5	31.3	13.5	15	11	17	31.3	13.5	22.5	2	0.757	0.000	L	15	31.3	488.375	491.241	491.998	492.000	0
1	22071803	137	Low	10.0	Precise	1	8	15	14	26.0	31.3	21.3	8	14	15	26.0	21.3	31.3	2	0.834	0.000	R	15	31.3	492.503	493.484	494.318	494.320	0
1	22071803	138	Low	10.0	Vague	2	8	15	31	26.0	31.3	14.0	31	8	15	14.0	26.0	31.3	2	0.501	0.000	R	15	31.3	494.823	495.640	496.142	496.144	0
1	22071803	139	Low	10.0	Vague	2	17	15	28	22.5	31.3	8.2	17	28	15	22.5	8.2	31.3	2	0.545	0.000	R	15	31.3	496.647	498.413	498.958	498.960	0
1	22071803	140	Low	10.0	Precise	1	12	16	7	28.0	35.5	2.5	16	7	12	35.5	2.5	28.0	2	0.628	0.001	L	16	35.5	499.463	500.442	501.070	501.072	0
1	22071803	141	Low	10.0	Precise	1	18	15	7	21.5	31.3	2.5	7	18	15	2.5	21.5	31.3	2	0.521	0.001	R	15	31.3	501.575	504.484	505.006	505.008	0
1	22071803	142	Low	10.0	Precise	1	17	15	14	22.5	31.3	21.3	14	17	15	21.3	22.5	31.3	2	0.619	0.000	R	15	31.3	505.511	506.243	506.862	506.864	0
1	22071803	143	Low	10.0	Precise	1	17	8	10	22.5	26.0	16.5	10	8	17	16.5	26.0	22.5	2	1.655	0.001	D	8	26.0	507.368	509.591	511.246	511.248	0
1	22071803	144	Low	10.0	Vague	2	18	15	31	21.5	31.3	14.0	31	18	15	14.0	21.5	31.3	2	0.703	0.001	R	15	31.3	511.751	512.959	513.662	513.664	0
1	22071803	145	Low	10.0	Vague	2	17	16	28	22.5	35.5	8.2	28	16	17	8.2	35.5	22.5	2	0.587	0.001	D	16	35.5	514.168	516.195	516.782	516.784	0
1	22071803	146	Low	10.0	Vague	2	18	16	20	21.5	35.5	1.3	16	18	20	35.5	21.5	1.3	2	0.581	0.001	L	16	35.5	517.287	518.649	519.230	519.232	0
1	22071803	147	Low	10.0	Vague	2	8	15	28	26.0	31.3	8.2	15	8	28	31.3	26.0	8.2	2	0.537	0.001	L	15	31.3	519.735	520.533	521.070	521.072	0
1	22071803	148	Low	10.0	Vague	2	18	16	21	21.5	35.5	1.9	21	18	16	1.9	21.5	35.5	2	0.562	0.000	R	16	35.5	521.575	523.756	524.318	524.320	0
1	22071803	149	Low	10.0	Precise	1	8	12	11	26.0	28.0	13.5	11	12	8	13.5	28.0	26.0	2	1.330	0.001	D	12	28.0	524.823	527.740	529.070	529.072	0
1	22071803	150	Low	10.0	Vague	2	15	16	26	31.3	35.5	10.7	26	16	15	10.7	35.5	31.3	2	0.612	0.001	D	16	35.5	529.575	530.378	530.990	530.993	0
1	22071803	151	Low	10.0	Vague	2	12	16	28	28.0	35.5	8.2	12	16	28	28.0	35.5	8.2	2	0.877	0.001	D	16	35.5	531.495	533.601	534.478	534.480	0
1	22071803	152	Low	10.0	Vague	2	18	16	24	21.5	35.5	3.4	16	24	18	35.5	3.4	21.5	2	0.726	0.001	L	16	35.5	534.984	537.080	537.806	537.808	0
1	22071803	153	Low	10.0	Vague	2	18	17	31	21.5	22.5	14.0	17	18	31	22.5	21.5	14.0	1	1.341	0.001	D	18	21.5	538.311	539.121	540.462	540.464	0
1	22071803	154	Low	10.0	Vague	2	8	12	31	26.0	28.0	14.0	8	31	12	26.0	14.0	28.0	2	1.638	0.000	R	12	28.0	540.967	541.752	543.390	543.392	0
1	22071803	155	Low	10.0	Precise	1	18	17	11	21.5	22.5	13.5	17	11	18	22.5	13.5	21.5	1	2.057	0.000	R	18	21.5	543.895	546.036	548.094	548.097	0
1	22071803	156	Low	10.0	Vague	2	12	16	24	28.0	35.5	3.4	16	24	12	35.5	3.4	28.0	2	1.012	0.001	L	16	35.5	548.599	549.274	550.286	550.288	0
1	22071803	157	Low	10.0	Vague	2	8	12	24	26.0	28.0	3.4	12	24	8	28.0	3.4	26.0	2	1.872	0.000	L	12	28.0	550.791	553.550	555.422	555.424	0
1	22071803	158	Low	10.0	Precise	1	18	15	11	21.5	31.3	13.5	18	15	11	21.5	31.3	13.5	2	0.906	0.001	D	15	31.3	555.927	558.420	559.326	559.328	0
1	22071803	159	Low	10.0	Vague	2	18	12	31	21.5	28.0	14.0	18	31	12	21.5	14.0	28.0	1	1.773	0.001	L	18	21.5	559.831	561.841	563.614	563.616	0
1	22071803	160	Low	10.0	Precise	1	17	8	7	22.5	26.0	2.5	8	17	7	26.0	22.5	2.5	2	1.458	0.000	L	8	26.0	564.119	566.076	567.534	567.536	0
1	22071803	161	Low	10.0	Precise	1	17	8	11	22.5	26.0	13.5	8	17	11	26.0	22.5	13.5	2	0.526	0.000	L	8	26.0	568.039	570.000	570.526	570.528	0
1	22071803	162	Low	10.0	Vague	2	17	16	31	22.5	35.5	14.0	17	31	16	22.5	14.0	35.5	2	0.535	0.001	R	16	35.5	571.031	572.535	573.070	573.072	0
1	22071803	163	Low	10.0	Precise	1	17	12	14	22.5	28.0	21.3	17	12	14	22.5	28.0	21.3	2	0.902	0.001	D	12	28.0	573.575	574.296	575.198	575.200	0
1	22071803	164	Low	10.0	Precise	1	18	12	10	21.5	28.0	16.5	10	18	12	16.5	21.5	28.0	1	1.258	0.001	D	18	21.5	575.703	578.020	579.278	579.280	0
1	22071803	165	Low	10.0	Precise	1	18	12	13	21.5	28.0	7.2	13	12	18	7.2	28.0	21.5	1	0.833	0.001	R	18	21.5	579.783	580.317	581.150	581.153	0
1	22071803	166	Low	10.0	Vague	2	17	8	28	22.5	26.0	8.2	8	28	17	26.0	8.2	22.5	2	1.545	0.001	L	8	26.0	581.656	583.189	584.734	584.736	0
1	22071803	167	Low	10.0	Precise	1	17	12	7	22.5	28.0	2.5	7	17	12	2.5	22.5	28.0	2	0.890	0.001	R	12	28.0	585.239	586.388	587.278	587.280	0
1	22071803	168	Low	10.0	Precise	1	18	15	1	21.5	31.3	2.2	18	1	15	21.5	2.2	31.3	2	0.921	0.000	R	15	31.3	587.783	589.285	590.206	590.208	0
1	22071803	169	Low	10.0	Vague	2	15	16	28	31.3	35.5	8.2	16	28	15	35.5	8.2	31.3	2	1.158	0.001	L	16	35.5	590.711	593.288	594.446	594.448	0
1	22071803	170	Low	10.0	Vague	2	17	16	24	22.5	35.5	3.4	24	17	16	3.4	22.5	35.5	2	0.773	0.001	R	16	35.5	594.952	595.545	596.318	596.320	0
1	22071803	171	Low	10.0	Precise	1	17	15	1	22.5	31.3	2.2	15	1	17	31.3	2.2	22.5	2	0.772	0.000	L	15	31.3	596.824	598.777	599.550	599.552	0
1	22071803	172	Low	10.0	Precise	1	18	16	10	21.5	35.5	16.5	10	16	18	16.5	35.5	21.5	2	0.947	0.001	D	16	35.5	600.055	600.731	601.678	601.680	0
1	22071803	173	Low	10.0	Precise	1	17	16	11	22.5	35.5	13.5	16	17	11	35.5	22.5	13.5	2	1.101	0.000	L	16	35.5	602.183	603.473	604.574	604.576	0
1	22071803	174	Low	10.0	Vague	2	17	8	20	22.5	26.0	1.3	8	17	20	26.0	22.5	1.3	2	1.206	0.001	L	8	26.0	605.079	606.440	607.646	607.648	0
1	22071803	175	Low	10.0	Precise	1	8	16	7	26.0	35.5	2.5	16	8	7	35.5	26.0	2.5	2	0.837	0.001	L	16	35.5	608.151	609.673	610.510	610.512	0
1	22071803	176	Low	10.0	Precise	1	17	8	14	22.5	26.0	21.3	14	8	17	21.3	26.0	22.5	2	1.539	0.001	D	8	26.0	611.015	611.995	613.534	613.536	0
1	22071803	177	Low	10.0	Precise	1	17	16	10	22.5	35.5	16.5	17	10	16	22.5	16.5	35.5	2	0.551	0.001	R	16	35.5	614.039	616.967	617.518	617.521	0
1	22071803	178	Low	10.0	Vague	2	18	17	28	21.5	22.5	8.2	28	18	17	8.2	21.5	22.5	1	1.195	0.001	D	18	21.5	618.023	620.931	622.126	622.129	0
1	22071803	179	Low	10.0	Vague	2	15	16	20	31.3	35.5	1.3	15	16	20	31.3	35.5	1.3	2	1.304	0.000	D	16	35.5	622.632	623.830	625.134	625.137	0
1	22071803	180	Low	10.0	Vague	2	8	16	28	26.0	35.5	8.2	8	16	28	26.0	35.5	8.2	2	0.810	0.001	D	16	35.5	625.639	626.596	627.406	627.408	0
1	22071803	181	High	1.5	Vague	2	12	16	27	28.0	35.5	17.6	27	16	12	17.6	35.5	28.0	2	0.609	0.001	D	16	35.5	668.172	670.733	671.342	671.344	0
1	22071803	182	High	1.5	Precise	1	12	16	3	28.0	35.5	2.4	12	16	3	28.0	35.5	2.4	2	0.614	0.001	D	16	35.5	671.848	673.417	674.030	674.033	0
1	22071803	183	High	1.5	Precise	1	18	16	9	21.5	35.5	16.9	16	18	9	35.5	21.5	16.9	2	0.494	0.000	L	16	35.5	674.535	676.112	676.606	676.608	0
1	22071803	184	High	1.5	Vague	2	8	12	19	26.0	28.0	2.0	19	8	12	2.0	26.0	28.0	2	1.422	0.000	R	12	28.0	677.111	677.968	679.390	679.392	0
1	22071803	185	High	1.5	Precise	1	17	12	3	22.5	28.0	2.4	12	3	17	28.0	2.4	22.5	2	0.657	0.001	L	12	28.0	679.895	681.501	682.158	682.160	0
1	22071803	186	High	1.5	Vague	2	18	12	23	21.5	28.0	1.6	18	12	23	21.5	28.0	1.6	2	0.916	0.001	D	12	28.0	682.664	683.818	684.734	684.737	0
1	22071803	187	High	1.5	Precise	1	18	17	2	21.5	22.5	1.9	17	18	2	22.5	21.5	1.9	1	0.615	0.001	D	18	21.5	685.240	688.040	688.654	688.656	0
1	22071803	188	High	1.5	Vague	2	18	15	22	21.5	31.3	8.3	22	15	18	8.3	31.3	21.5	2	0.782	0.000	D	15	31.3	689.160	690.608	691.390	691.392	0
1	22071803	189	High	1.5	Vague	2	17	12	29	22.5	28.0	13.7	12	29	17	28.0	13.7	22.5	2	0.635	0.001	L	12	28.0	691.895	693.315	693.950	693.952	0
1	22071803	190	High	1.5	Precise	1	17	12	2	22.5	28.0	1.9	12	17	2	28.0	22.5	1.9	2	0.837	0.000	L	12	28.0	694.455	695.753	696.590	696.592	0
1	22071803	191	High	1.5	Precise	1	12	16	4	28.0	35.5	14.8	12	4	16	28.0	14.8	35.5	2	0.638	0.000	R	16	35.5	697.095	699.872	700.510	700.512	0
1	22071803	192	High	1.5	Vague	2	8	16	22	26.0	35.5	8.3	16	22	8	35.5	8.3	26.0	2	0.544	0.001	L	16	35.5	701.015	701.710	702.254	702.256	0
1	22071803	193	High	1.5	Precise	1	17	8	2	22.5	26.0	1.9	8	2	17	26.0	1.9	22.5	2	1.004	0.000	L	8	26.0	702.759	703.986	704.990	704.992	0
1	22071803	194	High	1.5	Precise	1	18	15	3	21.5	31.3	2.4	3	15	18	2.4	31.3	21.5	2	0.787	0.001	D	15	31.3	705.495	707.531	708.318	708.321	0
1	22071803	195	High	1.5	Precise	1	8	15	9	26.0	31.3	16.9	15	8	9	31.3	26.0	16.9	2	0.587	0.000	L	15	31.3	708.824	709.811	710.398	710.400	0
1	22071803	196	High	1.5	Precise	1	12	15	9	28.0	31.3	16.9	15	12	9	31.3	28.0	16.9	2	0.523	0.000	L	15	31.3	710.903	712.099	712.622	712.624	0
1	22071803	197	High	1.5	Precise	1	8	16	2	26.0	35.5	1.9	2	8	16	1.9	26.0	35.5	2	0.630	0.000	R	16	35.5	713.127	714.360	714.990	714.992	0
1	22071803	198	High	1.5	Precise	1	18	17	3	21.5	22.5	2.4	18	17	3	21.5	22.5	2.4	1	1.011	0.000	L	18	21.5	715.495	717.243	718.254	718.256	0
1	22071803	199	High	1.5	Precise	1	17	16	5	22.5	35.5	7.8	16	5	17	35.5	7.8	22.5	2	0.481	0.001	L	16	35.5	718.759	721.645	722.126	722.128	0
1	22071803	200	High	1.5	Precise	1	12	16	2	28.0	35.5	1.9	16	12	2	35.5	28.0	1.9	2	0.466	0.000	L	16	35.5	722.631	723.675	724.142	724.144	0
1	22071803	201	High	1.5	Vague	2	12	16	23	28.0	35.5	1.6	23	16	12	1.6	35.5	28.0	2	0.561	0.001	D	16	35.5	724.647	725.741	726.302	726.304	0
1	22071803	202	High	1.5	Vague	2	17	16	23	22.5	35.5	1.6	23	17	16	1.6	22.5	35.5	2	0.538	0.000	R	16	35.5	726.808	727.877	728.414	728.416	0
1	22071803	203	High	1.5	Vague	2	8	12	29	26.0	28.0	13.7	29	12	8	13.7	28.0	26.0	2	0.802	0.001	D	12	28.0	728.919	730.396	731.198	731.200	0
1	22071803	204	High	1.5	Vague	2	18	12	22	21.5	28.0	8.3	22	18	12	8.3	21.5	28.0	1	0.710	0.000	D	18	21.5	731.704	732.520	733.230	733.232	0
1	22071803	205	High	1.5	Precise	1	8	15	4	26.0	31.3	14.8	15	8	4	31.3	26.0	14.8	2	0.543	0.001	L	15	31.3	733.735	735.487	736.030	736.033	0
1	22071803	206	High	1.5	Precise	1	8	15	2	26.0	31.3	1.9	2	8	15	1.9	26.0	31.3	2	0.561	0.001	R	15	31.3	736.536	739.357	739.918	739.920	0
1	22071803	207	High	1.5	Precise	1	17	8	6	22.5	26.0	3.3	6	17	8	3.3	22.5	26.0	2	1.370	0.001	R	8	26.0	740.424	742.900	744.270	744.272	0
1	22071803	208	High	1.5	Precise	1	17	16	4	22.5	35.5	14.8	16	17	4	35.5	22.5	14.8	2	0.544	0.000	L	16	35.5	744.776	746.910	747.454	747.456	0
1	22071803	209	High	1.5	Vague	2	12	16	30	28.0	35.5	6.6	12	30	16	28.0	6.6	35.5	2	0.543	0.001	R	16	35.5	747.959	750.575	751.118	751.120	0
1	22071803	210	High	1.5	Precise	1	8	12	9	26.0	28.0	16.9	9	12	8	16.9	28.0	26.0	3	1.278	0.000	L	9	16.9	751.624	753.103	754.382	754.384	0
1	22071803	211	High	1.5	Vague	2	17	15	19	22.5	31.3	2.0	15	17	19	31.3	22.5	2.0	2	0.585	0.000	L	15	31.3	754.887	756.132	756.718	756.720	0
1	22071803	212	High	1.5	Vague	2	17	16	19	22.5	35.5	2.0	19	17	16	2.0	22.5	35.5	2	0.590	0.001	R	16	35.5	757.223	759.440	760.030	760.033	0
1	22071803	213	High	1.5	Precise	1	8	15	3	26.0	31.3	2.4	3	8	15	2.4	26.0	31.3	2	0.561	0.000	R	15	31.3	760.535	763.245	763.806	763.808	0
1	22071803	214	High	1.5	Precise	1	17	8	3	22.5	26.0	2.4	8	17	3	26.0	22.5	2.4	2	1.087	0.001	L	8	26.0	764.311	766.671	767.758	767.760	0
1	22071803	215	High	1.5	Precise	1	18	8	2	21.5	26.0	1.9	18	8	2	21.5	26.0	1.9	1	1.321	0.001	L	18	21.5	768.263	768.805	770.126	770.128	0
1	22071803	216	High	1.5	Precise	1	18	8	4	21.5	26.0	14.8	8	4	18	26.0	14.8	21.5	2	1.069	0.001	L	8	26.0	770.631	772.577	773.646	773.649	0
1	22071803	217	High	1.5	Vague	2	18	17	22	21.5	22.5	8.3	18	22	17	21.5	8.3	22.5	1	0.829	0.000	L	18	21.5	774.152	775.024	775.854	775.856	0
1	22071803	218	High	1.5	Vague	2	18	16	30	21.5	35.5	6.6	18	30	16	21.5	6.6	35.5	2	0.466	0.001	R	16	35.5	776.359	778.813	779.278	779.280	0
1	22071803	219	High	1.5	Vague	2	17	16	22	22.5	35.5	8.3	16	17	22	35.5	22.5	8.3	2	0.514	0.000	L	16	35.5	779.784	781.644	782.158	782.160	0
1	22071803	220	High	1.5	Vague	2	18	17	23	21.5	22.5	1.6	23	18	17	1.6	21.5	22.5	1	0.871	0.001	D	18	21.5	782.663	783.671	784.542	784.544	0
1	22071803	221	High	1.5	Precise	1	8	16	4	26.0	35.5	14.8	16	4	8	35.5	14.8	26.0	2	0.556	0.000	L	16	35.5	785.047	787.538	788.094	788.096	0
1	22071803	222	High	1.5	Precise	1	12	15	4	28.0	31.3	14.8	15	12	4	31.3	28.0	14.8	2	0.663	0.001	L	15	31.3	788.599	789.495	790.158	790.160	0
1	22071803	223	High	1.5	Vague	2	18	17	27	21.5	22.5	17.6	18	17	27	21.5	22.5	17.6	1	0.800	0.001	L	18	21.5	790.663	791.406	792.206	792.208	0
1	22071803	224	High	1.5	Vague	2	8	12	23	26.0	28.0	1.6	8	23	12	26.0	1.6	28.0	2	0.973	0.000	R	12	28.0	792.711	794.161	795.134	795.136	0
1	22071803	225	High	1.5	Precise	1	15	16	2	31.3	35.5	1.9	16	15	2	35.5	31.3	1.9	2	0.524	0.000	L	16	35.5	795.639	796.433	796.958	796.961	0
1	22071803	226	High	1.5	Vague	2	8	16	30	26.0	35.5	6.6	16	30	8	35.5	6.6	26.0	2	1.215	0.001	L	16	35.5	797.463	797.983	799.198	799.201	0
1	22071803	227	High	1.5	Vague	2	17	12	23	22.5	28.0	1.6	23	12	17	1.6	28.0	22.5	2	0.846	0.001	D	12	28.0	799.704	802.112	802.958	802.960	0
1	22071803	228	High	1.5	Precise	1	15	16	5	31.3	35.5	7.8	16	5	15	35.5	7.8	31.3	1	0.777	0.000	R	15	31.3	803.463	806.021	806.798	806.800	0
1	22071803	229	High	1.5	Vague	2	17	12	19	22.5	28.0	2.0	17	12	19	22.5	28.0	2.0	2	0.733	0.001	D	12	28.0	807.303	808.081	808.814	808.817	0
1	22071803	230	High	1.5	Precise	1	17	15	2	22.5	31.3	1.9	2	15	17	1.9	31.3	22.5	2	0.615	0.001	D	15	31.3	809.319	810.887	811.502	811.504	0
1	22071803	231	High	1.5	Precise	1	17	12	9	22.5	28.0	16.9	17	9	12	22.5	16.9	28.0	3	1.395	0.001	D	9	16.9	812.008	814.411	815.806	815.808	0
1	22071803	232	High	1.5	Vague	2	18	15	29	21.5	31.3	13.7	29	18	15	13.7	21.5	31.3	2	0.626	0.000	R	15	31.3	816.311	817.756	818.382	818.384	0
1	22071803	233	High	1.5	Precise	1	18	17	4	21.5	22.5	14.8	18	17	4	21.5	22.5	14.8	1	1.012	0.001	L	18	21.5	818.888	820.106	821.118	821.120	0
1	22071803	234	High	1.5	Vague	2	15	16	23	31.3	35.5	1.6	16	23	15	35.5	1.6	31.3	1	0.853	0.000	R	15	31.3	821.624	822.456	823.310	823.312	0
1	22071803	235	High	1.5	Precise	1	12	16	9	28.0	35.5	16.9	12	9	16	28.0	16.9	35.5	2	0.854	0.000	R	16	35.5	823.815	826.776	827.630	827.632	0
1	22071803	236	High	1.5	Vague	2	18	15	19	21.5	31.3	2.0	15	19	18	31.3	2.0	21.5	2	0.616	0.001	L	15	31.3	828.135	829.878	830.494	830.497	0
1	22071803	237	High	1.5	Vague	2	18	12	19	21.5	28.0	2.0	12	18	19	28.0	21.5	2.0	2	0.913	0.000	L	12	28.0	830.999	833.645	834.558	834.561	0
1	22071803	238	High	1.5	Vague	2	8	16	27	26.0	35.5	17.6	8	27	16	26.0	17.6	35.5	2	0.735	0.000	R	16	35.5	835.064	837.295	838.030	838.032	0
1	22071803	239	High	1.5	Precise	1	18	8	3	21.5	26.0	2.4	8	18	3	26.0	21.5	2.4	2	0.791	0.001	L	8	26.0	838.535	839.287	840.078	840.080	0
1	22071803	240	High	1.5	Precise	1	18	16	2	21.5	35.5	1.9	2	16	18	1.9	35.5	21.5	2	0.898	0.001	D	16	35.5	840.584	843.068	843.966	843.968	0
1	22071803	241	High	1.5	Vague	2	17	8	22	22.5	26.0	8.3	8	22	17	26.0	8.3	22.5	2	1.203	0.000	L	8	26.0	858.940	860.730	861.934	861.936	0
1	22071803	242	High	1.5	Vague	2	17	8	29	22.5	26.0	13.7	8	29	17	26.0	13.7	22.5	3	0.727	0.000	D	29	13.7	862.439	863.703	864.430	864.432	0
1	22071803	243	High	1.5	Precise	1	17	16	3	22.5	35.5	2.4	17	16	3	22.5	35.5	2.4	2	0.692	0.000	D	16	35.5	864.935	866.698	867.390	867.393	0
1	22071803	244	High	1.5	Precise	1	8	15	6	26.0	31.3	3.3	6	15	8	3.3	31.3	26.0	2	0.697	0.000	D	15	31.3	867.895	869.637	870.334	870.336	0
1	22071803	245	High	1.5	Precise	1	17	16	2	22.5	35.5	1.9	17	2	16	22.5	1.9	35.5	2	0.528	0.000	R	16	35.5	870.839	872.670	873.198	873.200	0
1	22071803	246	High	1.5	Vague	2	17	12	27	22.5	28.0	17.6	17	12	27	22.5	28.0	17.6	2	0.819	0.001	D	12	28.0	873.703	874.828	875.646	875.649	0
1	22071803	247	High	1.5	Vague	2	15	16	27	31.3	35.5	17.6	15	27	16	31.3	17.6	35.5	1	1.095	0.000	L	15	31.3	876.151	877.511	878.606	878.609	0
1	22071803	248	High	1.5	Precise	1	15	16	4	31.3	35.5	14.8	15	4	16	31.3	14.8	35.5	2	0.955	0.000	R	16	35.5	879.112	880.563	881.518	881.520	0
1	22071803	249	High	1.5	Precise	1	17	15	6	22.5	31.3	3.3	6	17	15	3.3	22.5	31.3	2	0.537	0.001	R	15	31.3	882.023	883.829	884.366	884.368	0
1	22071803	250	High	1.5	Precise	1	17	8	5	22.5	26.0	7.8	17	5	8	22.5	7.8	26.0	2	1.036	0.001	R	8	26.0	884.871	887.170	888.206	888.209	0
1	22071803	251	High	1.5	Vague	2	8	15	30	26.0	31.3	6.6	30	8	15	6.6	26.0	31.3	2	0.568	0.001	R	15	31.3	888.711	890.518	891.086	891.089	0
1	22071803	252	High	1.5	Precise	1	17	15	5	22.5	31.3	7.8	5	15	17	7.8	31.3	22.5	2	0.561	0.000	D	15	31.3	891.592	893.341	893.902	893.905	0
1	22071803	253	High	1.5	Precise	1	15	16	3	31.3	35.5	2.4	16	15	3	35.5	31.3	2.4	2	0.595	0.001	L	16	35.5	894.408	896.747	897.342	897.345	0
1	22071803	254	High	1.5	Vague	2	18	16	22	21.5	35.5	8.3	16	18	22	35.5	21.5	8.3	2	0.632	0.000	L	16	35.5	897.847	899.910	900.542	900.544	0
1	22071803	255	High	1.5	Precise	1	17	12	6	22.5	28.0	3.3	6	17	12	3.3	22.5	28.0	2	0.924	0.001	R	12	28.0	901.047	902.786	903.710	903.713	0
1	22071803	256	High	1.5	Vague	2	12	16	22	28.0	35.5	8.3	16	22	12	35.5	8.3	28.0	2	0.598	0.000	L	16	35.5	904.215	905.064	905.662	905.664	0
1	22071803	257	High	1.5	Precise	1	8	12	3	26.0	28.0	2.4	3	12	8	2.4	28.0	26.0	NaN	NaN	NaN	NaN	NaN	NaN	906.167	907.285	NaN	908.775	1
1	22071803	258	High	1.5	Vague	2	8	12	30	26.0	28.0	6.6	30	8	12	6.6	26.0	28.0	2	1.093	0.001	R	12	28.0	910.780	912.793	913.886	913.890	0
1	22071803	259	High	1.5	Precise	1	17	15	9	22.5	31.3	16.9	17	9	15	22.5	16.9	31.3	2	0.569	0.000	R	15	31.3	914.393	916.373	916.942	916.945	0
1	22071803	260	High	1.5	Precise	1	17	8	4	22.5	26.0	14.8	17	4	8	22.5	14.8	26.0	2	0.758	0.000	R	8	26.0	917.448	919.416	920.174	920.177	0
1	22071803	261	High	1.5	Vague	2	17	8	30	22.5	26.0	6.6	30	8	17	6.6	26.0	22.5	2	0.983	0.000	D	8	26.0	920.680	922.391	923.374	923.377	0
1	22071803	262	High	1.5	Vague	2	12	16	29	28.0	35.5	13.7	29	12	16	13.7	28.0	35.5	2	0.710	0.000	R	16	35.5	923.879	924.392	925.102	925.105	0
1	22071803	263	High	1.5	Vague	2	18	15	27	21.5	31.3	17.6	18	15	27	21.5	31.3	17.6	2	0.664	0.001	D	15	31.3	925.607	926.982	927.646	927.648	0
1	22071803	264	High	1.5	Precise	1	15	16	6	31.3	35.5	3.3	16	15	6	35.5	31.3	3.3	2	0.539	0.000	L	16	35.5	928.151	930.563	931.102	931.104	0
1	22071803	265	High	1.5	Precise	1	18	15	6	21.5	31.3	3.3	15	6	18	31.3	3.3	21.5	2	0.566	0.001	L	15	31.3	931.607	933.624	934.190	934.193	0
1	22071803	266	High	1.5	Precise	1	18	17	6	21.5	22.5	3.3	6	17	18	3.3	22.5	21.5	1	0.576	0.001	R	18	21.5	934.696	936.270	936.846	936.849	0
1	22071803	267	High	1.5	Precise	1	18	15	2	21.5	31.3	1.9	18	15	2	21.5	31.3	1.9	2	0.586	0.000	D	15	31.3	937.352	940.004	940.590	940.592	0
1	22071803	268	High	1.5	Precise	1	8	16	9	26.0	35.5	16.9	8	16	9	26.0	35.5	16.9	2	0.575	0.000	D	16	35.5	941.095	942.847	943.422	943.425	0
1	22071803	269	High	1.5	Vague	2	12	15	27	28.0	31.3	17.6	27	12	15	17.6	28.0	31.3	2	0.446	0.001	R	15	31.3	943.928	945.792	946.238	946.241	0
1	22071803	270	High	1.5	Precise	1	17	8	9	22.5	26.0	16.9	8	9	17	26.0	16.9	22.5	3	0.588	0.001	D	9	16.9	946.743	949.218	949.806	949.808	0
1	22071803	271	High	1.5	Vague	2	12	16	19	28.0	35.5	2.0	12	19	16	28.0	2.0	35.5	2	0.434	0.000	R	16	35.5	950.312	952.652	953.086	953.088	0
1	22071803	272	High	1.5	Vague	2	18	12	30	21.5	28.0	6.6	18	30	12	21.5	6.6	28.0	2	0.601	0.000	R	12	28.0	953.591	955.317	955.918	955.920	0
1	22071803	273	High	1.5	Precise	1	8	12	5	26.0	28.0	7.8	12	8	5	28.0	26.0	7.8	1	0.848	0.000	D	8	26.0	956.423	957.342	958.190	958.192	0
1	22071803	274	High	1.5	Vague	2	15	16	30	31.3	35.5	6.6	15	30	16	31.3	6.6	35.5	2	0.546	0.000	R	16	35.5	958.695	960.988	961.534	961.536	0
1	22071803	275	High	1.5	Precise	1	8	15	5	26.0	31.3	7.8	8	5	15	26.0	7.8	31.3	2	0.570	0.000	R	15	31.3	962.040	963.876	964.446	964.449	0
1	22071803	276	High	1.5	Vague	2	15	16	29	31.3	35.5	13.7	15	29	16	31.3	13.7	35.5	2	0.572	0.000	R	16	35.5	964.951	965.826	966.398	966.400	0
1	22071803	277	High	1.5	Vague	2	15	16	19	31.3	35.5	2.0	15	16	19	31.3	35.5	2.0	NaN	NaN	NaN	NaN	NaN	NaN	966.903	968.619	NaN	970.105	1
1	22071803	278	High	1.5	Vague	2	17	15	29	22.5	31.3	13.7	17	29	15	22.5	13.7	31.3	2	0.514	0.000	R	15	31.3	972.109	974.413	974.926	974.929	0
1	22071803	279	High	1.5	Precise	1	18	12	4	21.5	28.0	14.8	18	12	4	21.5	28.0	14.8	2	0.912	0.001	D	12	28.0	975.432	976.414	977.326	977.328	0
1	22071803	280	High	1.5	Precise	1	18	16	6	21.5	35.5	3.3	18	16	6	21.5	35.5	3.3	2	0.632	0.001	D	16	35.5	977.831	978.582	979.214	979.217	0
1	22071803	281	High	1.5	Vague	2	8	12	22	26.0	28.0	8.3	22	12	8	8.3	28.0	26.0	1	0.601	0.000	R	8	26.0	979.720	980.805	981.406	981.408	0
1	22071803	282	High	1.5	Precise	1	18	16	5	21.5	35.5	7.8	16	5	18	35.5	7.8	21.5	2	0.534	0.000	L	16	35.5	981.911	982.952	983.486	983.488	0
1	22071803	283	High	1.5	Precise	1	18	12	6	21.5	28.0	3.3	12	18	6	28.0	21.5	3.3	2	0.688	0.000	L	12	28.0	983.991	985.486	986.174	986.177	0
1	22071803	284	High	1.5	Vague	2	12	15	29	28.0	31.3	13.7	29	12	15	13.7	28.0	31.3	2	0.819	0.001	R	15	31.3	986.679	988.315	989.134	989.136	0
1	22071803	285	High	1.5	Precise	1	18	15	5	21.5	31.3	7.8	18	15	5	21.5	31.3	7.8	2	0.523	0.001	D	15	31.3	989.640	991.651	992.174	992.177	0
1	22071803	286	High	1.5	Precise	1	15	16	9	31.3	35.5	16.9	15	9	16	31.3	16.9	35.5	2	0.819	0.001	R	16	35.5	992.679	995.467	996.286	996.288	0
1	22071803	287	High	1.5	Precise	1	18	8	5	21.5	26.0	7.8	18	5	8	21.5	7.8	26.0	2	1.066	0.001	R	8	26.0	996.792	998.548	999.614	999.617	0
1	22071803	288	High	1.5	Precise	1	12	15	2	28.0	31.3	1.9	12	15	2	28.0	31.3	1.9	2	0.619	0.001	D	15	31.3	1000.119	1002.307	1002.926	1002.928	0
1	22071803	289	High	1.5	Precise	1	12	16	5	28.0	35.5	7.8	5	16	12	7.8	35.5	28.0	2	0.763	0.001	D	16	35.5	1003.431	1004.644	1005.406	1005.409	0
1	22071803	290	High	1.5	Precise	1	8	12	2	26.0	28.0	1.9	2	12	8	1.9	28.0	26.0	1	0.685	0.000	R	8	26.0	1005.913	1007.537	1008.222	1008.224	0
1	22071803	291	High	1.5	Precise	1	18	17	5	21.5	22.5	7.8	17	5	18	22.5	7.8	21.5	1	0.883	0.001	R	18	21.5	1008.727	1010.251	1011.134	1011.137	0
1	22071803	292	High	1.5	Precise	1	18	12	9	21.5	28.0	16.9	9	18	12	16.9	21.5	28.0	2	0.531	0.001	R	12	28.0	1011.639	1012.491	1013.022	1013.024	0
1	22071803	293	High	1.5	Vague	2	18	16	19	21.5	35.5	2.0	16	19	18	35.5	2.0	21.5	2	0.636	0.000	L	16	35.5	1013.527	1015.859	1016.494	1016.496	0
1	22071803	294	High	1.5	Precise	1	18	8	6	21.5	26.0	3.3	18	6	8	21.5	3.3	26.0	1	0.941	0.000	L	18	21.5	1017.000	1018.257	1019.198	1019.200	0
1	22071803	295	High	1.5	Vague	2	17	15	23	22.5	31.3	1.6	17	15	23	22.5	31.3	1.6	2	0.627	0.001	D	15	31.3	1019.703	1022.235	1022.862	1022.865	0
1	22071803	296	High	1.5	Precise	1	8	12	6	26.0	28.0	3.3	12	8	6	28.0	26.0	3.3	2	1.028	0.000	L	12	28.0	1023.368	1026.042	1027.070	1027.072	0
1	22071803	297	High	1.5	Precise	1	8	12	4	26.0	28.0	14.8	12	4	8	28.0	14.8	26.0	2	0.709	0.000	L	12	28.0	1027.575	1030.441	1031.150	1031.152	0
1	22071803	298	High	1.5	Precise	1	18	15	9	21.5	31.3	16.9	18	9	15	21.5	16.9	31.3	2	0.595	0.001	R	15	31.3	1031.655	1032.699	1033.294	1033.296	0
1	22071803	299	High	1.5	Vague	2	17	8	27	22.5	26.0	17.6	8	17	27	26.0	22.5	17.6	2	0.650	0.001	L	8	26.0	1033.799	1035.540	1036.190	1036.192	0
1	22071803	300	High	1.5	Precise	1	18	12	2	21.5	28.0	1.9	2	12	18	1.9	28.0	21.5	1	0.567	0.001	R	18	21.5	1036.695	1038.503	1039.070	1039.073	0
1	22071803	301	High	1.5	Precise	1	17	12	5	22.5	28.0	7.8	17	12	5	22.5	28.0	7.8	2	0.672	0.001	D	12	28.0	1062.925	1065.102	1065.774	1065.777	0
1	22071803	302	High	1.5	Vague	2	12	15	23	28.0	31.3	1.6	15	12	23	31.3	28.0	1.6	2	0.656	0.000	L	15	31.3	1066.279	1069.086	1069.742	1069.744	0
1	22071803	303	High	1.5	Vague	2	8	15	29	26.0	31.3	13.7	8	15	29	26.0	31.3	13.7	2	0.695	0.000	D	15	31.3	1070.247	1070.983	1071.678	1071.680	0
1	22071803	304	High	1.5	Vague	2	8	15	19	26.0	31.3	2.0	15	8	19	31.3	26.0	2.0	2	0.511	0.000	L	15	31.3	1072.183	1074.607	1075.118	1075.121	0
1	22071803	305	High	1.5	Vague	2	15	16	22	31.3	35.5	8.3	15	16	22	31.3	35.5	8.3	1	0.587	0.000	L	15	31.3	1075.624	1077.907	1078.494	1078.496	0
1	22071803	306	High	1.5	Vague	2	18	8	27	21.5	26.0	17.6	18	8	27	21.5	26.0	17.6	1	0.766	0.000	L	18	21.5	1078.999	1079.968	1080.734	1080.736	0
1	22071803	307	High	1.5	Precise	1	12	15	6	28.0	31.3	3.3	15	6	12	31.3	3.3	28.0	2	0.556	0.001	L	15	31.3	1081.240	1083.442	1083.998	1084.001	0
1	22071803	308	High	1.5	Vague	2	8	12	27	26.0	28.0	17.6	27	8	12	17.6	26.0	28.0	2	1.174	0.000	R	12	28.0	1084.504	1085.832	1087.006	1087.008	0
1	22071803	309	High	1.5	Vague	2	12	15	30	28.0	31.3	6.6	30	12	15	6.6	28.0	31.3	2	0.610	0.001	R	15	31.3	1087.511	1089.628	1090.238	1090.241	0
1	22071803	310	High	1.5	Precise	1	17	15	4	22.5	31.3	14.8	17	15	4	22.5	31.3	14.8	2	0.618	0.001	D	15	31.3	1090.743	1093.621	1094.238	1094.241	0
1	22071803	311	High	1.5	Vague	2	18	16	23	21.5	35.5	1.6	23	18	16	1.6	21.5	35.5	2	0.797	0.000	R	16	35.5	1094.744	1095.473	1096.270	1096.272	0
1	22071803	312	High	1.5	Precise	1	17	16	9	22.5	35.5	16.9	17	16	9	22.5	35.5	16.9	2	0.608	0.001	D	16	35.5	1096.776	1097.470	1098.078	1098.081	0
1	22071803	313	High	1.5	Vague	2	17	16	30	22.5	35.5	6.6	16	30	17	35.5	6.6	22.5	2	0.500	0.001	L	16	35.5	1098.584	1101.115	1101.614	1101.617	0
1	22071803	314	High	1.5	Precise	1	18	12	5	21.5	28.0	7.8	12	5	18	28.0	7.8	21.5	3	0.620	0.000	D	5	7.8	1102.119	1104.546	1105.166	1105.168	0
1	22071803	315	High	1.5	Precise	1	17	12	4	22.5	28.0	14.8	4	17	12	14.8	22.5	28.0	2	0.769	0.000	R	12	28.0	1105.671	1106.829	1107.598	1107.600	0
1	22071803	316	High	1.5	Vague	2	18	17	30	21.5	22.5	6.6	17	18	30	22.5	21.5	6.6	1	1.208	0.000	D	18	21.5	1108.103	1110.838	1112.046	1112.048	0
1	22071803	317	High	1.5	Vague	2	12	15	19	28.0	31.3	2.0	12	15	19	28.0	31.3	2.0	2	0.583	0.001	D	15	31.3	1112.552	1114.584	1115.166	1115.169	0
1	22071803	318	High	1.5	Precise	1	8	16	3	26.0	35.5	2.4	8	16	3	26.0	35.5	2.4	2	0.553	0.001	D	16	35.5	1115.671	1118.453	1119.006	1119.009	0
1	22071803	319	High	1.5	Vague	2	18	17	29	21.5	22.5	13.7	18	29	17	21.5	13.7	22.5	1	0.939	0.001	L	18	21.5	1119.511	1120.643	1121.582	1121.585	0
1	22071803	320	High	1.5	Vague	2	18	15	30	21.5	31.3	6.6	15	18	30	31.3	21.5	6.6	2	0.543	0.000	L	15	31.3	1122.087	1123.920	1124.462	1124.465	0
1	22071803	321	High	1.5	Vague	2	17	15	30	22.5	31.3	6.6	17	15	30	22.5	31.3	6.6	2	0.789	0.000	D	15	31.3	1124.968	1126.137	1126.926	1126.928	0
1	22071803	322	High	1.5	Vague	2	8	15	22	26.0	31.3	8.3	22	8	15	8.3	26.0	31.3	2	1.021	0.001	R	15	31.3	1127.431	1127.953	1128.974	1128.977	0
1	22071803	323	High	1.5	Vague	2	17	15	27	22.5	31.3	17.6	17	15	27	22.5	31.3	17.6	2	0.633	0.001	D	15	31.3	1129.480	1131.957	1132.590	1132.593	0
1	22071803	324	High	1.5	Vague	2	18	16	29	21.5	35.5	13.7	18	16	29	21.5	35.5	13.7	2	0.638	0.001	D	16	35.5	1133.096	1134.209	1134.846	1134.849	0
1	22071803	325	High	1.5	Vague	2	17	16	29	22.5	35.5	13.7	17	29	16	22.5	13.7	35.5	2	0.482	0.001	R	16	35.5	1135.352	1137.116	1137.598	1137.601	0
1	22071803	326	High	1.5	Vague	2	17	16	27	22.5	35.5	17.6	27	17	16	17.6	22.5	35.5	2	0.467	0.000	R	16	35.5	1138.103	1139.755	1140.222	1140.224	0
1	22071803	327	High	1.5	Vague	2	8	16	23	26.0	35.5	1.6	23	16	8	1.6	35.5	26.0	2	0.956	0.000	D	16	35.5	1140.727	1142.546	1143.502	1143.505	0
1	22071803	328	High	1.5	Precise	1	17	16	6	22.5	35.5	3.3	6	16	17	3.3	35.5	22.5	2	0.583	0.001	D	16	35.5	1144.007	1146.168	1146.750	1146.752	0
1	22071803	329	High	1.5	Vague	2	17	8	23	22.5	26.0	1.6	8	17	23	26.0	22.5	1.6	2	0.963	0.000	L	8	26.0	1147.255	1149.547	1150.510	1150.512	0
1	22071803	330	High	1.5	Vague	2	18	15	23	21.5	31.3	1.6	23	15	18	1.6	31.3	21.5	2	0.556	0.001	D	15	31.3	1151.015	1152.962	1153.518	1153.520	0
1	22071803	331	High	1.5	Precise	1	18	8	9	21.5	26.0	16.9	9	18	8	16.9	21.5	26.0	2	0.609	0.001	R	8	26.0	1154.024	1156.701	1157.310	1157.313	0
1	22071803	332	High	1.5	Vague	2	18	16	27	21.5	35.5	17.6	18	16	27	21.5	35.5	17.6	2	0.517	0.000	D	16	35.5	1157.815	1159.626	1160.142	1160.145	0
1	22071803	333	High	1.5	Precise	1	18	16	4	21.5	35.5	14.8	18	16	4	21.5	35.5	14.8	2	0.559	0.001	D	16	35.5	1160.648	1161.583	1162.142	1162.145	0
1	22071803	334	High	1.5	Precise	1	18	17	9	21.5	22.5	16.9	9	17	18	16.9	22.5	21.5	1	0.826	0.000	R	18	21.5	1162.648	1164.276	1165.102	1165.104	0
1	22071803	335	High	1.5	Precise	1	8	16	6	26.0	35.5	3.3	6	16	8	3.3	35.5	26.0	2	0.620	0.000	D	16	35.5	1165.608	1166.402	1167.022	1167.025	0
1	22071803	336	High	1.5	Vague	2	8	16	29	26.0	35.5	13.7	29	16	8	13.7	35.5	26.0	2	0.956	0.000	D	16	35.5	1167.527	1168.786	1169.742	1169.745	0
1	22071803	337	High	1.5	Vague	2	18	8	29	21.5	26.0	13.7	8	18	29	26.0	21.5	13.7	2	0.631	0.001	L	8	26.0	1170.248	1172.967	1173.598	1173.601	0
1	22071803	338	High	1.5	Vague	2	18	8	23	21.5	26.0	1.6	8	18	23	26.0	21.5	1.6	1	1.086	0.001	D	18	21.5	1174.104	1174.976	1176.062	1176.065	0
1	22071803	339	High	1.5	Vague	2	12	15	22	28.0	31.3	8.3	12	15	22	28.0	31.3	8.3	2	0.748	0.000	D	15	31.3	1176.567	1178.611	1179.358	1179.361	0
1	22071803	340	High	1.5	Vague	2	18	12	29	21.5	28.0	13.7	29	12	18	13.7	28.0	21.5	1	1.071	0.001	R	18	21.5	1179.864	1180.495	1181.566	1181.569	0
1	22071803	341	High	1.5	Precise	1	18	12	3	21.5	28.0	2.4	12	3	18	28.0	2.4	21.5	1	0.932	0.000	R	18	21.5	1182.071	1183.626	1184.558	1184.560	0
1	22071803	342	High	1.5	Precise	1	18	15	4	21.5	31.3	14.8	18	4	15	21.5	14.8	31.3	2	0.556	0.001	R	15	31.3	1185.063	1186.194	1186.750	1186.752	0
1	22071803	343	High	1.5	Precise	1	12	15	3	28.0	31.3	2.4	12	15	3	28.0	31.3	2.4	2	0.637	0.001	D	15	31.3	1187.255	1187.825	1188.462	1188.465	0
1	22071803	344	High	1.5	Precise	1	12	16	6	28.0	35.5	3.3	6	16	12	3.3	35.5	28.0	2	0.613	0.001	D	16	35.5	1188.967	1189.945	1190.558	1190.561	0
1	22071803	345	High	1.5	Vague	2	17	12	30	22.5	28.0	6.6	30	17	12	6.6	22.5	28.0	2	0.714	0.000	R	12	28.0	1191.064	1192.116	1192.830	1192.832	0
1	22071803	346	High	1.5	Vague	2	8	16	19	26.0	35.5	2.0	16	8	19	35.5	26.0	2.0	2	0.499	0.001	L	16	35.5	1193.336	1195.387	1195.886	1195.889	0
1	22071803	347	High	1.5	Vague	2	17	12	22	22.5	28.0	8.3	17	22	12	22.5	8.3	28.0	2	0.547	0.001	R	12	28.0	1196.391	1197.947	1198.494	1198.497	0
1	22071803	348	High	1.5	Vague	2	17	8	19	22.5	26.0	2.0	19	17	8	2.0	22.5	26.0	2	0.641	0.000	R	8	26.0	1198.999	1199.596	1200.238	1200.240	0
1	22071803	349	High	1.5	Precise	1	12	15	5	28.0	31.3	7.8	15	5	12	31.3	7.8	28.0	2	0.533	0.001	L	15	31.3	1200.743	1203.609	1204.142	1204.145	0
1	22071803	350	High	1.5	Vague	2	8	15	27	26.0	31.3	17.6	8	15	27	26.0	31.3	17.6	2	0.570	0.001	D	15	31.3	1204.647	1207.428	1207.998	1208.001	0
1	22071803	351	High	1.5	Vague	2	18	17	19	21.5	22.5	2.0	19	18	17	2.0	21.5	22.5	1	0.798	0.001	D	18	21.5	1208.503	1209.952	1210.750	1210.753	0
1	22071803	352	High	1.5	Vague	2	8	15	23	26.0	31.3	1.6	8	23	15	26.0	1.6	31.3	2	0.503	0.001	R	15	31.3	1211.256	1212.840	1213.342	1213.345	0
1	22071803	353	High	1.5	Precise	1	17	15	3	22.5	31.3	2.4	17	3	15	22.5	2.4	31.3	2	0.676	0.000	R	15	31.3	1213.847	1214.394	1215.070	1215.072	0
1	22071803	354	High	1.5	Vague	2	18	8	22	21.5	26.0	8.3	18	22	8	21.5	8.3	26.0	1	1.084	0.000	L	18	21.5	1215.575	1217.906	1218.990	1218.992	0
1	22071803	355	High	1.5	Vague	2	18	8	19	21.5	26.0	2.0	19	18	8	2.0	21.5	26.0	2	0.620	0.000	R	8	26.0	1219.495	1220.562	1221.182	1221.185	0
1	22071803	356	High	1.5	Precise	1	8	16	5	26.0	35.5	7.8	5	16	8	7.8	35.5	26.0	2	0.553	0.000	D	16	35.5	1221.688	1222.981	1223.534	1223.536	0
1	22071803	357	High	1.5	Vague	2	18	8	30	21.5	26.0	6.6	18	30	8	21.5	6.6	26.0	2	0.743	0.000	R	8	26.0	1224.039	1225.766	1226.510	1226.512	0
1	22071803	358	High	1.5	Vague	2	17	15	22	22.5	31.3	8.3	15	17	22	31.3	22.5	8.3	2	0.524	0.001	L	15	31.3	1227.015	1228.419	1228.942	1228.945	0
1	22071803	359	High	1.5	Precise	1	18	16	3	21.5	35.5	2.4	3	18	16	2.4	21.5	35.5	2	0.465	0.000	R	16	35.5	1229.447	1232.285	1232.750	1232.752	0
1	22071803	360	High	1.5	Vague	2	18	12	27	21.5	28.0	17.6	27	18	12	17.6	21.5	28.0	1	0.835	0.001	D	18	21.5	1233.255	1235.051	1235.886	1235.889	0
