Group	subID	trial	TimePressure	TimeConstraint	Vagueness	Vaguenesscode	ID1	ID2	ID3	V1	V2	V3	ID_left	ID_middle	ID_right	Bid_left	Bid_middle	Bid_right	chosenItem	RT	RTvariance	chosenPosition	chosenID	chosenValue	fixation_time	option_time	choice_time	feedback_time	timeout
1	22072006	1	High	1.5	Vague	2	14	12	20	23.3	31.6	1.0	14	20	12	23.3	1.0	31.6	1	1.166	0.000	L	14	23.3	4.191	5.901	7.067	7.072	0
1	22072006	2	High	1.5	Vague	2	18	16	25	40.0	46.3	2.5	25	16	18	2.5	46.3	40.0	2	0.906	0.000	D	16	46.3	7.575	9.569	10.475	10.478	0
1	22072006	3	High	1.5	Vague	2	13	12	28	28.3	31.6	16.6	12	28	13	31.6	16.6	28.3	3	0.915	0.000	D	28	16.6	10.982	13.360	14.275	14.278	0
1	22072006	4	High	1.5	Precise	1	14	17	5	23.3	39.9	1.0	17	14	5	39.9	23.3	1.0	2	0.998	0.000	L	17	39.9	14.782	15.749	16.747	16.750	0
1	22072006	5	High	1.5	Precise	1	17	16	1	39.9	46.3	2.5	16	1	17	46.3	2.5	39.9	2	0.740	0.000	L	16	46.3	17.255	18.055	18.795	18.799	0
1	22072006	6	High	1.5	Precise	1	17	16	9	39.9	46.3	21.6	9	17	16	21.6	39.9	46.3	2	0.665	0.000	R	16	46.3	19.305	21.746	22.411	22.414	0
1	22072006	7	High	1.5	Vague	2	17	16	36	39.9	46.3	20.0	17	36	16	39.9	20.0	46.3	2	0.573	0.000	R	16	46.3	22.917	23.607	24.179	24.182	0
1	22072006	8	High	1.5	Precise	1	17	18	2	39.9	40.0	1.7	2	17	18	1.7	39.9	40.0	1	1.152	0.001	D	17	39.9	24.684	27.084	28.235	28.238	0
1	22072006	9	High	1.5	Precise	1	18	16	9	40.0	46.3	21.6	18	9	16	40.0	21.6	46.3	2	0.801	0.000	R	16	46.3	28.741	30.105	30.907	30.909	0
1	22072006	10	High	1.5	Vague	2	12	16	36	31.6	46.3	20.0	36	12	16	20.0	31.6	46.3	2	0.586	0.001	R	16	46.3	31.412	34.129	34.715	34.718	0
1	22072006	11	High	1.5	Precise	1	12	16	2	31.6	46.3	1.7	2	12	16	1.7	31.6	46.3	2	0.514	0.000	R	16	46.3	35.221	37.730	38.243	38.246	0
1	22072006	12	High	1.5	Precise	1	17	18	9	39.9	40.0	21.6	17	9	18	39.9	21.6	40.0	2	1.095	0.000	R	18	40.0	38.749	41.116	42.211	42.213	0
1	22072006	13	High	1.5	Precise	1	14	13	1	23.3	28.3	2.5	1	14	13	2.5	23.3	28.3	1	0.868	0.001	D	14	23.3	42.717	44.871	45.739	45.741	0
1	22072006	14	High	1.5	Vague	2	12	16	28	31.6	46.3	16.6	16	28	12	46.3	16.6	31.6	2	0.697	0.000	L	16	46.3	46.244	47.554	48.251	48.253	0
1	22072006	15	High	1.5	Precise	1	13	17	1	28.3	39.9	2.5	17	1	13	39.9	2.5	28.3	1	1.350	0.000	R	13	28.3	48.756	51.197	52.547	52.549	0
1	22072006	16	High	1.5	Precise	1	13	12	2	28.3	31.6	1.7	2	12	13	1.7	31.6	28.3	1	0.977	0.001	R	13	28.3	53.053	55.826	56.803	56.806	0
1	22072006	17	High	1.5	Precise	1	13	18	2	28.3	40.0	1.7	13	2	18	28.3	1.7	40.0	1	0.811	0.000	L	13	28.3	57.309	60.273	61.083	61.086	0
1	22072006	18	High	1.5	Vague	2	14	18	25	23.3	40.0	2.5	18	25	14	40.0	2.5	23.3	1	0.874	0.001	R	14	23.3	61.588	64.281	65.155	65.159	0
1	22072006	19	High	1.5	Vague	2	14	13	25	23.3	28.3	2.5	25	14	13	2.5	23.3	28.3	2	1.009	0.000	R	13	28.3	65.661	67.938	68.947	68.950	0
1	22072006	20	High	1.5	Vague	2	13	16	28	28.3	46.3	16.6	16	28	13	46.3	16.6	28.3	2	0.649	0.001	L	16	46.3	69.452	70.154	70.803	70.806	0
1	22072006	21	High	1.5	Precise	1	14	16	5	23.3	46.3	1.0	5	14	16	1.0	23.3	46.3	2	0.498	0.000	R	16	46.3	71.309	72.001	72.499	72.501	0
1	22072006	22	High	1.5	Vague	2	17	18	19	39.9	40.0	1.0	18	19	17	40.0	1.0	39.9	3	0.659	0.000	D	19	1.0	73.005	75.744	76.403	76.405	0
1	22072006	23	High	1.5	Precise	1	12	16	5	31.6	46.3	1.0	12	16	5	31.6	46.3	1.0	2	0.882	0.001	D	16	46.3	76.909	79.057	79.939	79.942	0
1	22072006	24	High	1.5	Vague	2	14	13	36	23.3	28.3	20.0	14	13	36	23.3	28.3	20.0	1	1.161	0.001	L	14	23.3	80.444	82.634	83.795	83.797	0
1	22072006	25	High	1.5	Vague	2	13	17	31	28.3	39.9	26.6	17	13	31	39.9	28.3	26.6	1	0.853	0.001	D	13	28.3	84.300	84.918	85.771	85.774	0
1	22072006	26	High	1.5	Vague	2	12	16	20	31.6	46.3	1.0	16	20	12	46.3	1.0	31.6	2	0.568	0.000	L	16	46.3	86.277	89.234	89.803	89.805	0
1	22072006	27	High	1.5	Precise	1	14	18	1	23.3	40.0	2.5	18	14	1	40.0	23.3	2.5	1	0.822	0.000	D	14	23.3	90.309	92.205	93.027	93.029	0
1	22072006	28	High	1.5	Precise	1	13	18	8	28.3	40.0	23.2	8	13	18	23.2	28.3	40.0	3	0.928	0.000	L	8	23.2	93.532	94.531	95.459	95.462	0
1	22072006	29	High	1.5	Precise	1	14	18	2	23.3	40.0	1.7	2	14	18	1.7	23.3	40.0	1	0.842	0.000	D	14	23.3	95.965	98.481	99.323	99.325	0
1	22072006	30	High	1.5	Vague	2	14	17	28	23.3	39.9	16.6	14	17	28	23.3	39.9	16.6	1	0.676	0.000	L	14	23.3	99.829	102.807	103.483	103.485	0
1	22072006	31	High	1.5	Vague	2	13	12	31	28.3	31.6	26.6	13	12	31	28.3	31.6	26.6	1	0.614	0.001	L	13	28.3	103.989	106.813	107.427	107.429	0
1	22072006	32	High	1.5	Vague	2	13	16	31	28.3	46.3	26.6	13	16	31	28.3	46.3	26.6	2	0.718	0.000	D	16	46.3	107.932	109.957	110.675	110.678	0
1	22072006	33	High	1.5	Vague	2	17	16	28	39.9	46.3	16.6	28	17	16	16.6	39.9	46.3	2	0.903	0.000	R	16	46.3	111.181	113.043	113.947	113.949	0
1	22072006	34	High	1.5	Vague	2	17	16	31	39.9	46.3	26.6	16	31	17	46.3	26.6	39.9	2	0.574	0.001	L	16	46.3	114.453	116.941	117.515	117.518	0
1	22072006	35	High	1.5	Precise	1	12	17	1	31.6	39.9	2.5	12	17	1	31.6	39.9	2.5	1	0.998	0.001	L	12	31.6	118.020	119.037	120.035	120.037	0
1	22072006	36	High	1.5	Vague	2	18	16	28	40.0	46.3	16.6	16	28	18	46.3	16.6	40.0	2	0.499	0.000	L	16	46.3	120.541	122.056	122.555	122.557	0
1	22072006	37	High	1.5	Vague	2	12	17	31	31.6	39.9	26.6	31	12	17	26.6	31.6	39.9	1	1.105	0.000	D	12	31.6	123.060	123.858	124.963	124.965	0
1	22072006	38	High	1.5	Precise	1	13	16	1	28.3	46.3	2.5	16	1	13	46.3	2.5	28.3	2	0.581	0.000	L	16	46.3	125.468	128.190	128.771	128.773	0
1	22072006	39	High	1.5	Precise	1	14	18	11	23.3	40.0	6.7	11	18	14	6.7	40.0	23.3	1	1.208	0.000	R	14	23.3	129.277	130.283	131.491	131.493	0
1	22072006	40	High	1.5	Precise	1	14	17	1	23.3	39.9	2.5	14	1	17	23.3	2.5	39.9	1	0.777	0.000	L	14	23.3	131.996	132.810	133.587	133.589	0
1	22072006	41	High	1.5	Vague	2	14	12	25	23.3	31.6	2.5	12	14	25	31.6	23.3	2.5	1	1.192	0.000	D	14	23.3	134.092	136.851	138.043	138.046	0
1	22072006	42	High	1.5	Vague	2	18	16	19	40.0	46.3	1.0	16	19	18	46.3	1.0	40.0	2	0.610	0.001	L	16	46.3	138.548	140.481	141.091	141.094	0
1	22072006	43	High	1.5	Vague	2	12	17	25	31.6	39.9	2.5	25	17	12	2.5	39.9	31.6	NaN	NaN	NaN	NaN	NaN	NaN	141.596	142.614	NaN	144.104	1
1	22072006	44	High	1.5	Vague	2	17	18	36	39.9	40.0	20.0	17	18	36	39.9	40.0	20.0	3	0.916	0.000	R	36	20.0	146.108	146.615	147.531	147.535	0
1	22072006	45	High	1.5	Vague	2	12	17	19	31.6	39.9	1.0	19	17	12	1.0	39.9	31.6	1	1.142	0.001	R	12	31.6	148.038	149.829	150.971	150.974	0
1	22072006	46	High	1.5	Vague	2	14	16	20	23.3	46.3	1.0	14	16	20	23.3	46.3	1.0	2	0.803	0.000	D	16	46.3	151.477	154.376	155.179	155.182	0
1	22072006	47	High	1.5	Precise	1	12	16	1	31.6	46.3	2.5	16	12	1	46.3	31.6	2.5	2	0.730	0.001	L	16	46.3	155.684	156.490	157.219	157.222	0
1	22072006	48	High	1.5	Precise	1	14	18	9	23.3	40.0	21.6	18	14	9	40.0	23.3	21.6	1	0.826	0.000	D	14	23.3	157.724	158.817	159.643	159.645	0
1	22072006	49	High	1.5	Precise	1	17	18	5	39.9	40.0	1.0	17	18	5	39.9	40.0	1.0	2	0.919	0.000	D	18	40.0	160.148	161.396	162.315	162.317	0
1	22072006	50	High	1.5	Precise	1	12	17	11	31.6	39.9	6.7	11	17	12	6.7	39.9	31.6	1	0.938	0.000	R	12	31.6	162.821	164.841	165.779	165.781	0
1	22072006	51	High	1.5	Vague	2	14	12	36	23.3	31.6	20.0	14	36	12	23.3	20.0	31.6	1	0.766	0.000	L	14	23.3	166.284	167.708	168.475	168.477	0
1	22072006	52	High	1.5	Precise	1	14	16	9	23.3	46.3	21.6	14	16	9	23.3	46.3	21.6	2	0.745	0.001	D	16	46.3	168.979	169.866	170.611	170.613	0
1	22072006	53	High	1.5	Vague	2	14	17	36	23.3	39.9	20.0	36	17	14	20.0	39.9	23.3	1	0.781	0.000	R	14	23.3	171.117	174.062	174.843	174.845	0
1	22072006	54	High	1.5	Precise	1	14	13	5	23.3	28.3	1.0	14	5	13	23.3	1.0	28.3	1	0.604	0.001	L	14	23.3	175.348	176.759	177.363	177.365	0
1	22072006	55	High	1.5	Precise	1	18	16	8	40.0	46.3	23.2	16	18	8	46.3	40.0	23.2	2	0.675	0.000	L	16	46.3	177.869	178.583	179.259	179.261	0
1	22072006	56	High	1.5	Precise	1	18	16	11	40.0	46.3	6.7	11	16	18	6.7	46.3	40.0	2	0.584	0.001	D	16	46.3	179.764	180.283	180.867	180.870	0
1	22072006	57	High	1.5	Vague	2	12	17	28	31.6	39.9	16.6	12	28	17	31.6	16.6	39.9	3	0.960	0.001	D	28	16.6	181.372	184.156	185.115	185.118	0
1	22072006	58	High	1.5	Precise	1	13	17	9	28.3	39.9	21.6	13	9	17	28.3	21.6	39.9	1	0.698	0.000	L	13	28.3	185.620	188.481	189.179	189.181	0
1	22072006	59	High	1.5	Precise	1	12	17	8	31.6	39.9	23.2	12	8	17	31.6	23.2	39.9	3	0.823	0.000	D	8	23.2	189.684	190.716	191.539	191.541	0
1	22072006	60	High	1.5	Vague	2	14	13	31	23.3	28.3	26.6	14	31	13	23.3	26.6	28.3	2	0.711	0.001	R	13	28.3	192.044	194.748	195.459	195.462	0
1	22072006	61	High	1.5	Vague	2	12	17	20	31.6	39.9	1.0	12	17	20	31.6	39.9	1.0	1	1.073	0.000	L	12	31.6	207.066	208.890	209.963	209.965	0
1	22072006	62	High	1.5	Precise	1	13	18	9	28.3	40.0	21.6	9	18	13	21.6	40.0	28.3	1	0.665	0.000	R	13	28.3	210.468	213.250	213.915	213.917	0
1	22072006	63	High	1.5	Precise	1	13	12	1	28.3	31.6	2.5	13	12	1	28.3	31.6	2.5	2	0.813	0.000	D	12	31.6	214.420	215.110	215.923	215.925	0
1	22072006	64	High	1.5	Vague	2	12	18	19	31.6	40.0	1.0	19	12	18	1.0	31.6	40.0	1	0.944	0.001	D	12	31.6	216.428	217.083	218.027	218.030	0
1	22072006	65	High	1.5	Precise	1	17	16	11	39.9	46.3	6.7	17	11	16	39.9	6.7	46.3	2	0.670	0.000	R	16	46.3	218.532	219.093	219.763	219.765	0
1	22072006	66	High	1.5	Precise	1	12	18	1	31.6	40.0	2.5	1	18	12	2.5	40.0	31.6	1	0.778	0.000	R	12	31.6	220.268	221.177	221.955	221.957	0
1	22072006	67	High	1.5	Vague	2	13	17	25	28.3	39.9	2.5	17	13	25	39.9	28.3	2.5	1	0.797	0.000	D	13	28.3	222.461	224.510	225.307	225.309	0
1	22072006	68	High	1.5	Precise	1	12	18	2	31.6	40.0	1.7	2	12	18	1.7	31.6	40.0	1	0.782	0.001	D	12	31.6	225.811	227.517	228.299	228.302	0
1	22072006	69	High	1.5	Precise	1	14	12	11	23.3	31.6	6.7	11	14	12	6.7	23.3	31.6	1	0.705	0.001	D	14	23.3	228.805	231.586	232.291	232.294	0
1	22072006	70	High	1.5	Precise	1	17	18	1	39.9	40.0	2.5	18	1	17	40.0	2.5	39.9	2	1.155	0.000	L	18	40.0	232.797	235.335	236.491	236.493	0
1	22072006	71	High	1.5	Precise	1	17	18	11	39.9	40.0	6.7	18	17	11	40.0	39.9	6.7	1	0.990	0.000	D	17	39.9	236.996	238.020	239.011	239.013	0
1	22072006	72	High	1.5	Vague	2	12	17	36	31.6	39.9	20.0	36	12	17	20.0	31.6	39.9	1	1.044	0.000	D	12	31.6	239.517	241.583	242.627	242.629	0
1	22072006	73	High	1.5	Precise	1	18	16	1	40.0	46.3	2.5	1	16	18	2.5	46.3	40.0	2	0.798	0.001	D	16	46.3	243.133	243.861	244.659	244.661	0
1	22072006	74	High	1.5	Precise	1	13	12	8	28.3	31.6	23.2	12	13	8	31.6	28.3	23.2	3	0.932	0.000	R	8	23.2	245.164	247.183	248.115	248.117	0
1	22072006	75	High	1.5	Precise	1	13	17	5	28.3	39.9	1.0	5	13	17	1.0	28.3	39.9	1	0.726	0.000	D	13	28.3	248.620	250.989	251.715	251.717	0
1	22072006	76	High	1.5	Vague	2	14	12	19	23.3	31.6	1.0	19	12	14	1.0	31.6	23.3	2	1.201	0.000	D	12	31.6	252.220	254.818	256.019	256.021	0
1	22072006	77	High	1.5	Vague	2	17	18	25	39.9	40.0	2.5	18	25	17	40.0	2.5	39.9	3	0.817	0.001	D	25	2.5	256.525	257.338	258.155	258.157	0
1	22072006	78	High	1.5	Precise	1	14	17	2	23.3	39.9	1.7	17	2	14	39.9	1.7	23.3	1	0.892	0.001	R	14	23.3	258.660	260.855	261.747	261.750	0
1	22072006	79	High	1.5	Vague	2	14	17	25	23.3	39.9	2.5	14	25	17	23.3	2.5	39.9	3	0.515	0.001	D	25	2.5	262.252	264.520	265.035	265.037	0
1	22072006	80	High	1.5	Vague	2	13	18	31	28.3	40.0	26.6	31	13	18	26.6	28.3	40.0	1	0.664	0.001	D	13	28.3	265.540	267.139	267.803	267.805	0
1	22072006	81	High	1.5	Vague	2	17	18	20	39.9	40.0	1.0	18	17	20	40.0	39.9	1.0	1	0.859	0.000	D	17	39.9	268.308	270.655	271.515	271.517	0
1	22072006	82	High	1.5	Precise	1	14	16	2	23.3	46.3	1.7	16	14	2	46.3	23.3	1.7	2	0.610	0.000	L	16	46.3	272.020	274.481	275.091	275.093	0
1	22072006	83	High	1.5	Precise	1	12	18	8	31.6	40.0	23.2	18	8	12	40.0	23.2	31.6	3	0.653	0.001	D	8	23.2	275.597	276.534	277.187	277.189	0
1	22072006	84	High	1.5	Vague	2	14	13	20	23.3	28.3	1.0	14	13	20	23.3	28.3	1.0	2	0.972	0.000	D	13	28.3	277.692	278.631	279.603	279.605	0
1	22072006	85	High	1.5	Precise	1	12	17	2	31.6	39.9	1.7	12	2	17	31.6	1.7	39.9	1	0.990	0.001	L	12	31.6	280.108	280.941	281.931	281.933	0
1	22072006	86	High	1.5	Vague	2	13	12	36	28.3	31.6	20.0	36	12	13	20.0	31.6	28.3	2	0.944	0.000	D	12	31.6	282.436	283.571	284.515	284.517	0
1	22072006	87	High	1.5	Vague	2	13	16	36	28.3	46.3	20.0	36	13	16	20.0	28.3	46.3	2	0.698	0.000	R	16	46.3	285.020	286.009	286.707	286.709	0
1	22072006	88	High	1.5	Precise	1	14	13	8	23.3	28.3	23.2	14	13	8	23.3	28.3	23.2	3	0.659	0.000	R	8	23.2	287.212	287.832	288.491	288.493	0
1	22072006	89	High	1.5	Precise	1	14	13	9	23.3	28.3	21.6	14	9	13	23.3	21.6	28.3	2	0.687	0.001	R	13	28.3	288.995	290.356	291.043	291.045	0
1	22072006	90	High	1.5	Vague	2	13	16	20	28.3	46.3	1.0	20	16	13	1.0	46.3	28.3	2	0.647	0.000	D	16	46.3	291.548	294.412	295.059	295.061	0
1	22072006	91	High	1.5	Vague	2	13	17	19	28.3	39.9	1.0	17	19	13	39.9	1.0	28.3	1	0.691	0.000	R	13	28.3	295.564	297.711	298.403	298.405	0
1	22072006	92	High	1.5	Precise	1	14	16	11	23.3	46.3	6.7	11	16	14	6.7	46.3	23.3	2	0.572	0.001	D	16	46.3	298.908	300.407	300.979	300.981	0
1	22072006	93	High	1.5	Precise	1	14	12	2	23.3	31.6	1.7	14	2	12	23.3	1.7	31.6	2	0.744	0.001	R	12	31.6	301.484	302.755	303.499	303.501	0
1	22072006	94	High	1.5	Vague	2	14	18	36	23.3	40.0	20.0	14	36	18	23.3	20.0	40.0	3	0.889	0.001	D	36	20.0	304.004	306.250	307.139	307.141	0
1	22072006	95	High	1.5	Vague	2	14	12	31	23.3	31.6	26.6	14	31	12	23.3	26.6	31.6	2	1.115	0.000	R	12	31.6	307.645	309.480	310.595	310.597	0
1	22072006	96	High	1.5	Precise	1	13	17	2	28.3	39.9	1.7	17	13	2	39.9	28.3	1.7	1	0.738	0.000	D	13	28.3	311.099	312.313	313.051	313.053	0
1	22072006	97	High	1.5	Vague	2	14	17	19	23.3	39.9	1.0	17	19	14	39.9	1.0	23.3	1	0.816	0.000	R	14	23.3	313.555	315.426	316.243	316.245	0
1	22072006	98	High	1.5	Vague	2	13	18	20	28.3	40.0	1.0	18	13	20	40.0	28.3	1.0	1	0.861	0.001	D	13	28.3	316.747	318.318	319.179	319.181	0
1	22072006	99	High	1.5	Precise	1	13	17	8	28.3	39.9	23.2	17	13	8	39.9	28.3	23.2	3	0.693	0.001	R	8	23.2	319.685	320.606	321.299	321.301	0
1	22072006	100	High	1.5	Precise	1	14	12	9	23.3	31.6	21.6	14	9	12	23.3	21.6	31.6	2	1.087	0.001	R	12	31.6	321.804	324.668	325.755	325.757	0
1	22072006	101	High	1.5	Vague	2	14	18	20	23.3	40.0	1.0	14	18	20	23.3	40.0	1.0	1	0.805	0.000	L	14	23.3	326.260	328.846	329.651	329.654	0
1	22072006	102	High	1.5	Vague	2	13	12	19	28.3	31.6	1.0	12	13	19	31.6	28.3	1.0	2	0.685	0.001	L	12	31.6	330.156	332.926	333.611	333.613	0
1	22072006	103	High	1.5	Precise	1	13	16	2	28.3	46.3	1.7	16	13	2	46.3	28.3	1.7	2	0.617	0.000	L	16	46.3	334.117	335.962	336.579	336.581	0
1	22072006	104	High	1.5	Vague	2	13	12	25	28.3	31.6	2.5	25	13	12	2.5	28.3	31.6	1	1.302	0.001	D	13	28.3	337.085	338.197	339.499	339.501	0
1	22072006	105	High	1.5	Precise	1	14	16	1	23.3	46.3	2.5	16	1	14	46.3	2.5	23.3	2	0.653	0.000	L	16	46.3	340.004	342.517	343.170	343.173	0
1	22072006	106	High	1.5	Precise	1	14	17	9	23.3	39.9	21.6	14	9	17	23.3	21.6	39.9	1	0.768	0.000	L	14	23.3	343.676	345.827	346.595	346.597	0
1	22072006	107	High	1.5	Precise	1	17	18	8	39.9	40.0	23.2	17	18	8	39.9	40.0	23.2	3	0.702	0.000	R	8	23.2	347.101	348.500	349.202	349.206	0
1	22072006	108	High	1.5	Precise	1	13	18	1	28.3	40.0	2.5	18	1	13	40.0	2.5	28.3	1	0.823	0.000	R	13	28.3	349.709	352.347	353.170	353.173	0
1	22072006	109	High	1.5	Vague	2	14	16	25	23.3	46.3	2.5	16	14	25	46.3	23.3	2.5	2	0.556	0.000	L	16	46.3	353.676	354.271	354.827	354.829	0
1	22072006	110	High	1.5	Vague	2	13	18	28	28.3	40.0	16.6	18	13	28	40.0	28.3	16.6	1	0.965	0.001	D	13	28.3	355.331	356.414	357.379	357.381	0
1	22072006	111	High	1.5	Precise	1	13	12	5	28.3	31.6	1.0	12	13	5	31.6	28.3	1.0	1	1.047	0.001	D	13	28.3	357.884	358.516	359.563	359.565	0
1	22072006	112	High	1.5	Vague	2	13	16	19	28.3	46.3	1.0	13	19	16	28.3	1.0	46.3	2	0.545	0.000	R	16	46.3	360.068	361.825	362.371	362.373	0
1	22072006	113	High	1.5	Vague	2	13	16	25	28.3	46.3	2.5	13	16	25	28.3	46.3	2.5	2	0.530	0.000	D	16	46.3	362.876	364.281	364.810	364.813	0
1	22072006	114	High	1.5	Precise	1	17	16	5	39.9	46.3	1.0	17	5	16	39.9	1.0	46.3	2	0.654	0.000	R	16	46.3	365.316	367.892	368.547	368.549	0
1	22072006	115	High	1.5	Vague	2	18	16	31	40.0	46.3	26.6	16	18	31	46.3	40.0	26.6	2	0.441	0.000	L	16	46.3	369.052	371.074	371.514	371.517	0
1	22072006	116	High	1.5	Vague	2	14	18	31	23.3	40.0	26.6	14	18	31	23.3	40.0	26.6	1	0.660	0.000	L	14	23.3	372.019	374.239	374.899	374.901	0
1	22072006	117	High	1.5	Vague	2	14	17	20	23.3	39.9	1.0	14	17	20	23.3	39.9	1.0	1	0.913	0.000	L	14	23.3	375.404	376.225	377.139	377.141	0
1	22072006	118	High	1.5	Precise	1	14	18	5	23.3	40.0	1.0	14	18	5	23.3	40.0	1.0	1	0.581	0.001	L	14	23.3	377.644	379.270	379.851	379.853	0
1	22072006	119	High	1.5	Precise	1	14	13	2	23.3	28.3	1.7	2	14	13	1.7	23.3	28.3	2	0.776	0.000	R	13	28.3	380.356	381.211	381.986	381.989	0
1	22072006	120	High	1.5	Vague	2	17	18	28	39.9	40.0	16.6	18	28	17	40.0	16.6	39.9	3	1.168	0.000	D	28	16.6	382.492	383.379	384.547	384.549	0
1	22072006	121	High	1.5	Precise	1	18	16	5	40.0	46.3	1.0	16	5	18	46.3	1.0	40.0	2	0.549	0.000	L	16	46.3	393.057	394.637	395.186	395.189	0
1	22072006	122	High	1.5	Precise	1	13	16	5	28.3	46.3	1.0	13	5	16	28.3	1.0	46.3	2	0.623	0.001	R	16	46.3	395.691	397.252	397.875	397.877	0
1	22072006	123	High	1.5	Vague	2	14	16	19	23.3	46.3	1.0	19	14	16	1.0	23.3	46.3	3	0.616	0.001	L	19	1.0	398.380	400.739	401.355	401.357	0
1	22072006	124	High	1.5	Precise	1	14	17	8	23.3	39.9	23.2	14	8	17	23.3	23.2	39.9	3	0.758	0.000	D	8	23.2	401.860	402.693	403.451	403.453	0
1	22072006	125	High	1.5	Vague	2	12	18	36	31.6	40.0	20.0	18	12	36	40.0	31.6	20.0	1	1.118	0.000	D	12	31.6	403.955	404.629	405.747	405.749	0
1	22072006	126	High	1.5	Precise	1	14	12	1	23.3	31.6	2.5	14	12	1	23.3	31.6	2.5	2	1.090	0.001	D	12	31.6	406.251	407.720	408.811	408.813	0
1	22072006	127	High	1.5	Precise	1	14	13	11	23.3	28.3	6.7	11	13	14	6.7	28.3	23.3	3	0.908	0.000	L	11	6.7	409.317	411.087	411.995	411.997	0
1	22072006	128	High	1.5	Precise	1	18	16	2	40.0	46.3	1.7	2	16	18	1.7	46.3	40.0	2	0.629	0.001	D	16	46.3	412.499	415.366	415.995	415.997	0
1	22072006	129	High	1.5	Vague	2	13	17	28	28.3	39.9	16.6	28	17	13	16.6	39.9	28.3	3	1.020	0.000	L	28	16.6	416.500	418.103	419.123	419.125	0
1	22072006	130	High	1.5	Vague	2	18	16	36	40.0	46.3	20.0	16	36	18	46.3	20.0	40.0	2	0.569	0.000	L	16	46.3	419.628	422.529	423.098	423.101	0
1	22072006	131	High	1.5	Vague	2	12	18	25	31.6	40.0	2.5	25	18	12	2.5	40.0	31.6	1	0.960	0.001	R	12	31.6	423.604	426.163	427.123	427.125	0
1	22072006	132	High	1.5	Vague	2	14	18	19	23.3	40.0	1.0	18	14	19	40.0	23.3	1.0	1	0.815	0.001	D	14	23.3	427.628	428.988	429.803	429.805	0
1	22072006	133	High	1.5	Vague	2	13	18	25	28.3	40.0	2.5	18	25	13	40.0	2.5	28.3	1	0.957	0.000	R	13	28.3	430.308	431.461	432.419	432.421	0
1	22072006	134	High	1.5	Precise	1	12	17	5	31.6	39.9	1.0	5	12	17	1.0	31.6	39.9	1	0.882	0.000	D	12	31.6	432.923	435.553	436.435	436.437	0
1	22072006	135	High	1.5	Precise	1	12	18	9	31.6	40.0	21.6	12	9	18	31.6	21.6	40.0	NaN	NaN	NaN	NaN	NaN	NaN	436.940	437.549	NaN	439.038	1
1	22072006	136	High	1.5	Precise	1	12	16	11	31.6	46.3	6.7	11	16	12	6.7	46.3	31.6	2	0.693	0.001	D	16	46.3	441.041	441.974	442.667	442.669	0
1	22072006	137	High	1.5	Precise	1	13	16	9	28.3	46.3	21.6	13	16	9	28.3	46.3	21.6	2	0.509	0.000	D	16	46.3	443.173	445.629	446.139	446.142	0
1	22072006	138	High	1.5	Precise	1	13	16	8	28.3	46.3	23.2	8	13	16	23.2	28.3	46.3	2	0.654	0.000	R	16	46.3	446.644	447.813	448.467	448.469	0
1	22072006	139	High	1.5	Vague	2	14	13	28	23.3	28.3	16.6	14	13	28	23.3	28.3	16.6	2	0.649	0.001	D	13	28.3	448.972	449.650	450.299	450.301	0
1	22072006	140	High	1.5	Precise	1	14	12	5	23.3	31.6	1.0	12	14	5	31.6	23.3	1.0	1	0.882	0.000	D	14	23.3	450.804	453.705	454.587	454.589	0
1	22072006	141	High	1.5	Precise	1	13	17	11	28.3	39.9	6.7	13	17	11	28.3	39.9	6.7	1	0.716	0.001	L	13	28.3	455.092	457.119	457.835	457.837	0
1	22072006	142	High	1.5	Precise	1	12	16	9	31.6	46.3	21.6	16	9	12	46.3	21.6	31.6	2	0.596	0.000	L	16	46.3	458.340	461.206	461.802	461.805	0
1	22072006	143	High	1.5	Vague	2	17	18	31	39.9	40.0	26.6	31	18	17	26.6	40.0	39.9	3	0.928	0.000	L	31	26.6	462.308	463.018	463.946	463.949	0
1	22072006	144	High	1.5	Vague	2	17	16	19	39.9	46.3	1.0	16	19	17	46.3	1.0	39.9	2	0.479	0.000	L	16	46.3	464.451	465.892	466.371	466.373	0
1	22072006	145	High	1.5	Precise	1	17	16	2	39.9	46.3	1.7	2	17	16	1.7	39.9	46.3	2	0.633	0.000	R	16	46.3	466.875	467.458	468.091	468.093	0
1	22072006	146	High	1.5	Precise	1	13	12	11	28.3	31.6	6.7	11	12	13	6.7	31.6	28.3	1	0.836	0.000	R	13	28.3	468.596	471.246	472.082	472.085	0
1	22072006	147	High	1.5	Vague	2	12	18	28	31.6	40.0	16.6	18	28	12	40.0	16.6	31.6	1	0.700	0.000	R	12	31.6	472.588	474.775	475.475	475.477	0
1	22072006	148	High	1.5	Precise	1	13	18	11	28.3	40.0	6.7	18	13	11	40.0	28.3	6.7	1	0.757	0.001	D	13	28.3	475.980	478.094	478.851	478.853	0
1	22072006	149	High	1.5	Precise	1	14	17	11	23.3	39.9	6.7	14	11	17	23.3	6.7	39.9	1	0.690	0.000	L	14	23.3	479.356	482.096	482.787	482.789	0
1	22072006	150	High	1.5	Vague	2	12	16	31	31.6	46.3	26.6	16	12	31	46.3	31.6	26.6	2	0.579	0.000	L	16	46.3	483.291	485.752	486.331	486.333	0
1	22072006	151	High	1.5	Precise	1	12	18	11	31.6	40.0	6.7	11	12	18	6.7	31.6	40.0	1	0.673	0.000	D	12	31.6	486.835	489.522	490.195	490.197	0
1	22072006	152	High	1.5	Vague	2	12	16	25	31.6	46.3	2.5	16	12	25	46.3	31.6	2.5	2	0.525	0.000	L	16	46.3	490.699	491.941	492.466	492.469	0
1	22072006	153	High	1.5	Vague	2	13	12	20	28.3	31.6	1.0	13	20	12	28.3	1.0	31.6	1	1.023	0.001	L	13	28.3	492.971	495.508	496.531	496.533	0
1	22072006	154	High	1.5	Precise	1	14	12	8	23.3	31.6	23.2	12	14	8	31.6	23.3	23.2	3	0.704	0.000	R	8	23.2	497.036	499.866	500.571	500.573	0
1	22072006	155	High	1.5	Vague	2	14	16	36	23.3	46.3	20.0	16	14	36	46.3	23.3	20.0	2	0.595	0.000	L	16	46.3	501.076	502.095	502.690	502.693	0
1	22072006	156	High	1.5	Vague	2	18	16	20	40.0	46.3	1.0	18	20	16	40.0	1.0	46.3	2	0.541	0.000	R	16	46.3	503.196	505.486	506.027	506.029	0
1	22072006	157	High	1.5	Vague	2	13	18	36	28.3	40.0	20.0	36	18	13	20.0	40.0	28.3	1	0.849	0.000	R	13	28.3	506.532	508.050	508.899	508.901	0
1	22072006	158	High	1.5	Vague	2	14	18	28	23.3	40.0	16.6	28	18	14	16.6	40.0	23.3	1	0.677	0.001	R	14	23.3	509.404	511.765	512.443	512.445	0
1	22072006	159	High	1.5	Vague	2	17	16	20	39.9	46.3	1.0	16	17	20	46.3	39.9	1.0	2	0.524	0.000	L	16	46.3	512.948	514.678	515.202	515.205	0
1	22072006	160	High	1.5	Precise	1	14	16	8	23.3	46.3	23.2	14	16	8	23.3	46.3	23.2	1	0.451	0.001	L	14	23.3	515.707	517.408	517.859	517.861	0
1	22072006	161	High	1.5	Precise	1	17	16	8	39.9	46.3	23.2	16	17	8	46.3	39.9	23.2	2	0.564	0.001	L	16	46.3	518.364	520.958	521.523	521.525	0
1	22072006	162	High	1.5	Vague	2	14	16	31	23.3	46.3	26.6	14	16	31	23.3	46.3	26.6	2	0.635	0.000	D	16	46.3	522.029	523.768	524.403	524.405	0
1	22072006	163	High	1.5	Precise	1	13	12	9	28.3	31.6	21.6	12	13	9	31.6	28.3	21.6	1	0.835	0.000	D	13	28.3	524.908	527.687	528.523	528.525	0
1	22072006	164	High	1.5	Precise	1	14	18	8	23.3	40.0	23.2	18	8	14	40.0	23.2	23.3	3	0.512	0.000	D	8	23.2	529.028	530.803	531.315	531.317	0
1	22072006	165	High	1.5	Precise	1	12	17	9	31.6	39.9	21.6	17	12	9	39.9	31.6	21.6	1	0.826	0.000	D	12	31.6	531.820	533.193	534.019	534.021	0
1	22072006	166	High	1.5	Vague	2	14	16	28	23.3	46.3	16.6	14	28	16	23.3	16.6	46.3	2	0.617	0.000	R	16	46.3	534.523	536.633	537.250	537.253	0
1	22072006	167	High	1.5	Vague	2	12	18	20	31.6	40.0	1.0	20	12	18	1.0	31.6	40.0	1	0.701	0.000	D	12	31.6	537.755	540.157	540.859	540.861	0
1	22072006	168	High	1.5	Precise	1	13	16	11	28.3	46.3	6.7	11	13	16	6.7	28.3	46.3	2	0.533	0.000	R	16	46.3	541.365	544.253	544.787	544.789	0
1	22072006	169	High	1.5	Precise	1	12	18	5	31.6	40.0	1.0	12	5	18	31.6	1.0	40.0	3	0.832	0.000	D	5	1.0	545.292	547.211	548.042	548.045	0
1	22072006	170	High	1.5	Vague	2	12	16	19	31.6	46.3	1.0	19	16	12	1.0	46.3	31.6	2	0.565	0.000	D	16	46.3	548.548	550.597	551.163	551.165	0
1	22072006	171	High	1.5	Vague	2	13	17	20	28.3	39.9	1.0	13	17	20	28.3	39.9	1.0	1	1.153	0.000	L	13	28.3	551.667	552.209	553.363	553.365	0
1	22072006	172	High	1.5	Vague	2	13	18	19	28.3	40.0	1.0	13	18	19	28.3	40.0	1.0	1	0.850	0.000	L	13	28.3	553.867	555.352	556.203	556.205	0
1	22072006	173	High	1.5	Precise	1	13	18	5	28.3	40.0	1.0	13	5	18	28.3	1.0	40.0	1	0.588	0.000	L	13	28.3	556.707	557.606	558.195	558.197	0
1	22072006	174	High	1.5	Vague	2	13	17	36	28.3	39.9	20.0	36	17	13	20.0	39.9	28.3	1	0.674	0.000	R	13	28.3	558.699	560.832	561.506	561.509	0
1	22072006	175	High	1.5	Vague	2	14	17	31	23.3	39.9	26.6	31	14	17	26.6	23.3	39.9	3	0.808	0.001	L	31	26.6	562.012	562.522	563.331	563.333	0
1	22072006	176	High	1.5	Vague	2	17	16	25	39.9	46.3	2.5	17	25	16	39.9	2.5	46.3	2	0.669	0.000	R	16	46.3	563.835	565.582	566.251	566.253	0
1	22072006	177	High	1.5	Vague	2	14	13	19	23.3	28.3	1.0	13	19	14	28.3	1.0	23.3	1	0.754	0.000	R	14	23.3	566.755	569.048	569.803	569.805	0
1	22072006	178	High	1.5	Precise	1	12	16	8	31.6	46.3	23.2	8	12	16	23.2	31.6	46.3	2	0.596	0.001	R	16	46.3	570.307	573.070	573.667	573.669	0
1	22072006	179	High	1.5	Vague	2	12	18	31	31.6	40.0	26.6	31	12	18	26.6	31.6	40.0	1	0.795	0.001	D	12	31.6	574.172	574.911	575.707	575.709	0
1	22072006	180	High	1.5	Vague	2	14	12	28	23.3	31.6	16.6	12	28	14	31.6	16.6	23.3	1	0.896	0.000	R	14	23.3	576.212	577.779	578.674	578.678	0
1	22072006	181	Low	10.0	Precise	1	14	16	6	23.3	46.3	2.9	6	14	16	2.9	23.3	46.3	2	0.921	0.000	R	16	46.3	593.915	596.010	596.931	596.933	0
1	22072006	182	Low	10.0	Vague	2	13	17	29	28.3	39.9	20.0	17	29	13	39.9	20.0	28.3	3	2.260	0.000	D	29	20.0	597.437	599.343	601.603	601.605	0
1	22072006	183	Low	10.0	Vague	2	13	16	22	28.3	46.3	7.0	13	16	22	28.3	46.3	7.0	2	0.828	0.000	D	16	46.3	602.108	602.799	603.627	603.629	0
1	22072006	184	Low	10.0	Vague	2	14	18	29	23.3	40.0	20.0	14	18	29	23.3	40.0	20.0	1	1.442	0.000	L	14	23.3	604.132	606.064	607.507	607.509	0
1	22072006	185	Low	10.0	Vague	2	13	12	22	28.3	31.6	7.0	13	22	12	28.3	7.0	31.6	1	2.970	0.000	L	13	28.3	608.012	609.432	612.402	612.405	0
1	22072006	186	Low	10.0	Precise	1	14	12	4	23.3	31.6	10.0	14	4	12	23.3	10.0	31.6	3	1.280	0.001	D	4	10.0	612.908	614.618	615.899	615.901	0
1	22072006	187	Low	10.0	Precise	1	13	18	3	28.3	40.0	2.2	13	18	3	28.3	40.0	2.2	1	2.794	0.001	L	13	28.3	616.404	618.632	621.427	621.429	0
1	22072006	188	Low	10.0	Precise	1	12	18	7	31.6	40.0	1.0	18	12	7	40.0	31.6	1.0	1	2.739	0.000	D	12	31.6	621.932	622.656	625.395	625.397	0
1	22072006	189	Low	10.0	Vague	2	17	16	29	39.9	46.3	20.0	29	16	17	20.0	46.3	39.9	2	0.634	0.000	D	16	46.3	625.900	627.432	628.067	628.069	0
1	22072006	190	Low	10.0	Precise	1	17	18	6	39.9	40.0	2.9	18	6	17	40.0	2.9	39.9	2	2.097	0.000	L	18	40.0	628.571	629.442	631.539	631.541	0
1	22072006	191	Low	10.0	Vague	2	14	13	23	23.3	28.3	1.0	23	13	14	1.0	28.3	23.3	1	1.883	0.000	R	14	23.3	632.043	634.560	636.442	636.445	0
1	22072006	192	Low	10.0	Vague	2	13	12	29	28.3	31.6	20.0	12	29	13	31.6	20.0	28.3	3	1.625	0.001	D	29	20.0	636.949	637.473	639.099	639.101	0
1	22072006	193	Low	10.0	Precise	1	14	18	7	23.3	40.0	1.0	14	7	18	23.3	1.0	40.0	1	1.215	0.000	L	14	23.3	639.604	642.292	643.507	643.509	0
1	22072006	194	Low	10.0	Precise	1	12	17	4	31.6	39.9	10.0	17	4	12	39.9	10.0	31.6	3	1.152	0.000	D	4	10.0	644.012	646.827	647.979	647.981	0
1	22072006	195	Low	10.0	Precise	1	17	16	6	39.9	46.3	2.9	6	16	17	2.9	46.3	39.9	2	0.893	0.000	D	16	46.3	648.483	649.373	650.266	650.269	0
1	22072006	196	Low	10.0	Vague	2	14	18	21	23.3	40.0	1.0	18	14	21	40.0	23.3	1.0	1	1.135	0.000	D	14	23.3	650.772	651.388	652.522	652.525	0
1	22072006	197	Low	10.0	Vague	2	13	16	21	28.3	46.3	1.0	13	16	21	28.3	46.3	1.0	2	0.632	0.001	D	16	46.3	653.028	655.946	656.579	656.581	0
1	22072006	198	Low	10.0	Precise	1	14	17	6	23.3	39.9	2.9	17	6	14	39.9	2.9	23.3	1	1.090	0.001	R	14	23.3	657.084	658.305	659.395	659.397	0
1	22072006	199	Low	10.0	Vague	2	14	16	21	23.3	46.3	1.0	14	16	21	23.3	46.3	1.0	2	0.623	0.001	D	16	46.3	659.900	661.092	661.715	661.717	0
1	22072006	200	Low	10.0	Vague	2	12	16	29	31.6	46.3	20.0	29	12	16	20.0	31.6	46.3	2	0.727	0.000	R	16	46.3	662.221	664.771	665.499	665.501	0
1	22072006	201	Low	10.0	Precise	1	12	16	4	31.6	46.3	10.0	4	12	16	10.0	31.6	46.3	2	0.801	0.000	R	16	46.3	666.004	667.937	668.738	668.741	0
1	22072006	202	Low	10.0	Precise	1	13	12	6	28.3	31.6	2.9	13	6	12	28.3	2.9	31.6	1	1.542	0.000	L	13	28.3	669.243	670.341	671.882	671.885	0
1	22072006	203	Low	10.0	Precise	1	14	13	3	23.3	28.3	2.2	14	13	3	23.3	28.3	2.2	1	1.312	0.001	L	14	23.3	672.388	675.090	676.403	676.405	0
1	22072006	204	Low	10.0	Precise	1	13	12	15	28.3	31.6	23.2	12	13	15	31.6	28.3	23.2	3	1.960	0.000	R	15	23.2	676.907	678.026	679.986	679.989	0
1	22072006	205	Low	10.0	Vague	2	12	17	29	31.6	39.9	20.0	17	29	12	39.9	20.0	31.6	3	1.598	0.000	D	29	20.0	680.491	683.188	684.786	684.789	0
1	22072006	206	Low	10.0	Vague	2	14	17	23	23.3	39.9	1.0	17	23	14	39.9	1.0	23.3	1	1.188	0.000	R	14	23.3	685.291	687.206	688.394	688.397	0
1	22072006	207	Low	10.0	Precise	1	12	16	15	31.6	46.3	23.2	15	12	16	23.2	31.6	46.3	2	0.697	0.000	R	16	46.3	688.899	691.802	692.499	692.501	0
1	22072006	208	Low	10.0	Precise	1	13	16	7	28.3	46.3	1.0	7	13	16	1.0	28.3	46.3	2	0.594	0.000	R	16	46.3	693.004	694.353	694.946	694.949	0
1	22072006	209	Low	10.0	Vague	2	13	16	29	28.3	46.3	20.0	16	13	29	46.3	28.3	20.0	2	0.650	0.001	L	16	46.3	695.452	696.265	696.915	696.917	0
1	22072006	210	Low	10.0	Precise	1	14	16	10	23.3	46.3	23.0	16	10	14	46.3	23.0	23.3	2	0.571	0.000	L	16	46.3	697.420	698.343	698.914	698.917	0
1	22072006	211	Low	10.0	Precise	1	14	13	10	23.3	28.3	23.0	10	14	13	23.0	23.3	28.3	2	3.806	0.000	R	13	28.3	699.420	701.805	705.610	705.613	0
1	22072006	212	Low	10.0	Precise	1	14	12	3	23.3	31.6	2.2	14	12	3	23.3	31.6	2.2	1	1.294	0.000	L	14	23.3	706.116	708.589	709.883	709.885	0
1	22072006	213	Low	10.0	Precise	1	14	13	4	23.3	28.3	10.0	13	4	14	28.3	10.0	23.3	1	1.811	0.000	R	14	23.3	710.387	711.791	713.602	713.604	0
1	22072006	214	Low	10.0	Precise	1	14	18	6	23.3	40.0	2.9	6	18	14	2.9	40.0	23.3	1	1.092	0.000	R	14	23.3	714.108	716.230	717.322	717.325	0
1	22072006	215	Low	10.0	Precise	1	14	17	3	23.3	39.9	2.2	14	17	3	23.3	39.9	2.2	1	1.416	0.001	L	14	23.3	717.827	719.691	721.107	721.109	0
1	22072006	216	Low	10.0	Precise	1	12	18	6	31.6	40.0	2.9	12	6	18	31.6	2.9	40.0	2	3.062	0.000	R	18	40.0	721.611	723.749	726.811	726.813	0
1	22072006	217	Low	10.0	Precise	1	14	16	7	23.3	46.3	1.0	7	14	16	1.0	23.3	46.3	2	0.644	0.000	R	16	46.3	727.316	729.750	730.394	730.396	0
1	22072006	218	Low	10.0	Precise	1	17	18	3	39.9	40.0	2.2	18	17	3	40.0	39.9	2.2	2	2.409	0.001	L	18	40.0	730.900	732.425	734.834	734.837	0
1	22072006	219	Low	10.0	Precise	1	14	13	15	23.3	28.3	23.2	15	13	14	23.2	28.3	23.3	1	1.318	0.000	R	14	23.3	735.340	738.124	739.442	739.445	0
1	22072006	220	Low	10.0	Precise	1	14	16	15	23.3	46.3	23.2	16	14	15	46.3	23.3	23.2	2	0.727	0.000	L	16	46.3	739.948	741.459	742.187	742.189	0
1	22072006	221	Low	10.0	Vague	2	18	16	24	40.0	46.3	0.5	24	16	18	0.5	46.3	40.0	2	1.090	0.000	D	16	46.3	742.692	743.664	744.754	744.757	0
1	22072006	222	Low	10.0	Vague	2	12	18	22	31.6	40.0	7.0	12	22	18	31.6	7.0	40.0	2	2.356	0.000	R	18	40.0	745.259	745.791	748.146	748.149	0
1	22072006	223	Low	10.0	Vague	2	14	13	21	23.3	28.3	1.0	14	21	13	23.3	1.0	28.3	1	1.395	0.001	L	14	23.3	748.651	751.056	752.451	752.453	0
1	22072006	224	Low	10.0	Vague	2	13	18	22	28.3	40.0	7.0	22	13	18	7.0	28.3	40.0	2	1.733	0.000	R	18	40.0	752.956	754.790	756.522	756.525	0
1	22072006	225	Low	10.0	Vague	2	17	16	22	39.9	46.3	7.0	17	16	22	39.9	46.3	7.0	2	0.841	0.001	D	16	46.3	757.027	757.850	758.691	758.693	0
1	22072006	226	Low	10.0	Vague	2	14	18	24	23.3	40.0	0.5	14	24	18	23.3	0.5	40.0	1	1.623	0.000	L	14	23.3	759.196	760.131	761.754	761.757	0
1	22072006	227	Low	10.0	Vague	2	13	17	24	28.3	39.9	0.5	24	13	17	0.5	28.3	39.9	1	1.366	0.000	D	13	28.3	762.259	764.293	765.658	765.661	0
1	22072006	228	Low	10.0	Vague	2	18	16	29	40.0	46.3	20.0	18	16	29	40.0	46.3	20.0	2	0.882	0.000	D	16	46.3	766.164	766.841	767.722	767.725	0
1	22072006	229	Low	10.0	Precise	1	18	16	6	40.0	46.3	2.9	18	6	16	40.0	2.9	46.3	2	0.783	0.000	R	16	46.3	768.227	770.515	771.298	771.301	0
1	22072006	230	Low	10.0	Vague	2	17	18	27	39.9	40.0	20.0	18	17	27	40.0	39.9	20.0	3	1.530	0.001	R	27	20.0	771.804	773.560	775.090	775.093	0
1	22072006	231	Low	10.0	Precise	1	17	16	15	39.9	46.3	23.2	15	16	17	23.2	46.3	39.9	2	1.000	0.000	D	16	46.3	775.596	777.763	778.763	778.765	0
1	22072006	232	Low	10.0	Precise	1	13	16	6	28.3	46.3	2.9	6	13	16	2.9	28.3	46.3	2	0.748	0.000	R	16	46.3	779.268	780.838	781.586	781.589	0
1	22072006	233	Low	10.0	Precise	1	17	16	7	39.9	46.3	1.0	7	16	17	1.0	46.3	39.9	2	0.897	0.001	D	16	46.3	782.092	783.530	784.426	784.429	0
1	22072006	234	Low	10.0	Precise	1	12	17	15	31.6	39.9	23.2	12	17	15	31.6	39.9	23.2	3	1.794	0.001	R	15	23.2	784.931	785.841	787.634	787.637	0
1	22072006	235	Low	10.0	Vague	2	14	16	24	23.3	46.3	0.5	16	24	14	46.3	0.5	23.3	2	0.872	0.000	L	16	46.3	788.140	789.658	790.530	790.533	0
1	22072006	236	Low	10.0	Precise	1	14	12	15	23.3	31.6	23.2	14	15	12	23.3	23.2	31.6	1	4.427	0.000	L	14	23.3	791.035	793.239	797.666	797.669	0
1	22072006	237	Low	10.0	Precise	1	14	12	7	23.3	31.6	1.0	7	12	14	1.0	31.6	23.3	1	1.066	0.000	R	14	23.3	798.171	798.768	799.834	799.837	0
1	22072006	238	Low	10.0	Precise	1	18	16	7	40.0	46.3	1.0	18	16	7	40.0	46.3	1.0	2	0.738	0.000	D	16	46.3	800.340	803.264	804.002	804.005	0
1	22072006	239	Low	10.0	Vague	2	13	18	23	28.3	40.0	1.0	13	23	18	28.3	1.0	40.0	2	1.747	0.000	R	18	40.0	804.507	806.431	808.178	808.181	0
1	22072006	240	Low	10.0	Vague	2	13	18	27	28.3	40.0	20.0	13	27	18	28.3	20.0	40.0	3	1.322	0.001	D	27	20.0	808.683	810.689	812.010	812.013	0
1	22072006	241	Low	10.0	Vague	2	17	16	27	39.9	46.3	20.0	27	16	17	20.0	46.3	39.9	2	0.688	0.000	D	16	46.3	820.544	822.675	823.362	823.365	0
1	22072006	242	Low	10.0	Vague	2	14	18	22	23.3	40.0	7.0	18	14	22	40.0	23.3	7.0	1	1.226	0.001	D	14	23.3	823.868	824.848	826.075	826.077	0
1	22072006	243	Low	10.0	Vague	2	14	17	27	23.3	39.9	20.0	17	27	14	39.9	20.0	23.3	1	1.332	0.000	R	14	23.3	826.579	828.822	830.154	830.157	0
1	22072006	244	Low	10.0	Vague	2	13	17	23	28.3	39.9	1.0	13	23	17	28.3	1.0	39.9	1	1.726	0.000	L	13	28.3	830.660	833.340	835.066	835.069	0
1	22072006	245	Low	10.0	Vague	2	12	17	23	31.6	39.9	1.0	23	17	12	1.0	39.9	31.6	1	1.294	0.000	R	12	31.6	835.571	836.084	837.378	837.381	0
1	22072006	246	Low	10.0	Vague	2	13	12	27	28.3	31.6	20.0	13	12	27	28.3	31.6	20.0	3	2.558	0.001	R	27	20.0	837.883	839.084	841.642	841.645	0
1	22072006	247	Low	10.0	Precise	1	14	18	10	23.3	40.0	23.0	10	18	14	23.0	40.0	23.3	1	0.766	0.000	R	14	23.3	842.148	844.517	845.282	845.285	0
1	22072006	248	Low	10.0	Precise	1	13	12	4	28.3	31.6	10.0	13	12	4	28.3	31.6	10.0	3	0.953	0.000	R	4	10.0	845.787	848.385	849.338	849.341	0
1	22072006	249	Low	10.0	Precise	1	18	16	4	40.0	46.3	10.0	18	4	16	40.0	10.0	46.3	2	0.706	0.000	R	16	46.3	849.843	850.401	851.106	851.109	0
1	22072006	250	Low	10.0	Vague	2	13	17	21	28.3	39.9	1.0	17	13	21	39.9	28.3	1.0	1	1.471	0.000	D	13	28.3	851.611	852.163	853.634	853.637	0
1	22072006	251	Low	10.0	Vague	2	12	17	22	31.6	39.9	7.0	12	17	22	31.6	39.9	7.0	1	1.755	0.001	L	12	31.6	854.140	854.703	856.458	856.461	0
1	22072006	252	Low	10.0	Vague	2	12	18	23	31.6	40.0	1.0	18	23	12	40.0	1.0	31.6	2	1.674	0.001	L	18	40.0	856.964	858.488	860.162	860.166	0
1	22072006	253	Low	10.0	Vague	2	14	16	29	23.3	46.3	20.0	16	29	14	46.3	20.0	23.3	2	0.589	0.000	L	16	46.3	860.668	862.453	863.042	863.045	0
1	22072006	254	Low	10.0	Precise	1	14	12	6	23.3	31.6	2.9	6	14	12	2.9	23.3	31.6	1	1.627	0.001	D	14	23.3	863.547	865.343	866.970	866.973	0
1	22072006	255	Low	10.0	Precise	1	13	18	7	28.3	40.0	1.0	13	7	18	28.3	1.0	40.0	2	1.205	0.000	R	18	40.0	867.476	870.198	871.402	871.405	0
1	22072006	256	Low	10.0	Precise	1	12	16	6	31.6	46.3	2.9	6	12	16	2.9	31.6	46.3	2	0.711	0.000	R	16	46.3	871.908	872.699	873.410	873.412	0
1	22072006	257	Low	10.0	Precise	1	17	18	4	39.9	40.0	10.0	4	18	17	10.0	40.0	39.9	3	1.018	0.000	L	4	10.0	873.915	875.168	876.186	876.188	0
1	22072006	258	Low	10.0	Vague	2	18	16	27	40.0	46.3	20.0	27	18	16	20.0	40.0	46.3	2	0.739	0.001	R	16	46.3	876.692	879.007	879.746	879.749	0
1	22072006	259	Low	10.0	Precise	1	14	13	7	23.3	28.3	1.0	13	7	14	28.3	1.0	23.3	1	0.908	0.000	R	14	23.3	880.251	882.462	883.370	883.373	0
1	22072006	260	Low	10.0	Precise	1	13	18	10	28.3	40.0	23.0	10	18	13	23.0	40.0	28.3	1	2.138	0.001	R	13	28.3	883.875	884.696	886.834	886.837	0
1	22072006	261	Low	10.0	Precise	1	14	13	6	23.3	28.3	2.9	13	14	6	28.3	23.3	2.9	2	1.567	0.000	L	13	28.3	887.340	889.979	891.546	891.549	0
1	22072006	262	Low	10.0	Vague	2	12	16	21	31.6	46.3	1.0	21	12	16	1.0	31.6	46.3	2	0.807	0.001	R	16	46.3	892.051	894.443	895.250	895.253	0
1	22072006	263	Low	10.0	Precise	1	17	18	10	39.9	40.0	23.0	18	17	10	40.0	39.9	23.0	2	1.841	0.000	L	18	40.0	895.755	897.473	899.314	899.317	0
1	22072006	264	Low	10.0	Vague	2	14	17	22	23.3	39.9	7.0	14	17	22	23.3	39.9	7.0	1	0.980	0.000	L	14	23.3	899.820	901.054	902.034	902.037	0
1	22072006	265	Low	10.0	Vague	2	17	16	24	39.9	46.3	0.5	24	16	17	0.5	46.3	39.9	2	0.916	0.000	D	16	46.3	902.539	904.126	905.042	905.044	0
1	22072006	266	Low	10.0	Vague	2	14	12	27	23.3	31.6	20.0	14	27	12	23.3	20.0	31.6	1	1.554	0.000	L	14	23.3	905.547	907.768	909.322	909.325	0
1	22072006	267	Low	10.0	Precise	1	12	17	10	31.6	39.9	23.0	10	12	17	23.0	31.6	39.9	1	1.932	0.000	D	12	31.6	909.828	910.511	912.442	912.445	0
1	22072006	268	Low	10.0	Vague	2	13	12	21	28.3	31.6	1.0	12	13	21	31.6	28.3	1.0	2	1.556	0.000	L	12	31.6	912.947	913.742	915.298	915.300	0
1	22072006	269	Low	10.0	Vague	2	14	12	24	23.3	31.6	0.5	24	12	14	0.5	31.6	23.3	1	1.557	0.000	R	14	23.3	915.804	916.597	918.154	918.157	0
1	22072006	270	Low	10.0	Precise	1	17	18	15	39.9	40.0	23.2	17	15	18	39.9	23.2	40.0	2	2.014	0.000	R	18	40.0	918.659	919.525	921.538	921.541	0
1	22072006	271	Low	10.0	Precise	1	17	16	10	39.9	46.3	23.0	17	16	10	39.9	46.3	23.0	2	1.139	0.001	D	16	46.3	922.044	924.159	925.298	925.301	0
1	22072006	272	Low	10.0	Vague	2	12	18	27	31.6	40.0	20.0	27	18	12	20.0	40.0	31.6	2	1.962	0.001	D	18	40.0	925.803	926.832	928.794	928.797	0
1	22072006	273	Low	10.0	Vague	2	14	13	22	23.3	28.3	7.0	22	13	14	7.0	28.3	23.3	1	1.155	0.001	R	14	23.3	929.299	930.847	932.002	932.005	0
1	22072006	274	Low	10.0	Precise	1	13	17	15	28.3	39.9	23.2	13	15	17	28.3	23.2	39.9	3	1.647	0.000	D	15	23.2	932.508	934.371	936.018	936.021	0
1	22072006	275	Low	10.0	Precise	1	13	12	7	28.3	31.6	1.0	12	13	7	31.6	28.3	1.0	2	1.925	0.001	L	12	31.6	936.523	938.485	940.410	940.414	0
1	22072006	276	Low	10.0	Vague	2	17	18	29	39.9	40.0	20.0	17	29	18	39.9	20.0	40.0	3	1.518	0.000	D	29	20.0	940.916	942.316	943.834	943.837	0
1	22072006	277	Low	10.0	Precise	1	12	18	4	31.6	40.0	10.0	18	4	12	40.0	10.0	31.6	3	1.080	0.000	D	4	10.0	944.339	946.026	947.106	947.108	0
1	22072006	278	Low	10.0	Precise	1	12	17	7	31.6	39.9	1.0	17	12	7	39.9	31.6	1.0	1	1.572	0.000	D	12	31.6	947.611	950.510	952.082	952.084	0
1	22072006	279	Low	10.0	Vague	2	13	18	21	28.3	40.0	1.0	21	18	13	1.0	40.0	28.3	2	1.621	0.001	D	18	40.0	952.587	954.822	956.443	956.445	0
1	22072006	280	Low	10.0	Precise	1	12	16	7	31.6	46.3	1.0	12	16	7	31.6	46.3	1.0	2	0.749	0.001	D	16	46.3	956.948	958.085	958.834	958.837	0
1	22072006	281	Low	10.0	Vague	2	12	17	27	31.6	39.9	20.0	12	17	27	31.6	39.9	20.0	3	1.028	0.001	R	27	20.0	959.340	960.479	961.506	961.509	0
1	22072006	282	Low	10.0	Vague	2	12	17	24	31.6	39.9	0.5	24	12	17	0.5	31.6	39.9	1	1.623	0.000	D	12	31.6	962.011	963.276	964.898	964.901	0
1	22072006	283	Low	10.0	Precise	1	14	17	4	23.3	39.9	10.0	17	4	14	39.9	10.0	23.3	1	1.512	0.000	R	14	23.3	965.404	967.290	968.802	968.805	0
1	22072006	284	Low	10.0	Vague	2	17	18	21	39.9	40.0	1.0	18	21	17	40.0	1.0	39.9	2	1.359	0.000	L	18	40.0	969.308	971.195	972.554	972.557	0
1	22072006	285	Low	10.0	Vague	2	17	16	23	39.9	46.3	1.0	16	23	17	46.3	1.0	39.9	2	0.617	0.000	L	16	46.3	973.059	974.425	975.042	975.044	0
1	22072006	286	Low	10.0	Vague	2	14	12	29	23.3	31.6	20.0	14	29	12	23.3	20.0	31.6	1	1.553	0.000	L	14	23.3	975.547	976.977	978.530	978.532	0
1	22072006	287	Low	10.0	Vague	2	13	18	24	28.3	40.0	0.5	24	13	18	0.5	28.3	40.0	2	1.197	0.000	R	18	40.0	979.035	981.797	982.994	982.997	0
1	22072006	288	Low	10.0	Vague	2	12	18	29	31.6	40.0	20.0	29	12	18	20.0	31.6	40.0	3	1.274	0.000	L	29	20.0	983.500	985.424	986.698	986.700	0
1	22072006	289	Low	10.0	Precise	1	13	12	10	28.3	31.6	23.0	13	10	12	28.3	23.0	31.6	2	2.312	0.000	R	12	31.6	987.203	989.786	992.098	992.100	0
1	22072006	290	Low	10.0	Vague	2	18	16	21	40.0	46.3	1.0	16	18	21	46.3	40.0	1.0	2	0.859	0.000	L	16	46.3	992.604	993.775	994.634	994.636	0
1	22072006	291	Low	10.0	Precise	1	12	16	3	31.6	46.3	2.2	12	3	16	31.6	2.2	46.3	2	0.777	0.000	R	16	46.3	995.140	996.210	996.986	996.989	0
1	22072006	292	Low	10.0	Vague	2	14	13	24	23.3	28.3	0.5	13	24	14	28.3	0.5	23.3	1	0.831	0.000	R	14	23.3	997.491	999.835	1000.666	1000.668	0
1	22072006	293	Low	10.0	Vague	2	12	18	21	31.6	40.0	1.0	21	18	12	1.0	40.0	31.6	2	1.484	0.000	D	18	40.0	1001.171	1003.158	1004.642	1004.645	0
1	22072006	294	Low	10.0	Precise	1	12	17	3	31.6	39.9	2.2	3	17	12	2.2	39.9	31.6	1	1.395	0.001	R	12	31.6	1005.147	1006.343	1007.738	1007.741	0
1	22072006	295	Low	10.0	Vague	2	14	17	29	23.3	39.9	20.0	17	14	29	39.9	23.3	20.0	1	1.091	0.001	D	14	23.3	1008.244	1010.783	1011.874	1011.877	0
1	22072006	296	Low	10.0	Precise	1	13	16	3	28.3	46.3	2.2	16	13	3	46.3	28.3	2.2	2	0.646	0.001	L	16	46.3	1012.379	1015.028	1015.674	1015.677	0
1	22072006	297	Low	10.0	Precise	1	13	18	15	28.3	40.0	23.2	15	13	18	23.2	28.3	40.0	2	1.696	0.001	R	18	40.0	1016.180	1017.907	1019.602	1019.605	0
1	22072006	298	Low	10.0	Precise	1	13	17	7	28.3	39.9	1.0	7	17	13	1.0	39.9	28.3	1	2.520	0.000	R	13	28.3	1020.107	1021.610	1024.130	1024.132	0
1	22072006	299	Low	10.0	Precise	1	12	18	3	31.6	40.0	2.2	18	3	12	40.0	2.2	31.6	2	1.621	0.001	L	18	40.0	1024.635	1025.901	1027.522	1027.524	0
1	22072006	300	Low	10.0	Precise	1	13	17	3	28.3	39.9	2.2	3	17	13	2.2	39.9	28.3	1	3.000	0.000	R	13	28.3	1028.028	1029.746	1032.746	1032.749	0
1	22072006	301	Low	10.0	Precise	1	14	12	10	23.3	31.6	23.0	10	12	14	23.0	31.6	23.3	1	0.709	0.000	R	14	23.3	1039.765	1042.165	1042.874	1042.876	0
1	22072006	302	Low	10.0	Precise	1	14	17	15	23.3	39.9	23.2	17	14	15	39.9	23.3	23.2	1	1.208	0.000	D	14	23.3	1043.379	1045.387	1046.594	1046.596	0
1	22072006	303	Low	10.0	Precise	1	14	18	15	23.3	40.0	23.2	18	14	15	40.0	23.3	23.2	1	0.921	0.000	D	14	23.3	1047.099	1049.889	1050.810	1050.813	0
1	22072006	304	Low	10.0	Vague	2	14	12	23	23.3	31.6	1.0	23	12	14	1.0	31.6	23.3	1	0.632	0.001	R	14	23.3	1051.315	1053.738	1054.370	1054.373	0
1	22072006	305	Low	10.0	Precise	1	18	16	10	40.0	46.3	23.0	16	10	18	46.3	23.0	40.0	2	0.615	0.001	L	16	46.3	1054.876	1055.460	1056.074	1056.076	0
1	22072006	306	Low	10.0	Vague	2	12	17	21	31.6	39.9	1.0	17	12	21	39.9	31.6	1.0	1	1.311	0.000	D	12	31.6	1056.579	1059.315	1060.626	1060.629	0
1	22072006	307	Low	10.0	Precise	1	14	17	7	23.3	39.9	1.0	17	7	14	39.9	1.0	23.3	1	0.811	0.000	R	14	23.3	1061.131	1062.551	1063.362	1063.364	0
1	22072006	308	Low	10.0	Vague	2	12	16	24	31.6	46.3	0.5	12	24	16	31.6	0.5	46.3	2	0.742	0.000	R	16	46.3	1063.867	1065.012	1065.754	1065.757	0
1	22072006	309	Low	10.0	Vague	2	13	12	23	28.3	31.6	1.0	23	13	12	1.0	28.3	31.6	1	1.616	0.000	D	13	28.3	1066.260	1068.114	1069.730	1069.732	0
1	22072006	310	Low	10.0	Vague	2	13	16	27	28.3	46.3	20.0	13	16	27	28.3	46.3	20.0	2	0.867	0.000	D	16	46.3	1070.236	1073.215	1074.082	1074.085	0
1	22072006	311	Low	10.0	Vague	2	12	16	22	31.6	46.3	7.0	22	16	12	7.0	46.3	31.6	2	0.694	0.000	D	16	46.3	1074.587	1076.428	1077.122	1077.124	0
1	22072006	312	Low	10.0	Precise	1	12	17	6	31.6	39.9	2.9	6	12	17	2.9	31.6	39.9	1	1.564	0.000	D	12	31.6	1077.628	1080.006	1081.570	1081.573	0
1	22072006	313	Low	10.0	Precise	1	13	17	10	28.3	39.9	23.0	10	17	13	23.0	39.9	28.3	3	2.722	0.000	L	10	23.0	1082.076	1083.576	1086.298	1086.300	0
1	22072006	314	Low	10.0	Vague	2	12	16	27	31.6	46.3	20.0	12	27	16	31.6	20.0	46.3	2	0.680	0.000	R	16	46.3	1086.804	1087.578	1088.258	1088.260	0
1	22072006	315	Low	10.0	Precise	1	13	18	4	28.3	40.0	10.0	18	13	4	40.0	28.3	10.0	3	1.095	0.000	R	4	10.0	1088.764	1089.626	1090.722	1090.725	0
1	22072006	316	Low	10.0	Vague	2	17	18	22	39.9	40.0	7.0	17	18	22	39.9	40.0	7.0	2	1.664	0.000	D	18	40.0	1091.228	1092.242	1093.906	1093.909	0
1	22072006	317	Low	10.0	Vague	2	14	16	22	23.3	46.3	7.0	14	16	22	23.3	46.3	7.0	2	0.577	0.000	D	16	46.3	1094.411	1096.329	1096.906	1096.909	0
1	22072006	318	Low	10.0	Precise	1	14	18	3	23.3	40.0	2.2	18	3	14	40.0	2.2	23.3	1	0.699	0.000	R	14	23.3	1097.412	1099.927	1100.626	1100.629	0
1	22072006	319	Low	10.0	Vague	2	13	16	24	28.3	46.3	0.5	13	24	16	28.3	0.5	46.3	2	0.824	0.000	R	16	46.3	1101.131	1102.522	1103.346	1103.348	0
1	22072006	320	Low	10.0	Vague	2	14	17	21	23.3	39.9	1.0	14	21	17	23.3	1.0	39.9	1	0.805	0.001	L	14	23.3	1103.852	1106.037	1106.842	1106.845	0
1	22072006	321	Low	10.0	Precise	1	12	16	10	31.6	46.3	23.0	12	10	16	31.6	23.0	46.3	2	0.600	0.000	R	16	46.3	1107.348	1108.794	1109.394	1109.397	0
1	22072006	322	Low	10.0	Vague	2	14	16	27	23.3	46.3	20.0	27	14	16	20.0	23.3	46.3	2	0.544	0.000	R	16	46.3	1109.900	1110.490	1111.034	1111.036	0
1	22072006	323	Low	10.0	Vague	2	13	18	29	28.3	40.0	20.0	13	18	29	28.3	40.0	20.0	3	1.537	0.001	R	29	20.0	1111.539	1113.929	1115.466	1115.469	0
1	22072006	324	Low	10.0	Vague	2	12	16	23	31.6	46.3	1.0	16	12	23	46.3	31.6	1.0	2	0.801	0.000	L	16	46.3	1115.971	1118.065	1118.866	1118.868	0
1	22072006	325	Low	10.0	Vague	2	13	17	22	28.3	39.9	7.0	17	13	22	39.9	28.3	7.0	1	2.615	0.000	D	13	28.3	1119.372	1121.996	1124.610	1124.613	0
1	22072006	326	Low	10.0	Vague	2	14	17	24	23.3	39.9	0.5	14	17	24	23.3	39.9	0.5	1	1.006	0.001	L	14	23.3	1125.116	1127.788	1128.794	1128.797	0
1	22072006	327	Low	10.0	Precise	1	12	18	15	31.6	40.0	23.2	18	15	12	40.0	23.2	31.6	2	1.785	0.001	L	18	40.0	1129.299	1131.905	1133.690	1133.693	0
1	22072006	328	Low	10.0	Precise	1	13	16	10	28.3	46.3	23.0	13	16	10	28.3	46.3	23.0	2	0.704	0.000	D	16	46.3	1134.196	1136.754	1137.458	1137.460	0
1	22072006	329	Low	10.0	Precise	1	13	17	4	28.3	39.9	10.0	13	17	4	28.3	39.9	10.0	3	1.032	0.000	R	4	10.0	1137.963	1140.178	1141.210	1141.212	0
1	22072006	330	Low	10.0	Precise	1	14	16	4	23.3	46.3	10.0	14	16	4	23.3	46.3	10.0	2	0.680	0.001	D	16	46.3	1141.715	1144.330	1145.010	1145.012	0
1	22072006	331	Low	10.0	Precise	1	14	18	4	23.3	40.0	10.0	18	14	4	40.0	23.3	10.0	1	1.089	0.000	D	14	23.3	1145.515	1147.345	1148.434	1148.437	0
1	22072006	332	Low	10.0	Vague	2	14	18	27	23.3	40.0	20.0	18	27	14	40.0	20.0	23.3	1	1.108	0.000	R	14	23.3	1148.940	1151.430	1152.538	1152.540	0
1	22072006	333	Low	10.0	Vague	2	14	13	27	23.3	28.3	20.0	27	13	14	20.0	28.3	23.3	1	0.664	0.000	R	14	23.3	1153.044	1155.762	1156.426	1156.429	0
1	22072006	334	Low	10.0	Precise	1	13	16	15	28.3	46.3	23.2	16	13	15	46.3	28.3	23.2	2	0.559	0.001	L	16	46.3	1156.931	1159.611	1160.170	1160.172	0
1	22072006	335	Low	10.0	Precise	1	18	16	3	40.0	46.3	2.2	16	3	18	46.3	2.2	40.0	2	0.513	0.000	L	16	46.3	1160.675	1162.113	1162.626	1162.628	0
1	22072006	336	Low	10.0	Vague	2	12	18	24	31.6	40.0	0.5	24	18	12	0.5	40.0	31.6	2	2.267	0.000	D	18	40.0	1163.132	1165.455	1167.722	1167.725	0
1	22072006	337	Low	10.0	Vague	2	17	18	23	39.9	40.0	1.0	18	17	23	40.0	39.9	1.0	2	1.553	0.000	L	18	40.0	1168.227	1169.257	1170.810	1170.812	0
1	22072006	338	Low	10.0	Precise	1	14	17	10	23.3	39.9	23.0	10	14	17	23.0	23.3	39.9	1	0.961	0.000	D	14	23.3	1171.315	1171.882	1172.842	1172.845	0
1	22072006	339	Low	10.0	Vague	2	13	16	23	28.3	46.3	1.0	13	23	16	28.3	1.0	46.3	2	0.584	0.000	R	16	46.3	1173.348	1173.866	1174.450	1174.453	0
1	22072006	340	Low	10.0	Precise	1	13	12	3	28.3	31.6	2.2	13	12	3	28.3	31.6	2.2	2	1.586	0.001	D	12	31.6	1174.956	1176.024	1177.610	1177.613	0
1	22072006	341	Low	10.0	Vague	2	14	12	22	23.3	31.6	7.0	14	12	22	23.3	31.6	7.0	1	1.337	0.000	L	14	23.3	1178.116	1179.865	1181.202	1181.204	0
1	22072006	342	Low	10.0	Vague	2	14	16	23	23.3	46.3	1.0	16	14	23	46.3	23.3	1.0	2	0.508	0.000	L	16	46.3	1181.708	1182.902	1183.410	1183.412	0
1	22072006	343	Low	10.0	Vague	2	18	16	22	40.0	46.3	7.0	22	18	16	7.0	40.0	46.3	2	0.644	0.001	R	16	46.3	1183.915	1185.326	1185.970	1185.972	0
1	22072006	344	Low	10.0	Precise	1	14	16	3	23.3	46.3	2.2	3	14	16	2.2	23.3	46.3	2	0.713	0.001	R	16	46.3	1186.475	1188.873	1189.586	1189.588	0
1	22072006	345	Low	10.0	Precise	1	12	18	10	31.6	40.0	23.0	12	18	10	31.6	40.0	23.0	2	2.375	0.001	D	18	40.0	1190.091	1191.139	1193.514	1193.517	0
1	22072006	346	Low	10.0	Precise	1	17	18	7	39.9	40.0	1.0	18	7	17	40.0	1.0	39.9	2	1.368	0.000	L	18	40.0	1194.019	1195.306	1196.674	1196.676	0
1	22072006	347	Low	10.0	Vague	2	14	13	29	23.3	28.3	20.0	14	13	29	23.3	28.3	20.0	1	0.614	0.001	L	14	23.3	1197.179	1199.396	1200.010	1200.013	0
1	22072006	348	Low	10.0	Vague	2	13	12	24	28.3	31.6	0.5	13	24	12	28.3	0.5	31.6	2	2.003	0.001	R	12	31.6	1200.516	1201.639	1203.642	1203.645	0
1	22072006	349	Low	10.0	Precise	1	13	17	6	28.3	39.9	2.9	13	17	6	28.3	39.9	2.9	1	1.489	0.000	L	13	28.3	1204.147	1205.136	1206.626	1206.628	0
1	22072006	350	Low	10.0	Precise	1	18	16	15	40.0	46.3	23.2	18	15	16	40.0	23.2	46.3	2	0.550	0.000	R	16	46.3	1207.131	1208.140	1208.690	1208.692	0
1	22072006	351	Low	10.0	Vague	2	18	16	23	40.0	46.3	1.0	16	18	23	46.3	40.0	1.0	2	0.488	0.001	L	16	46.3	1209.195	1210.818	1211.306	1211.308	0
1	22072006	352	Low	10.0	Precise	1	17	16	3	39.9	46.3	2.2	16	17	3	46.3	39.9	2.2	2	0.553	0.001	L	16	46.3	1211.812	1213.033	1213.586	1213.589	0
1	22072006	353	Low	10.0	Vague	2	17	16	21	39.9	46.3	1.0	16	17	21	46.3	39.9	1.0	2	0.438	0.000	L	16	46.3	1214.092	1215.380	1215.818	1215.820	0
1	22072006	354	Low	10.0	Vague	2	17	18	24	39.9	40.0	0.5	18	24	17	40.0	0.5	39.9	2	1.003	0.000	L	18	40.0	1216.323	1218.487	1219.490	1219.493	0
1	22072006	355	Low	10.0	Precise	1	13	18	6	28.3	40.0	2.9	13	18	6	28.3	40.0	2.9	2	1.638	0.000	D	18	40.0	1219.996	1222.644	1224.282	1224.284	0
1	22072006	356	Low	10.0	Vague	2	14	18	23	23.3	40.0	1.0	18	23	14	40.0	1.0	23.3	3	0.610	0.001	D	23	1.0	1224.787	1227.216	1227.826	1227.829	0
1	22072006	357	Low	10.0	Vague	2	14	12	21	23.3	31.6	1.0	12	14	21	31.6	23.3	1.0	1	0.862	0.000	D	14	23.3	1228.331	1229.564	1230.426	1230.429	0
1	22072006	358	Low	10.0	Vague	2	13	17	27	28.3	39.9	20.0	27	13	17	20.0	28.3	39.9	3	1.302	0.000	L	27	20.0	1230.932	1233.044	1234.346	1234.348	0
1	22072006	359	Low	10.0	Precise	1	13	16	4	28.3	46.3	10.0	13	16	4	28.3	46.3	10.0	2	1.036	0.000	D	16	46.3	1234.851	1235.870	1236.906	1236.908	0
1	22072006	360	Low	10.0	Precise	1	17	16	4	39.9	46.3	10.0	16	4	17	46.3	10.0	39.9	2	0.758	0.000	L	16	46.3	1237.412	1240.172	1240.930	1240.932	0
