Group	subID	trial	TimePressure	TimeConstraint	Vagueness	Vaguenesscode	ID1	ID2	ID3	V1	V2	V3	ID_left	ID_middle	ID_right	Bid_left	Bid_middle	Bid_right	chosenItem	RT	RTvariance	chosenPosition	chosenID	chosenValue	fixation_time	option_time	choice_time	feedback_time	timeout
1	22102404	1	High	1.5	Precise	1	13	9	7	1.9	3.8	0.1	13	7	9	1.9	0.1	3.8	1	0.998	0.001	L	13	1.9	4.925	7.846	8.844	8.848	0
1	22102404	2	High	1.5	Precise	1	13	15	6	1.9	7.2	0.0	13	15	6	1.9	7.2	0.0	1	0.625	0.001	L	13	1.9	9.353	10.932	11.556	11.560	0
1	22102404	3	High	1.5	Precise	1	14	15	6	5.6	7.2	0.0	6	15	14	0.0	7.2	5.6	2	0.626	0.000	D	15	7.2	12.064	12.970	13.596	13.599	0
1	22102404	4	High	1.5	Vague	2	15	17	34	7.2	12.2	1.0	15	17	34	7.2	12.2	1.0	1	0.691	0.000	L	15	7.2	14.105	15.801	16.492	16.495	0
1	22102404	5	High	1.5	Vague	2	15	17	27	7.2	12.2	0.3	27	15	17	0.3	7.2	12.2	1	0.949	0.001	D	15	7.2	16.999	17.896	18.844	18.848	0
1	22102404	6	High	1.5	Vague	2	13	14	27	1.9	5.6	0.3	27	13	14	0.3	1.9	5.6	2	1.072	0.000	R	14	5.6	19.354	21.020	22.092	22.095	0
1	22102404	7	High	1.5	Precise	1	9	15	12	3.8	7.2	0.6	12	9	15	0.6	3.8	7.2	2	1.133	0.001	R	15	7.2	22.598	25.399	26.532	26.535	0
1	22102404	8	High	1.5	Vague	2	4	14	30	3.5	5.6	0.4	14	30	4	5.6	0.4	3.5	2	0.907	0.001	L	14	5.6	27.037	28.098	29.004	29.007	0
1	22102404	9	High	1.5	Precise	1	9	14	12	3.8	5.6	0.6	12	14	9	0.6	5.6	3.8	2	1.022	0.001	D	14	5.6	29.510	31.782	32.804	32.807	0
1	22102404	10	High	1.5	Precise	1	13	17	10	1.9	12.2	1.1	17	10	13	12.2	1.1	1.9	1	1.207	0.001	R	13	1.9	33.310	34.110	35.316	35.319	0
1	22102404	11	High	1.5	Vague	2	4	9	30	3.5	3.8	0.4	30	4	9	0.4	3.5	3.8	1	1.074	0.001	D	4	3.5	35.822	37.418	38.492	38.495	0
1	22102404	12	High	1.5	Vague	2	4	15	19	3.5	7.2	0.1	19	4	15	0.1	3.5	7.2	2	0.903	0.001	R	15	7.2	38.997	40.614	41.516	41.519	0
1	22102404	13	High	1.5	Precise	1	4	17	7	3.5	12.2	0.1	17	7	4	12.2	0.1	3.5	1	0.674	0.001	R	4	3.5	42.021	43.554	44.228	44.231	0
1	22102404	14	High	1.5	Vague	2	4	17	20	3.5	12.2	0.0	17	4	20	12.2	3.5	0.0	1	0.884	0.001	D	4	3.5	44.734	45.600	46.484	46.487	0
1	22102404	15	High	1.5	Precise	1	15	17	16	7.2	12.2	0.3	16	17	15	0.3	12.2	7.2	1	0.849	0.000	R	15	7.2	46.990	49.755	50.604	50.606	0
1	22102404	16	High	1.5	Precise	1	13	9	2	1.9	3.8	0.0	9	2	13	3.8	0.0	1.9	1	1.392	0.001	R	13	1.9	51.111	52.356	53.748	53.751	0
1	22102404	17	High	1.5	Vague	2	14	15	19	5.6	7.2	0.1	15	19	14	7.2	0.1	5.6	2	0.834	0.001	L	15	7.2	54.253	56.106	56.940	56.943	0
1	22102404	18	High	1.5	Precise	1	4	15	16	3.5	7.2	0.3	16	4	15	0.3	3.5	7.2	2	0.850	0.000	R	15	7.2	57.445	58.522	59.372	59.374	0
1	22102404	19	High	1.5	Vague	2	14	17	27	5.6	12.2	0.3	14	17	27	5.6	12.2	0.3	2	1.123	0.001	D	17	12.2	59.877	62.105	63.229	63.231	0
1	22102404	20	High	1.5	Vague	2	13	14	30	1.9	5.6	0.4	30	14	13	0.4	5.6	1.9	2	0.939	0.001	D	14	5.6	63.735	65.649	66.588	66.591	0
1	22102404	21	High	1.5	Precise	1	9	14	10	3.8	5.6	1.1	14	9	10	5.6	3.8	1.1	2	1.254	0.001	L	14	5.6	67.094	68.870	70.124	70.127	0
1	22102404	22	High	1.5	Precise	1	9	14	2	3.8	5.6	0.0	2	9	14	0.0	3.8	5.6	2	0.899	0.000	R	14	5.6	70.629	71.433	72.332	72.335	0
1	22102404	23	High	1.5	Precise	1	14	15	7	5.6	7.2	0.1	14	7	15	5.6	0.1	7.2	2	0.912	0.000	R	15	7.2	72.838	74.388	75.300	75.302	0
1	22102404	24	High	1.5	Precise	1	4	14	16	3.5	5.6	0.3	4	14	16	3.5	5.6	0.3	2	1.067	0.001	D	14	5.6	75.805	77.729	78.796	78.799	0
1	22102404	25	High	1.5	Precise	1	4	17	2	3.5	12.2	0.0	4	17	2	3.5	12.2	0.0	1	0.736	0.001	L	4	3.5	79.302	81.532	82.268	82.271	0
1	22102404	26	High	1.5	Vague	2	4	17	34	3.5	12.2	1.0	4	17	34	3.5	12.2	1.0	2	0.509	0.000	D	17	12.2	82.773	83.319	83.828	83.831	0
1	22102404	27	High	1.5	Precise	1	13	14	16	1.9	5.6	0.3	14	13	16	5.6	1.9	0.3	1	0.936	0.000	D	13	1.9	84.333	84.948	85.884	85.887	0
1	22102404	28	High	1.5	Vague	2	9	17	19	3.8	12.2	0.1	9	17	19	3.8	12.2	0.1	2	0.928	0.001	D	17	12.2	86.389	87.820	88.748	88.751	0
1	22102404	29	High	1.5	Precise	1	9	17	6	3.8	12.2	0.0	17	6	9	12.2	0.0	3.8	2	1.017	0.001	L	17	12.2	89.253	90.548	91.564	91.566	0
1	22102404	30	High	1.5	Vague	2	4	14	20	3.5	5.6	0.0	4	14	20	3.5	5.6	0.0	2	0.676	0.000	D	14	5.6	92.069	94.704	95.380	95.382	0
1	22102404	31	High	1.5	Vague	2	9	15	30	3.8	7.2	0.4	9	15	30	3.8	7.2	0.4	2	0.829	0.001	D	15	7.2	95.886	97.215	98.044	98.047	0
1	22102404	32	High	1.5	Vague	2	13	4	35	1.9	3.5	0.0	13	4	35	1.9	3.5	0.0	2	0.692	0.001	D	4	3.5	98.550	99.777	100.468	100.471	0
1	22102404	33	High	1.5	Precise	1	9	17	10	3.8	12.2	1.1	9	10	17	3.8	1.1	12.2	1	0.974	0.001	L	9	3.8	100.973	103.767	104.740	104.742	0
1	22102404	34	High	1.5	Vague	2	4	14	34	3.5	5.6	1.0	4	14	34	3.5	5.6	1.0	1	0.920	0.001	L	4	3.5	105.245	106.228	107.148	107.150	0
1	22102404	35	High	1.5	Vague	2	9	17	34	3.8	12.2	1.0	17	34	9	12.2	1.0	3.8	2	0.953	0.001	L	17	12.2	107.654	108.771	109.724	109.727	0
1	22102404	36	High	1.5	Precise	1	15	17	12	7.2	12.2	0.6	15	12	17	7.2	0.6	12.2	1	0.823	0.001	L	15	7.2	110.229	111.733	112.556	112.559	0
1	22102404	37	High	1.5	Precise	1	14	15	10	5.6	7.2	1.1	14	15	10	5.6	7.2	1.1	1	0.779	0.001	L	14	5.6	113.062	114.329	115.108	115.110	0
1	22102404	38	High	1.5	Vague	2	4	17	27	3.5	12.2	0.3	4	17	27	3.5	12.2	0.3	2	0.799	0.001	D	17	12.2	115.613	118.101	118.900	118.903	0
1	22102404	39	High	1.5	Vague	2	9	14	30	3.8	5.6	0.4	30	14	9	0.4	5.6	3.8	2	0.653	0.000	D	14	5.6	119.406	121.327	121.980	121.982	0
1	22102404	40	High	1.5	Vague	2	14	17	20	5.6	12.2	0.0	14	20	17	5.6	0.0	12.2	1	0.816	0.000	L	14	5.6	122.486	123.436	124.252	124.254	0
1	22102404	41	High	1.5	Vague	2	13	15	34	1.9	7.2	1.0	13	15	34	1.9	7.2	1.0	1	1.160	0.000	L	13	1.9	124.757	125.412	126.572	126.575	0
1	22102404	42	High	1.5	Vague	2	13	9	20	1.9	3.8	0.0	9	20	13	3.8	0.0	1.9	3	0.593	0.001	D	20	0.0	127.077	128.539	129.132	129.135	0
1	22102404	43	High	1.5	Vague	2	4	9	34	3.5	3.8	1.0	34	9	4	1.0	3.8	3.5	1	0.922	0.001	R	4	3.5	129.637	131.803	132.724	132.727	0
1	22102404	44	High	1.5	Vague	2	9	17	30	3.8	12.2	0.4	9	30	17	3.8	0.4	12.2	2	1.471	0.001	R	17	12.2	133.229	135.189	136.660	136.662	0
1	22102404	45	High	1.5	Precise	1	13	4	7	1.9	3.5	0.1	7	13	4	0.1	1.9	3.5	2	0.853	0.000	R	4	3.5	137.165	138.711	139.564	139.566	0
1	22102404	46	High	1.5	Precise	1	13	17	2	1.9	12.2	0.0	13	17	2	1.9	12.2	0.0	1	0.807	0.001	L	13	1.9	140.069	141.317	142.124	142.126	0
1	22102404	47	High	1.5	Precise	1	9	17	12	3.8	12.2	0.6	17	9	12	12.2	3.8	0.6	3	0.804	0.000	R	12	0.6	142.630	144.224	145.028	145.030	0
1	22102404	48	High	1.5	Vague	2	15	17	19	7.2	12.2	0.1	15	17	19	7.2	12.2	0.1	1	0.806	0.000	L	15	7.2	145.533	146.910	147.716	147.718	0
1	22102404	49	High	1.5	Vague	2	14	15	20	5.6	7.2	0.0	15	20	14	7.2	0.0	5.6	1	0.865	0.000	R	14	5.6	148.221	149.443	150.308	150.310	0
1	22102404	50	High	1.5	Precise	1	4	9	2	3.5	3.8	0.0	2	9	4	0.0	3.8	3.5	1	0.930	0.001	R	4	3.5	150.814	152.434	153.364	153.367	0
1	22102404	51	High	1.5	Vague	2	4	15	35	3.5	7.2	0.0	4	15	35	3.5	7.2	0.0	1	0.999	0.001	L	4	3.5	153.869	155.677	156.676	156.679	0
1	22102404	52	High	1.5	Precise	1	13	9	16	1.9	3.8	0.3	16	13	9	0.3	1.9	3.8	1	0.966	0.001	D	13	1.9	157.181	159.166	160.132	160.135	0
1	22102404	53	High	1.5	Precise	1	9	17	2	3.8	12.2	0.0	17	2	9	12.2	0.0	3.8	2	0.780	0.001	L	17	12.2	160.638	161.353	162.132	162.134	0
1	22102404	54	High	1.5	Vague	2	14	15	27	5.6	7.2	0.3	27	14	15	0.3	5.6	7.2	2	0.777	0.000	R	15	7.2	162.637	163.555	164.332	164.334	0
1	22102404	55	High	1.5	Precise	1	4	17	10	3.5	12.2	1.1	10	17	4	1.1	12.2	3.5	1	0.769	0.001	R	4	3.5	164.837	166.979	167.748	167.751	0
1	22102404	56	High	1.5	Vague	2	9	14	20	3.8	5.6	0.0	20	14	9	0.0	5.6	3.8	2	0.815	0.001	D	14	5.6	168.253	169.773	170.588	170.591	0
1	22102404	57	High	1.5	Precise	1	13	17	7	1.9	12.2	0.1	7	13	17	0.1	1.9	12.2	2	0.641	0.000	R	17	12.2	171.093	172.411	173.052	173.055	0
1	22102404	58	High	1.5	Precise	1	9	15	10	3.8	7.2	1.1	9	15	10	3.8	7.2	1.1	2	0.751	0.001	D	15	7.2	173.557	175.413	176.164	176.167	0
1	22102404	59	High	1.5	Vague	2	9	15	35	3.8	7.2	0.0	35	15	9	0.0	7.2	3.8	2	0.563	0.001	D	15	7.2	176.669	178.433	178.996	178.998	0
1	22102404	60	High	1.5	Vague	2	4	15	20	3.5	7.2	0.0	15	20	4	7.2	0.0	3.5	1	0.902	0.000	R	4	3.5	179.501	182.430	183.332	183.334	0
1	22102404	61	High	1.5	Vague	2	13	4	19	1.9	3.5	0.1	19	4	13	0.1	3.5	1.9	1	1.033	0.001	R	13	1.9	188.957	189.795	190.828	190.830	0
1	22102404	62	High	1.5	Precise	1	13	4	12	1.9	3.5	0.6	13	4	12	1.9	3.5	0.6	3	0.903	0.000	R	12	0.6	191.333	192.436	193.340	193.343	0
1	22102404	63	High	1.5	Precise	1	4	14	2	3.5	5.6	0.0	2	4	14	0.0	3.5	5.6	2	0.680	0.001	R	14	5.6	193.846	195.012	195.692	195.694	0
1	22102404	64	High	1.5	Vague	2	13	4	27	1.9	3.5	0.3	4	27	13	3.5	0.3	1.9	2	0.771	0.000	L	4	3.5	196.197	197.312	198.084	198.086	0
1	22102404	65	High	1.5	Vague	2	4	17	30	3.5	12.2	0.4	4	30	17	3.5	0.4	12.2	1	0.701	0.000	L	4	3.5	198.589	199.983	200.684	200.686	0
1	22102404	66	High	1.5	Precise	1	14	17	2	5.6	12.2	0.0	17	2	14	12.2	0.0	5.6	1	0.600	0.001	R	14	5.6	201.189	203.412	204.012	204.015	0
1	22102404	67	High	1.5	Vague	2	14	17	30	5.6	12.2	0.4	30	17	14	0.4	12.2	5.6	1	0.612	0.001	R	14	5.6	204.518	205.824	206.436	206.439	0
1	22102404	68	High	1.5	Precise	1	15	17	6	7.2	12.2	0.0	17	15	6	12.2	7.2	0.0	1	0.847	0.001	D	15	7.2	206.941	208.373	209.220	209.222	0
1	22102404	69	High	1.5	Vague	2	13	4	34	1.9	3.5	1.0	13	4	34	1.9	3.5	1.0	1	0.853	0.000	L	13	1.9	209.725	210.679	211.532	211.534	0
1	22102404	70	High	1.5	Precise	1	4	15	12	3.5	7.2	0.6	12	4	15	0.6	3.5	7.2	2	0.692	0.000	R	15	7.2	212.037	214.288	214.980	214.982	0
1	22102404	71	High	1.5	Precise	1	13	15	10	1.9	7.2	1.1	15	10	13	7.2	1.1	1.9	2	0.766	0.000	L	15	7.2	215.485	216.534	217.300	217.302	0
1	22102404	72	High	1.5	Precise	1	13	17	6	1.9	12.2	0.0	13	6	17	1.9	0.0	12.2	1	0.887	0.000	L	13	1.9	217.805	220.693	221.580	221.582	0
1	22102404	73	High	1.5	Precise	1	13	15	2	1.9	7.2	0.0	15	13	2	7.2	1.9	0.0	1	0.942	0.000	D	13	1.9	222.085	224.854	225.796	225.798	0
1	22102404	74	High	1.5	Precise	1	13	4	10	1.9	3.5	1.1	13	4	10	1.9	3.5	1.1	1	0.649	0.000	L	13	1.9	226.302	228.859	229.508	229.510	0
1	22102404	75	High	1.5	Vague	2	13	4	30	1.9	3.5	0.4	13	30	4	1.9	0.4	3.5	2	0.676	0.000	R	4	3.5	230.013	232.600	233.276	233.278	0
1	22102404	76	High	1.5	Precise	1	14	17	7	5.6	12.2	0.1	14	17	7	5.6	12.2	0.1	1	0.715	0.001	L	14	5.6	233.782	236.593	237.308	237.310	0
1	22102404	77	High	1.5	Vague	2	13	14	35	1.9	5.6	0.0	13	35	14	1.9	0.0	5.6	2	0.745	0.000	R	14	5.6	237.814	239.930	240.676	240.678	0
1	22102404	78	High	1.5	Precise	1	4	15	6	3.5	7.2	0.0	15	6	4	7.2	0.0	3.5	1	0.723	0.001	R	4	3.5	241.181	243.473	244.196	244.198	0
1	22102404	79	High	1.5	Vague	2	13	17	34	1.9	12.2	1.0	13	17	34	1.9	12.2	1.0	1	0.741	0.001	L	13	1.9	244.701	246.871	247.612	247.614	0
1	22102404	80	High	1.5	Precise	1	9	17	7	3.8	12.2	0.1	17	7	9	12.2	0.1	3.8	2	0.802	0.000	L	17	12.2	248.117	249.402	250.204	250.206	0
1	22102404	81	High	1.5	Precise	1	9	14	6	3.8	5.6	0.0	6	14	9	0.0	5.6	3.8	2	0.730	0.000	D	14	5.6	250.709	253.153	253.884	253.886	0
1	22102404	82	High	1.5	Vague	2	13	14	34	1.9	5.6	1.0	14	13	34	5.6	1.9	1.0	1	0.892	0.001	D	13	1.9	254.389	255.592	256.484	256.486	0
1	22102404	83	High	1.5	Vague	2	14	15	34	5.6	7.2	1.0	15	14	34	7.2	5.6	1.0	2	0.738	0.000	L	15	7.2	256.989	259.874	260.612	260.614	0
1	22102404	84	High	1.5	Vague	2	13	17	35	1.9	12.2	0.0	17	35	13	12.2	0.0	1.9	2	0.802	0.001	L	17	12.2	261.117	261.898	262.700	262.703	0
1	22102404	85	High	1.5	Vague	2	9	14	19	3.8	5.6	0.1	9	14	19	3.8	5.6	0.1	2	1.109	0.000	D	14	5.6	263.206	266.167	267.276	267.279	0
1	22102404	86	High	1.5	Vague	2	4	14	35	3.5	5.6	0.0	4	14	35	3.5	5.6	0.0	2	0.947	0.001	D	14	5.6	267.782	270.121	271.068	271.070	0
1	22102404	87	High	1.5	Vague	2	14	17	34	5.6	12.2	1.0	14	34	17	5.6	1.0	12.2	1	0.768	0.000	L	14	5.6	271.573	272.348	273.116	273.118	0
1	22102404	88	High	1.5	Precise	1	14	17	6	5.6	12.2	0.0	6	17	14	0.0	12.2	5.6	1	0.853	0.001	R	14	5.6	273.621	275.951	276.804	276.806	0
1	22102404	89	High	1.5	Precise	1	15	17	7	7.2	12.2	0.1	7	15	17	0.1	7.2	12.2	2	0.833	0.001	R	17	12.2	277.309	279.683	280.516	280.518	0
1	22102404	90	High	1.5	Precise	1	4	15	7	3.5	7.2	0.1	15	7	4	7.2	0.1	3.5	2	0.783	0.000	L	15	7.2	281.021	283.164	283.948	283.950	0
1	22102404	91	High	1.5	Vague	2	13	17	20	1.9	12.2	0.0	13	20	17	1.9	0.0	12.2	2	0.642	0.000	R	17	12.2	284.453	286.890	287.532	287.534	0
1	22102404	92	High	1.5	Precise	1	9	17	16	3.8	12.2	0.3	16	17	9	0.3	12.2	3.8	2	0.663	0.000	D	17	12.2	288.037	290.900	291.564	291.566	0
1	22102404	93	High	1.5	Precise	1	4	9	12	3.5	3.8	0.6	4	12	9	3.5	0.6	3.8	NaN	NaN	NaN	NaN	NaN	NaN	292.069	293.270	NaN	294.761	1
1	22102404	94	High	1.5	Vague	2	14	17	35	5.6	12.2	0.0	35	14	17	0.0	5.6	12.2	1	0.743	0.000	D	14	5.6	296.766	297.437	298.180	298.184	0
1	22102404	95	High	1.5	Vague	2	9	15	27	3.8	7.2	0.3	9	27	15	3.8	0.3	7.2	1	0.898	0.001	L	9	3.8	298.687	299.946	300.844	300.846	0
1	22102404	96	High	1.5	Precise	1	13	4	16	1.9	3.5	0.3	16	13	4	0.3	1.9	3.5	2	0.794	0.001	R	4	3.5	301.349	303.098	303.892	303.894	0
1	22102404	97	High	1.5	Precise	1	4	15	10	3.5	7.2	1.1	10	4	15	1.1	3.5	7.2	1	0.831	0.001	D	4	3.5	304.398	306.333	307.164	307.166	0
1	22102404	98	High	1.5	Vague	2	9	14	34	3.8	5.6	1.0	34	14	9	1.0	5.6	3.8	2	0.866	0.000	D	14	5.6	307.669	310.506	311.372	311.374	0
1	22102404	99	High	1.5	Precise	1	13	9	12	1.9	3.8	0.6	12	9	13	0.6	3.8	1.9	2	0.839	0.000	D	9	3.8	311.877	314.133	314.972	314.974	0
1	22102404	100	High	1.5	Vague	2	9	17	27	3.8	12.2	0.3	9	27	17	3.8	0.3	12.2	2	0.805	0.000	R	17	12.2	315.477	317.311	318.116	318.118	0
1	22102404	101	High	1.5	Vague	2	13	15	20	1.9	7.2	0.0	20	13	15	0.0	1.9	7.2	1	0.822	0.001	D	13	1.9	318.621	320.430	321.252	321.254	0
1	22102404	102	High	1.5	Vague	2	4	9	20	3.5	3.8	0.0	20	4	9	0.0	3.5	3.8	1	0.864	0.000	D	4	3.5	321.757	323.667	324.532	324.534	0
1	22102404	103	High	1.5	Precise	1	4	14	7	3.5	5.6	0.1	4	7	14	3.5	0.1	5.6	2	0.643	0.000	R	14	5.6	325.037	327.497	328.140	328.142	0
1	22102404	104	High	1.5	Precise	1	4	14	12	3.5	5.6	0.6	14	12	4	5.6	0.6	3.5	2	0.765	0.001	L	14	5.6	328.644	330.846	331.612	331.614	0
1	22102404	105	High	1.5	Vague	2	4	9	35	3.5	3.8	0.0	9	4	35	3.8	3.5	0.0	1	0.807	0.000	D	4	3.5	332.117	334.245	335.052	335.054	0
1	22102404	106	High	1.5	Precise	1	14	15	2	5.6	7.2	0.0	14	15	2	5.6	7.2	0.0	1	0.635	0.000	L	14	5.6	335.557	337.144	337.780	337.783	0
1	22102404	107	High	1.5	Precise	1	13	14	6	1.9	5.6	0.0	14	13	6	5.6	1.9	0.0	1	1.194	0.000	D	13	1.9	338.286	339.090	340.284	340.286	0
1	22102404	108	High	1.5	Vague	2	15	17	30	7.2	12.2	0.4	17	30	15	12.2	0.4	7.2	2	0.734	0.000	L	17	12.2	340.789	343.245	343.980	343.982	0
1	22102404	109	High	1.5	Precise	1	13	9	6	1.9	3.8	0.0	9	6	13	3.8	0.0	1.9	1	0.973	0.001	R	13	1.9	344.485	345.975	346.948	346.950	0
1	22102404	110	High	1.5	Precise	1	9	15	2	3.8	7.2	0.0	2	15	9	0.0	7.2	3.8	2	0.697	0.001	D	15	7.2	347.453	349.299	349.996	349.998	0
1	22102404	111	High	1.5	Precise	1	15	17	10	7.2	12.2	1.1	17	10	15	12.2	1.1	7.2	1	1.001	0.001	R	15	7.2	350.501	351.715	352.716	352.719	0
1	22102404	112	High	1.5	Precise	1	9	14	7	3.8	5.6	0.1	7	14	9	0.1	5.6	3.8	2	0.948	0.001	D	14	5.6	353.222	355.376	356.324	356.326	0
1	22102404	113	High	1.5	Vague	2	9	17	20	3.8	12.2	0.0	17	9	20	12.2	3.8	0.0	1	0.831	0.001	D	9	3.8	356.829	357.813	358.644	358.646	0
1	22102404	114	High	1.5	Precise	1	14	17	12	5.6	12.2	0.6	17	12	14	12.2	0.6	5.6	2	0.920	0.000	L	17	12.2	359.149	360.828	361.747	361.751	0
1	22102404	115	High	1.5	Vague	2	9	15	20	3.8	7.2	0.0	15	9	20	7.2	3.8	0.0	2	1.117	0.000	L	15	7.2	362.253	363.071	364.188	364.190	0
1	22102404	116	High	1.5	Precise	1	4	9	16	3.5	3.8	0.3	4	9	16	3.5	3.8	0.3	1	0.927	0.001	L	4	3.5	364.692	365.557	366.484	366.486	0
1	22102404	117	High	1.5	Vague	2	9	14	35	3.8	5.6	0.0	9	35	14	3.8	0.0	5.6	2	0.734	0.000	R	14	5.6	366.989	367.501	368.236	368.238	0
1	22102404	118	High	1.5	Vague	2	14	15	35	5.6	7.2	0.0	14	35	15	5.6	0.0	7.2	1	0.505	0.001	L	14	5.6	368.742	370.883	371.388	371.390	0
1	22102404	119	High	1.5	Vague	2	4	17	19	3.5	12.2	0.1	17	4	19	12.2	3.5	0.1	2	0.894	0.001	L	17	12.2	371.893	372.982	373.876	373.878	0
1	22102404	120	High	1.5	Precise	1	14	17	16	5.6	12.2	0.3	14	16	17	5.6	0.3	12.2	2	0.680	0.001	R	17	12.2	374.381	375.892	376.572	376.574	0
1	22102404	121	High	1.5	Precise	1	13	14	10	1.9	5.6	1.1	10	13	14	1.1	1.9	5.6	2	0.614	0.001	R	14	5.6	381.468	382.630	383.244	383.246	0
1	22102404	122	High	1.5	Vague	2	9	17	35	3.8	12.2	0.0	9	35	17	3.8	0.0	12.2	2	0.661	0.000	R	17	12.2	383.749	384.895	385.556	385.558	0
1	22102404	123	High	1.5	Precise	1	4	14	6	3.5	5.6	0.0	14	6	4	5.6	0.0	3.5	2	0.839	0.001	L	14	5.6	386.061	388.573	389.412	389.414	0
1	22102404	124	High	1.5	Vague	2	13	9	34	1.9	3.8	1.0	13	9	34	1.9	3.8	1.0	1	0.779	0.000	L	13	1.9	389.917	392.857	393.635	393.638	0
1	22102404	125	High	1.5	Vague	2	4	15	30	3.5	7.2	0.4	15	30	4	7.2	0.4	3.5	2	0.618	0.000	L	15	7.2	394.141	396.378	396.995	396.998	0
1	22102404	126	High	1.5	Vague	2	15	17	20	7.2	12.2	0.0	15	20	17	7.2	0.0	12.2	1	0.554	0.000	L	15	7.2	397.501	400.377	400.931	400.934	0
1	22102404	127	High	1.5	Vague	2	9	15	34	3.8	7.2	1.0	34	15	9	1.0	7.2	3.8	2	0.934	0.001	D	15	7.2	401.437	402.686	403.620	403.622	0
1	22102404	128	High	1.5	Vague	2	13	15	19	1.9	7.2	0.1	15	13	19	7.2	1.9	0.1	2	0.598	0.001	L	15	7.2	404.124	405.566	406.164	406.166	0
1	22102404	129	High	1.5	Precise	1	13	14	2	1.9	5.6	0.0	2	13	14	0.0	1.9	5.6	2	0.778	0.001	R	14	5.6	406.669	407.810	408.588	408.590	0
1	22102404	130	High	1.5	Vague	2	13	15	30	1.9	7.2	0.4	15	13	30	7.2	1.9	0.4	2	0.746	0.000	L	15	7.2	409.093	410.897	411.643	411.646	0
1	22102404	131	High	1.5	Vague	2	4	14	19	3.5	5.6	0.1	4	14	19	3.5	5.6	0.1	2	0.815	0.001	D	14	5.6	412.149	413.077	413.892	413.894	0
1	22102404	132	High	1.5	Precise	1	14	17	10	5.6	12.2	1.1	14	17	10	5.6	12.2	1.1	1	0.708	0.000	L	14	5.6	414.397	416.167	416.875	416.878	0
1	22102404	133	High	1.5	Precise	1	9	15	7	3.8	7.2	0.1	15	7	9	7.2	0.1	3.8	2	0.837	0.001	L	15	7.2	417.381	419.663	420.500	420.502	0
1	22102404	134	High	1.5	Precise	1	4	15	2	3.5	7.2	0.0	15	4	2	7.2	3.5	0.0	2	0.728	0.000	L	15	7.2	421.004	422.515	423.243	423.246	0
1	22102404	135	High	1.5	Vague	2	13	14	20	1.9	5.6	0.0	14	13	20	5.6	1.9	0.0	2	0.871	0.001	L	14	5.6	423.749	425.653	426.524	426.526	0
1	22102404	136	High	1.5	Precise	1	14	15	12	5.6	7.2	0.6	12	15	14	0.6	7.2	5.6	1	0.912	0.001	R	14	5.6	427.030	429.156	430.068	430.070	0
1	22102404	137	High	1.5	Vague	2	13	17	19	1.9	12.2	0.1	19	17	13	0.1	12.2	1.9	1	1.099	0.000	R	13	1.9	430.573	432.688	433.787	433.790	0
1	22102404	138	High	1.5	Precise	1	4	17	12	3.5	12.2	0.6	17	4	12	12.2	3.5	0.6	2	0.789	0.001	L	17	12.2	434.293	436.951	437.740	437.742	0
1	22102404	139	High	1.5	Precise	1	4	17	6	3.5	12.2	0.0	4	6	17	3.5	0.0	12.2	2	0.906	0.000	R	17	12.2	438.244	440.194	441.099	441.102	0
1	22102404	140	High	1.5	Vague	2	4	9	19	3.5	3.8	0.1	9	4	19	3.8	3.5	0.1	1	0.981	0.001	D	4	3.5	441.605	442.559	443.540	443.542	0
1	22102404	141	High	1.5	Precise	1	13	14	7	1.9	5.6	0.1	13	14	7	1.9	5.6	0.1	1	0.780	0.000	L	13	1.9	444.045	446.816	447.595	447.598	0
1	22102404	142	High	1.5	Precise	1	13	17	12	1.9	12.2	0.6	12	17	13	0.6	12.2	1.9	3	0.629	0.000	L	12	0.6	448.101	450.623	451.252	451.254	0
1	22102404	143	High	1.5	Vague	2	4	15	27	3.5	7.2	0.3	4	15	27	3.5	7.2	0.3	2	1.152	0.001	D	15	7.2	451.756	454.724	455.876	455.878	0
1	22102404	144	High	1.5	Vague	2	13	4	20	1.9	3.5	0.0	4	20	13	3.5	0.0	1.9	2	0.749	0.001	L	4	3.5	456.381	459.326	460.076	460.079	0
1	22102404	145	High	1.5	Precise	1	14	15	16	5.6	7.2	0.3	16	14	15	0.3	5.6	7.2	2	0.805	0.001	R	15	7.2	460.581	461.671	462.476	462.478	0
1	22102404	146	High	1.5	Precise	1	13	15	16	1.9	7.2	0.3	16	15	13	0.3	7.2	1.9	2	0.674	0.001	D	15	7.2	462.980	464.506	465.180	465.182	0
1	22102404	147	High	1.5	Vague	2	4	14	27	3.5	5.6	0.3	4	14	27	3.5	5.6	0.3	3	0.948	0.001	R	27	0.3	465.685	466.640	467.588	467.590	0
1	22102404	148	High	1.5	Precise	1	13	15	12	1.9	7.2	0.6	13	12	15	1.9	0.6	7.2	2	0.909	0.000	R	15	7.2	468.093	469.142	470.051	470.054	0
1	22102404	149	High	1.5	Precise	1	13	4	6	1.9	3.5	0.0	4	6	13	3.5	0.0	1.9	3	0.784	0.001	D	6	0.0	470.556	471.532	472.316	472.318	0
1	22102404	150	High	1.5	Precise	1	4	9	10	3.5	3.8	1.1	10	4	9	1.1	3.5	3.8	3	0.823	0.001	L	10	1.1	472.821	475.196	476.020	476.022	0
1	22102404	151	High	1.5	Precise	1	13	4	2	1.9	3.5	0.0	4	2	13	3.5	0.0	1.9	1	1.167	0.001	R	13	1.9	476.525	478.669	479.836	479.838	0
1	22102404	152	High	1.5	Vague	2	13	9	35	1.9	3.8	0.0	9	35	13	3.8	0.0	1.9	3	1.121	0.001	D	35	0.0	480.340	482.435	483.556	483.558	0
1	22102404	153	High	1.5	Precise	1	15	17	2	7.2	12.2	0.0	17	2	15	12.2	0.0	7.2	1	0.704	0.000	R	15	7.2	484.061	484.627	485.331	485.334	0
1	22102404	154	High	1.5	Vague	2	13	17	30	1.9	12.2	0.4	17	13	30	12.2	1.9	0.4	2	0.675	0.001	L	17	12.2	485.837	487.561	488.236	488.238	0
1	22102404	155	High	1.5	Precise	1	13	9	10	1.9	3.8	1.1	9	10	13	3.8	1.1	1.9	2	1.339	0.000	L	9	3.8	488.741	491.160	492.499	492.502	0
1	22102404	156	High	1.5	Vague	2	14	15	30	5.6	7.2	0.4	30	15	14	0.4	7.2	5.6	1	0.667	0.001	R	14	5.6	493.005	494.729	495.396	495.398	0
1	22102404	157	High	1.5	Vague	2	13	9	19	1.9	3.8	0.1	19	13	9	0.1	1.9	3.8	1	1.092	0.001	D	13	1.9	495.901	497.056	498.148	498.150	0
1	22102404	158	High	1.5	Vague	2	13	15	35	1.9	7.2	0.0	13	15	35	1.9	7.2	0.0	2	0.606	0.001	D	15	7.2	498.652	499.437	500.044	500.046	0
1	22102404	159	High	1.5	Vague	2	4	9	27	3.5	3.8	0.3	9	27	4	3.8	0.3	3.5	1	0.773	0.000	R	4	3.5	500.548	501.398	502.171	502.174	0
1	22102404	160	High	1.5	Vague	2	4	15	34	3.5	7.2	1.0	34	4	15	1.0	3.5	7.2	2	0.739	0.000	R	15	7.2	502.676	503.968	504.707	504.710	0
1	22102404	161	High	1.5	Precise	1	4	17	16	3.5	12.2	0.3	16	17	4	0.3	12.2	3.5	1	0.721	0.000	R	4	3.5	505.213	508.018	508.739	508.742	0
1	22102404	162	High	1.5	Vague	2	13	9	27	1.9	3.8	0.3	27	13	9	0.3	1.9	3.8	1	1.176	0.001	D	13	1.9	509.244	510.467	511.644	511.646	0
1	22102404	163	High	1.5	Vague	2	13	14	19	1.9	5.6	0.1	19	14	13	0.1	5.6	1.9	2	0.786	0.001	D	14	5.6	512.149	512.730	513.515	513.518	0
1	22102404	164	High	1.5	Precise	1	9	15	6	3.8	7.2	0.0	9	6	15	3.8	0.0	7.2	2	0.622	0.001	R	15	7.2	514.020	516.742	517.364	517.366	0
1	22102404	165	High	1.5	Vague	2	13	9	30	1.9	3.8	0.4	9	13	30	3.8	1.9	0.4	2	0.881	0.001	L	9	3.8	517.869	519.906	520.788	520.790	0
1	22102404	166	High	1.5	Vague	2	4	17	35	3.5	12.2	0.0	35	17	4	0.0	12.2	3.5	2	0.786	0.001	D	17	12.2	521.293	523.082	523.868	523.870	0
1	22102404	167	High	1.5	Vague	2	9	14	27	3.8	5.6	0.3	27	14	9	0.3	5.6	3.8	2	0.630	0.001	D	14	5.6	524.372	526.078	526.708	526.710	0
1	22102404	168	High	1.5	Precise	1	9	14	16	3.8	5.6	0.3	9	14	16	3.8	5.6	0.3	2	0.919	0.001	D	14	5.6	527.213	529.820	530.740	530.742	0
1	22102404	169	High	1.5	Precise	1	13	17	16	1.9	12.2	0.3	17	13	16	12.2	1.9	0.3	2	0.773	0.001	L	17	12.2	531.245	533.447	534.220	534.222	0
1	22102404	170	High	1.5	Vague	2	15	17	35	7.2	12.2	0.0	17	15	35	12.2	7.2	0.0	2	0.550	0.000	L	17	12.2	534.725	535.797	536.347	536.350	0
1	22102404	171	High	1.5	Precise	1	4	9	7	3.5	3.8	0.1	9	4	7	3.8	3.5	0.1	1	1.278	0.001	D	4	3.5	536.853	538.350	539.628	539.630	0
1	22102404	172	High	1.5	Vague	2	13	15	27	1.9	7.2	0.3	27	15	13	0.3	7.2	1.9	2	1.012	0.001	D	15	7.2	540.133	540.760	541.772	541.774	0
1	22102404	173	High	1.5	Vague	2	13	17	27	1.9	12.2	0.3	13	27	17	1.9	0.3	12.2	2	0.742	0.000	R	17	12.2	542.276	544.358	545.100	545.102	0
1	22102404	174	High	1.5	Precise	1	9	15	16	3.8	7.2	0.3	15	9	16	7.2	3.8	0.3	1	0.776	0.001	D	9	3.8	545.605	546.308	547.084	547.086	0
1	22102404	175	High	1.5	Vague	2	9	15	19	3.8	7.2	0.1	15	19	9	7.2	0.1	3.8	2	0.452	0.001	L	15	7.2	547.589	550.384	550.836	550.838	0
1	22102404	176	High	1.5	Precise	1	4	9	6	3.5	3.8	0.0	6	9	4	0.0	3.8	3.5	1	0.669	0.000	R	4	3.5	551.340	554.182	554.851	554.854	0
1	22102404	177	High	1.5	Vague	2	14	17	19	5.6	12.2	0.1	14	19	17	5.6	0.1	12.2	2	0.557	0.000	R	17	12.2	555.357	558.158	558.715	558.718	0
1	22102404	178	High	1.5	Precise	1	13	14	12	1.9	5.6	0.6	12	13	14	0.6	1.9	5.6	2	0.626	0.001	R	14	5.6	559.221	560.322	560.948	560.950	0
1	22102404	179	High	1.5	Precise	1	13	15	7	1.9	7.2	0.1	13	7	15	1.9	0.1	7.2	2	0.591	0.001	R	15	7.2	561.453	564.157	564.748	564.750	0
1	22102404	180	High	1.5	Precise	1	4	14	10	3.5	5.6	1.1	10	4	14	1.1	3.5	5.6	2	0.692	0.000	R	14	5.6	565.253	566.399	567.091	567.094	0
1	22102404	181	Low	10.0	Precise	1	4	17	3	3.5	12.2	0.6	3	17	4	0.6	12.2	3.5	2	2.316	0.000	D	17	12.2	574.911	576.375	578.692	578.694	0
1	22102404	182	Low	10.0	Precise	1	13	17	1	1.9	12.2	0.0	13	1	17	1.9	0.0	12.2	1	1.196	0.001	L	13	1.9	579.197	580.920	582.116	582.118	0
1	22102404	183	Low	10.0	Precise	1	9	14	5	3.8	5.6	0.2	9	5	14	3.8	0.2	5.6	2	0.812	0.001	R	14	5.6	582.621	585.264	586.076	586.078	0
1	22102404	184	Low	10.0	Precise	1	4	17	18	3.5	12.2	0.0	4	17	18	3.5	12.2	0.0	3	1.602	0.001	R	18	0.0	586.580	588.889	590.492	590.494	0
1	22102404	185	Low	10.0	Precise	1	13	4	1	1.9	3.5	0.0	13	4	1	1.9	3.5	0.0	2	1.141	0.000	D	4	3.5	590.997	592.550	593.691	593.694	0
1	22102404	186	Low	10.0	Vague	2	13	4	23	1.9	3.5	0.0	4	13	23	3.5	1.9	0.0	1	1.316	0.001	D	13	1.9	594.197	596.976	598.292	598.294	0
1	22102404	187	Low	10.0	Precise	1	14	17	1	5.6	12.2	0.0	17	14	1	12.2	5.6	0.0	2	0.782	0.001	L	17	12.2	598.797	601.237	602.019	602.022	0
1	22102404	188	Low	10.0	Precise	1	13	9	8	1.9	3.8	0.0	9	13	8	3.8	1.9	0.0	1	1.321	0.001	D	13	1.9	602.525	604.411	605.731	605.734	0
1	22102404	189	Low	10.0	Vague	2	13	14	24	1.9	5.6	0.4	14	13	24	5.6	1.9	0.4	2	0.697	0.000	L	14	5.6	606.237	607.730	608.427	608.430	0
1	22102404	190	Low	10.0	Vague	2	9	14	25	3.8	5.6	0.3	25	14	9	0.3	5.6	3.8	2	1.207	0.000	D	14	5.6	608.933	609.668	610.875	610.878	0
1	22102404	191	Low	10.0	Vague	2	13	14	25	1.9	5.6	0.3	14	13	25	5.6	1.9	0.3	2	0.800	0.001	L	14	5.6	611.380	613.283	614.084	614.086	0
1	22102404	192	Low	10.0	Precise	1	9	17	18	3.8	12.2	0.0	9	17	18	3.8	12.2	0.0	2	0.963	0.000	D	17	12.2	614.588	616.560	617.523	617.526	0
1	22102404	193	Low	10.0	Vague	2	15	17	36	7.2	12.2	1.1	36	15	17	1.1	7.2	12.2	2	0.963	0.001	R	17	12.2	618.029	620.456	621.420	621.422	0
1	22102404	194	Low	10.0	Precise	1	15	17	3	7.2	12.2	0.6	3	15	17	0.6	7.2	12.2	2	0.808	0.001	R	17	12.2	621.925	622.468	623.275	623.278	0
1	22102404	195	Low	10.0	Precise	1	9	14	11	3.8	5.6	1.0	14	11	9	5.6	1.0	3.8	2	0.867	0.001	L	14	5.6	623.780	625.144	626.012	626.014	0
1	22102404	196	Low	10.0	Precise	1	14	17	5	5.6	12.2	0.2	17	5	14	12.2	0.2	5.6	1	0.734	0.001	R	14	5.6	626.517	627.525	628.259	628.262	0
1	22102404	197	Low	10.0	Precise	1	4	9	5	3.5	3.8	0.2	5	9	4	0.2	3.8	3.5	1	0.920	0.001	R	4	3.5	628.764	630.260	631.180	631.182	0
1	22102404	198	Low	10.0	Precise	1	14	15	1	5.6	7.2	0.0	1	14	15	0.0	5.6	7.2	2	0.789	0.000	R	15	7.2	631.685	633.542	634.331	634.334	0
1	22102404	199	Low	10.0	Vague	2	13	15	24	1.9	7.2	0.4	15	24	13	7.2	0.4	1.9	2	0.753	0.001	L	15	7.2	634.837	636.843	637.595	637.598	0
1	22102404	200	Low	10.0	Vague	2	4	15	25	3.5	7.2	0.3	15	4	25	7.2	3.5	0.3	2	0.781	0.000	L	15	7.2	638.101	639.303	640.083	640.086	0
1	22102404	201	Low	10.0	Vague	2	13	17	21	1.9	12.2	0.0	21	17	13	0.0	12.2	1.9	2	0.813	0.001	D	17	12.2	640.588	641.695	642.508	642.510	0
1	22102404	202	Low	10.0	Vague	2	4	17	22	3.5	12.2	0.1	22	4	17	0.1	3.5	12.2	1	0.921	0.000	D	4	3.5	643.012	644.562	645.483	645.486	0
1	22102404	203	Low	10.0	Vague	2	15	17	21	7.2	12.2	0.0	17	15	21	12.2	7.2	0.0	2	0.802	0.000	L	17	12.2	645.988	647.073	647.875	647.878	0
1	22102404	204	Low	10.0	Vague	2	4	9	25	3.5	3.8	0.3	25	4	9	0.3	3.5	3.8	1	0.846	0.001	D	4	3.5	648.381	649.526	650.371	650.374	0
1	22102404	205	Low	10.0	Vague	2	13	14	22	1.9	5.6	0.1	14	22	13	5.6	0.1	1.9	2	0.673	0.001	L	14	5.6	650.877	652.050	652.723	652.726	0
1	22102404	206	Low	10.0	Precise	1	4	14	3	3.5	5.6	0.6	3	14	4	0.6	5.6	3.5	1	0.627	0.000	R	4	3.5	653.228	654.216	654.843	654.846	0
1	22102404	207	Low	10.0	Precise	1	13	14	11	1.9	5.6	1.0	13	14	11	1.9	5.6	1.0	2	0.558	0.001	D	14	5.6	655.349	657.997	658.556	658.559	0
1	22102404	208	Low	10.0	Vague	2	15	17	23	7.2	12.2	0.0	17	15	23	12.2	7.2	0.0	1	0.695	0.000	D	15	7.2	659.061	661.580	662.275	662.278	0
1	22102404	209	Low	10.0	Vague	2	13	17	24	1.9	12.2	0.4	13	17	24	1.9	12.2	0.4	2	0.811	0.001	D	17	12.2	662.781	664.784	665.595	665.598	0
1	22102404	210	Low	10.0	Vague	2	13	4	36	1.9	3.5	1.1	4	36	13	3.5	1.1	1.9	2	0.600	0.001	L	4	3.5	666.100	668.971	669.571	669.574	0
1	22102404	211	Low	10.0	Precise	1	15	17	1	7.2	12.2	0.0	1	17	15	0.0	12.2	7.2	1	0.912	0.001	R	15	7.2	670.076	673.035	673.947	673.950	0
1	22102404	212	Low	10.0	Precise	1	13	15	5	1.9	7.2	0.2	15	5	13	7.2	0.2	1.9	2	0.628	0.001	L	15	7.2	674.453	676.943	677.571	677.574	0
1	22102404	213	Low	10.0	Vague	2	14	15	21	5.6	7.2	0.0	14	15	21	5.6	7.2	0.0	1	0.748	0.001	L	14	5.6	678.077	679.312	680.059	680.062	0
1	22102404	214	Low	10.0	Vague	2	14	15	24	5.6	7.2	0.4	24	14	15	0.4	5.6	7.2	2	0.593	0.000	R	15	7.2	680.564	682.370	682.963	682.966	0
1	22102404	215	Low	10.0	Vague	2	4	17	36	3.5	12.2	1.1	36	4	17	1.1	3.5	12.2	3	0.774	0.000	L	36	1.1	683.468	684.710	685.483	685.487	0
1	22102404	216	Low	10.0	Precise	1	4	15	18	3.5	7.2	0.0	15	18	4	7.2	0.0	3.5	2	1.521	0.001	L	15	7.2	685.990	686.970	688.491	688.494	0
1	22102404	217	Low	10.0	Vague	2	13	9	25	1.9	3.8	0.3	13	25	9	1.9	0.3	3.8	1	1.055	0.000	L	13	1.9	688.997	690.148	691.203	691.206	0
1	22102404	218	Low	10.0	Precise	1	4	15	3	3.5	7.2	0.6	3	15	4	0.6	7.2	3.5	2	0.707	0.001	D	15	7.2	691.708	692.761	693.467	693.470	0
1	22102404	219	Low	10.0	Precise	1	9	15	3	3.8	7.2	0.6	15	3	9	7.2	0.6	3.8	2	0.784	0.001	L	15	7.2	693.972	696.011	696.795	696.798	0
1	22102404	220	Low	10.0	Precise	1	9	15	11	3.8	7.2	1.0	11	15	9	1.0	7.2	3.8	2	0.704	0.001	D	15	7.2	697.301	698.507	699.211	699.214	0
1	22102404	221	Low	10.0	Precise	1	13	9	5	1.9	3.8	0.2	9	5	13	3.8	0.2	1.9	2	1.241	0.001	L	9	3.8	699.716	702.322	703.563	703.567	0
1	22102404	222	Low	10.0	Vague	2	13	14	36	1.9	5.6	1.1	36	14	13	1.1	5.6	1.9	1	1.069	0.000	R	13	1.9	704.069	705.879	706.947	706.950	0
1	22102404	223	Low	10.0	Precise	1	4	17	1	3.5	12.2	0.0	4	17	1	3.5	12.2	0.0	2	0.955	0.001	D	17	12.2	707.453	709.385	710.339	710.342	0
1	22102404	224	Low	10.0	Vague	2	13	15	23	1.9	7.2	0.0	15	13	23	7.2	1.9	0.0	2	0.791	0.001	L	15	7.2	710.845	712.572	713.363	713.366	0
1	22102404	225	Low	10.0	Vague	2	4	15	24	3.5	7.2	0.4	24	4	15	0.4	3.5	7.2	1	0.881	0.001	D	4	3.5	713.868	716.234	717.115	717.118	0
1	22102404	226	Low	10.0	Vague	2	9	15	24	3.8	7.2	0.4	9	15	24	3.8	7.2	0.4	2	0.657	0.001	D	15	7.2	717.621	718.490	719.147	719.150	0
1	22102404	227	Low	10.0	Precise	1	4	15	5	3.5	7.2	0.2	5	4	15	0.2	3.5	7.2	1	0.573	0.001	D	4	3.5	719.652	720.262	720.835	720.838	0
1	22102404	228	Low	10.0	Precise	1	15	17	8	7.2	12.2	0.0	17	15	8	12.2	7.2	0.0	1	0.733	0.001	D	15	7.2	721.341	723.630	724.363	724.366	0
1	22102404	229	Low	10.0	Vague	2	4	15	22	3.5	7.2	0.1	22	15	4	0.1	7.2	3.5	2	0.703	0.001	D	15	7.2	724.868	725.389	726.092	726.094	0
1	22102404	230	Low	10.0	Vague	2	4	14	21	3.5	5.6	0.0	14	4	21	5.6	3.5	0.0	1	0.817	0.001	D	4	3.5	726.596	728.586	729.403	729.406	0
1	22102404	231	Low	10.0	Precise	1	9	14	8	3.8	5.6	0.0	8	14	9	0.0	5.6	3.8	2	0.698	0.000	D	14	5.6	729.908	731.185	731.883	731.886	0
1	22102404	232	Low	10.0	Vague	2	13	15	36	1.9	7.2	1.1	36	15	13	1.1	7.2	1.9	2	0.629	0.001	D	15	7.2	732.388	733.006	733.635	733.638	0
1	22102404	233	Low	10.0	Vague	2	4	15	21	3.5	7.2	0.0	15	4	21	7.2	3.5	0.0	2	0.711	0.000	L	15	7.2	734.141	736.364	737.075	737.077	0
1	22102404	234	Low	10.0	Vague	2	4	17	23	3.5	12.2	0.0	4	23	17	3.5	0.0	12.2	2	1.289	0.000	R	17	12.2	737.580	740.058	741.347	741.350	0
1	22102404	235	Low	10.0	Vague	2	9	17	23	3.8	12.2	0.0	17	23	9	12.2	0.0	3.8	2	0.842	0.000	L	17	12.2	741.853	744.193	745.035	745.038	0
1	22102404	236	Low	10.0	Precise	1	13	17	5	1.9	12.2	0.2	17	5	13	12.2	0.2	1.9	2	0.613	0.000	L	17	12.2	745.540	747.590	748.203	748.206	0
1	22102404	237	Low	10.0	Vague	2	4	9	22	3.5	3.8	0.1	9	22	4	3.8	0.1	3.5	1	0.768	0.000	R	4	3.5	748.708	750.708	751.475	751.477	0
1	22102404	238	Low	10.0	Precise	1	13	15	3	1.9	7.2	0.6	3	13	15	0.6	1.9	7.2	2	0.655	0.001	R	15	7.2	751.981	753.372	754.027	754.030	0
1	22102404	239	Low	10.0	Precise	1	9	17	1	3.8	12.2	0.0	9	1	17	3.8	0.0	12.2	2	0.633	0.000	R	17	12.2	754.533	755.354	755.987	755.989	0
1	22102404	240	Low	10.0	Precise	1	4	9	18	3.5	3.8	0.0	4	18	9	3.5	0.0	3.8	1	0.701	0.000	L	4	3.5	756.492	759.158	759.859	759.862	0
1	22102404	241	Low	10.0	Vague	2	15	17	22	7.2	12.2	0.1	15	17	22	7.2	12.2	0.1	1	0.646	0.001	L	15	7.2	765.307	767.013	767.659	767.662	0
1	22102404	242	Low	10.0	Vague	2	13	9	21	1.9	3.8	0.0	9	21	13	3.8	0.0	1.9	2	0.836	0.000	L	9	3.8	768.165	770.023	770.859	770.862	0
1	22102404	243	Low	10.0	Precise	1	13	4	3	1.9	3.5	0.6	4	3	13	3.5	0.6	1.9	2	0.641	0.001	L	4	3.5	771.365	772.570	773.211	773.214	0
1	22102404	244	Low	10.0	Vague	2	14	17	21	5.6	12.2	0.0	14	17	21	5.6	12.2	0.0	1	0.591	0.000	L	14	5.6	773.717	776.612	777.203	777.206	0
1	22102404	245	Low	10.0	Vague	2	13	9	23	1.9	3.8	0.0	13	23	9	1.9	0.0	3.8	2	0.798	0.000	R	9	3.8	777.709	779.333	780.131	780.133	0
1	22102404	246	Low	10.0	Precise	1	13	15	1	1.9	7.2	0.0	15	1	13	7.2	0.0	1.9	2	0.725	0.001	L	15	7.2	780.637	783.023	783.747	783.750	0
1	22102404	247	Low	10.0	Vague	2	4	17	25	3.5	12.2	0.3	25	17	4	0.3	12.2	3.5	1	0.689	0.001	R	4	3.5	784.252	785.355	786.043	786.046	0
1	22102404	248	Low	10.0	Precise	1	13	4	8	1.9	3.5	0.0	4	8	13	3.5	0.0	1.9	2	0.781	0.000	L	4	3.5	786.548	789.205	789.987	789.989	0
1	22102404	249	Low	10.0	Precise	1	14	17	3	5.6	12.2	0.6	14	17	3	5.6	12.2	0.6	1	0.741	0.000	L	14	5.6	790.492	791.638	792.379	792.381	0
1	22102404	250	Low	10.0	Precise	1	4	9	8	3.5	3.8	0.0	8	9	4	0.0	3.8	3.5	1	0.724	0.000	R	4	3.5	792.885	794.831	795.555	795.558	0
1	22102404	251	Low	10.0	Precise	1	14	17	18	5.6	12.2	0.0	17	18	14	12.2	0.0	5.6	1	0.749	0.001	R	14	5.6	796.061	797.982	798.731	798.734	0
1	22102404	252	Low	10.0	Vague	2	9	14	21	3.8	5.6	0.0	14	21	9	5.6	0.0	3.8	2	0.702	0.001	L	14	5.6	799.236	801.957	802.659	802.662	0
1	22102404	253	Low	10.0	Vague	2	9	14	36	3.8	5.6	1.1	14	36	9	5.6	1.1	3.8	2	0.596	0.001	L	14	5.6	803.164	803.943	804.539	804.542	0
1	22102404	254	Low	10.0	Precise	1	9	15	8	3.8	7.2	0.0	9	15	8	3.8	7.2	0.0	2	0.869	0.000	D	15	7.2	805.045	807.398	808.267	808.270	0
1	22102404	255	Low	10.0	Vague	2	9	15	22	3.8	7.2	0.1	9	22	15	3.8	0.1	7.2	2	0.662	0.001	R	15	7.2	808.772	810.285	810.947	810.950	0
1	22102404	256	Low	10.0	Precise	1	4	17	11	3.5	12.2	1.0	17	11	4	12.2	1.0	3.5	1	0.798	0.000	R	4	3.5	811.453	814.365	815.163	815.165	0
1	22102404	257	Low	10.0	Precise	1	13	17	3	1.9	12.2	0.6	17	3	13	12.2	0.6	1.9	2	0.590	0.000	L	17	12.2	815.668	817.069	817.659	817.661	0
1	22102404	258	Low	10.0	Precise	1	4	9	3	3.5	3.8	0.6	9	4	3	3.8	3.5	0.6	2	0.804	0.001	L	9	3.8	818.164	819.551	820.355	820.358	0
1	22102404	259	Low	10.0	Precise	1	9	15	1	3.8	7.2	0.0	9	1	15	3.8	0.0	7.2	2	0.603	0.000	R	15	7.2	820.860	821.944	822.547	822.549	0
1	22102404	260	Low	10.0	Precise	1	13	9	18	1.9	3.8	0.0	9	18	13	3.8	0.0	1.9	1	0.682	0.001	R	13	1.9	823.053	823.850	824.531	824.533	0
1	22102404	261	Low	10.0	Vague	2	9	15	23	3.8	7.2	0.0	15	23	9	7.2	0.0	3.8	2	0.763	0.000	L	15	7.2	825.036	827.680	828.443	828.445	0
1	22102404	262	Low	10.0	Precise	1	13	14	3	1.9	5.6	0.6	3	13	14	0.6	1.9	5.6	2	0.650	0.000	R	14	5.6	828.949	829.784	830.435	830.437	0
1	22102404	263	Low	10.0	Precise	1	9	15	18	3.8	7.2	0.0	15	18	9	7.2	0.0	3.8	2	0.694	0.000	L	15	7.2	830.940	831.629	832.323	832.325	0
1	22102404	264	Low	10.0	Vague	2	14	17	25	5.6	12.2	0.3	17	25	14	12.2	0.3	5.6	1	0.605	0.001	R	14	5.6	832.828	833.454	834.059	834.062	0
1	22102404	265	Low	10.0	Precise	1	14	15	11	5.6	7.2	1.0	15	14	11	7.2	5.6	1.0	2	0.611	0.001	L	15	7.2	834.565	837.392	838.003	838.006	0
1	22102404	266	Low	10.0	Vague	2	4	17	24	3.5	12.2	0.4	17	4	24	12.2	3.5	0.4	1	0.791	0.001	D	4	3.5	838.509	840.012	840.803	840.806	0
1	22102404	267	Low	10.0	Precise	1	4	9	1	3.5	3.8	0.0	9	4	1	3.8	3.5	0.0	1	0.810	0.001	D	4	3.5	841.308	843.417	844.227	844.230	0
1	22102404	268	Low	10.0	Precise	1	9	14	18	3.8	5.6	0.0	9	14	18	3.8	5.6	0.0	2	1.037	0.001	D	14	5.6	844.733	846.310	847.347	847.350	0
1	22102404	269	Low	10.0	Precise	1	14	15	3	5.6	7.2	0.6	3	15	14	0.6	7.2	5.6	3	0.841	0.001	L	3	0.6	847.852	850.346	851.187	851.190	0
1	22102404	270	Low	10.0	Precise	1	14	15	18	5.6	7.2	0.0	18	15	14	0.0	7.2	5.6	1	0.840	0.001	R	14	5.6	851.692	852.755	853.595	853.598	0
1	22102404	271	Low	10.0	Vague	2	14	15	36	5.6	7.2	1.1	36	14	15	1.1	5.6	7.2	2	0.634	0.000	R	15	7.2	854.100	855.425	856.059	856.062	0
1	22102404	272	Low	10.0	Vague	2	13	4	21	1.9	3.5	0.0	13	21	4	1.9	0.0	3.5	2	1.104	0.001	R	4	3.5	856.565	858.779	859.883	859.886	0
1	22102404	273	Low	10.0	Vague	2	4	14	36	3.5	5.6	1.1	4	36	14	3.5	1.1	5.6	2	0.770	0.000	R	14	5.6	860.389	862.785	863.555	863.557	0
1	22102404	274	Low	10.0	Precise	1	9	14	1	3.8	5.6	0.0	14	1	9	5.6	0.0	3.8	2	0.715	0.001	L	14	5.6	864.061	866.856	867.571	867.574	0
1	22102404	275	Low	10.0	Vague	2	9	14	24	3.8	5.6	0.4	9	14	24	3.8	5.6	0.4	2	0.768	0.001	D	14	5.6	868.077	869.443	870.211	870.213	0
1	22102404	276	Low	10.0	Vague	2	13	17	25	1.9	12.2	0.3	13	17	25	1.9	12.2	0.3	1	0.888	0.001	L	13	1.9	870.716	873.483	874.371	874.374	0
1	22102404	277	Low	10.0	Vague	2	4	15	23	3.5	7.2	0.0	23	4	15	0.0	3.5	7.2	1	0.716	0.001	D	4	3.5	874.877	877.711	878.427	878.431	0
1	22102404	278	Low	10.0	Precise	1	4	14	1	3.5	5.6	0.0	14	1	4	5.6	0.0	3.5	1	0.556	0.001	R	4	3.5	878.933	881.015	881.571	881.574	0
1	22102404	279	Low	10.0	Precise	1	14	17	11	5.6	12.2	1.0	14	11	17	5.6	1.0	12.2	1	0.499	0.001	L	14	5.6	882.076	884.952	885.451	885.454	0
1	22102404	280	Low	10.0	Precise	1	4	14	11	3.5	5.6	1.0	11	4	14	1.0	3.5	5.6	1	0.785	0.001	D	4	3.5	885.957	887.490	888.275	888.277	0
1	22102404	281	Low	10.0	Vague	2	4	14	24	3.5	5.6	0.4	4	24	14	3.5	0.4	5.6	2	0.519	0.000	R	14	5.6	888.781	890.460	890.979	890.981	0
1	22102404	282	Low	10.0	Vague	2	14	15	25	5.6	7.2	0.3	14	25	15	5.6	0.3	7.2	2	0.581	0.001	R	15	7.2	891.484	894.342	894.923	894.925	0
1	22102404	283	Low	10.0	Precise	1	13	17	8	1.9	12.2	0.0	13	8	17	1.9	0.0	12.2	2	0.925	0.001	R	17	12.2	895.429	897.623	898.547	898.549	0
1	22102404	284	Low	10.0	Precise	1	13	14	8	1.9	5.6	0.0	8	13	14	0.0	1.9	5.6	2	0.598	0.001	R	14	5.6	899.053	900.134	900.731	900.733	0
1	22102404	285	Low	10.0	Vague	2	13	4	24	1.9	3.5	0.4	4	13	24	3.5	1.9	0.4	2	0.870	0.001	L	4	3.5	901.237	902.205	903.075	903.077	0
1	22102404	286	Low	10.0	Vague	2	9	17	22	3.8	12.2	0.1	17	22	9	12.2	0.1	3.8	2	0.778	0.000	L	17	12.2	903.580	906.216	906.995	906.997	0
1	22102404	287	Low	10.0	Vague	2	13	9	24	1.9	3.8	0.4	9	13	24	3.8	1.9	0.4	1	0.772	0.001	D	13	1.9	907.500	908.503	909.275	909.277	0
1	22102404	288	Low	10.0	Precise	1	9	17	8	3.8	12.2	0.0	9	17	8	3.8	12.2	0.0	2	0.670	0.000	D	17	12.2	909.780	910.485	911.155	911.157	0
1	22102404	289	Low	10.0	Vague	2	4	9	21	3.5	3.8	0.0	4	21	9	3.5	0.0	3.8	1	0.793	0.000	L	4	3.5	911.660	913.490	914.283	914.285	0
1	22102404	290	Low	10.0	Precise	1	13	14	18	1.9	5.6	0.0	18	14	13	0.0	5.6	1.9	2	0.888	0.001	D	14	5.6	914.788	917.052	917.939	917.941	0
1	22102404	291	Low	10.0	Vague	2	4	15	36	3.5	7.2	1.1	15	36	4	7.2	1.1	3.5	2	0.793	0.000	L	15	7.2	918.445	920.849	921.643	921.645	0
1	22102404	292	Low	10.0	Vague	2	4	14	23	3.5	5.6	0.0	23	4	14	0.0	3.5	5.6	1	1.022	0.001	D	4	3.5	922.148	924.437	925.459	925.462	0
1	22102404	293	Low	10.0	Vague	2	9	14	22	3.8	5.6	0.1	14	22	9	5.6	0.1	3.8	2	0.693	0.001	L	14	5.6	925.965	928.414	929.107	929.109	0
1	22102404	294	Low	10.0	Vague	2	4	17	21	3.5	12.2	0.0	4	21	17	3.5	0.0	12.2	1	0.653	0.001	L	4	3.5	929.613	930.486	931.139	931.141	0
1	22102404	295	Low	10.0	Precise	1	13	14	5	1.9	5.6	0.2	5	13	14	0.2	1.9	5.6	2	0.632	0.001	R	14	5.6	931.645	932.619	933.251	933.254	0
1	22102404	296	Low	10.0	Vague	2	13	4	22	1.9	3.5	0.1	4	22	13	3.5	0.1	1.9	2	0.579	0.001	L	4	3.5	933.756	935.464	936.043	936.045	0
1	22102404	297	Low	10.0	Precise	1	4	17	5	3.5	12.2	0.2	17	4	5	12.2	3.5	0.2	2	0.686	0.000	L	17	12.2	936.549	938.692	939.379	939.381	0
1	22102404	298	Low	10.0	Precise	1	13	14	1	1.9	5.6	0.0	13	1	14	1.9	0.0	5.6	1	0.728	0.001	L	13	1.9	939.884	941.347	942.075	942.077	0
1	22102404	299	Low	10.0	Vague	2	9	17	25	3.8	12.2	0.3	17	25	9	12.2	0.3	3.8	2	0.625	0.001	L	17	12.2	942.580	944.434	945.059	945.062	0
1	22102404	300	Low	10.0	Precise	1	4	14	18	3.5	5.6	0.0	4	14	18	3.5	5.6	0.0	1	0.680	0.001	L	4	3.5	945.565	947.003	947.683	947.685	0
1	22102404	301	Low	10.0	Precise	1	4	15	8	3.5	7.2	0.0	4	15	8	3.5	7.2	0.0	2	0.817	0.001	D	15	7.2	954.089	956.210	957.027	957.029	0
1	22102404	302	Low	10.0	Vague	2	9	17	21	3.8	12.2	0.0	9	21	17	3.8	0.0	12.2	1	0.753	0.000	L	9	3.8	957.532	958.809	959.563	959.565	0
1	22102404	303	Low	10.0	Vague	2	4	14	22	3.5	5.6	0.1	22	14	4	0.1	5.6	3.5	1	0.630	0.001	R	4	3.5	960.068	961.829	962.459	962.462	0
1	22102404	304	Low	10.0	Vague	2	4	9	24	3.5	3.8	0.4	24	4	9	0.4	3.5	3.8	1	0.711	0.001	D	4	3.5	962.965	964.876	965.587	965.590	0
1	22102404	305	Low	10.0	Precise	1	13	4	11	1.9	3.5	1.0	11	13	4	1.0	1.9	3.5	2	0.595	0.000	R	4	3.5	966.092	967.376	967.971	967.973	0
1	22102404	306	Low	10.0	Vague	2	9	15	25	3.8	7.2	0.3	15	25	9	7.2	0.3	3.8	2	0.638	0.000	L	15	7.2	968.477	970.709	971.347	971.349	0
1	22102404	307	Low	10.0	Precise	1	13	4	18	1.9	3.5	0.0	13	18	4	1.9	0.0	3.5	2	0.600	0.000	R	4	3.5	971.852	973.762	974.363	974.365	0
1	22102404	308	Low	10.0	Vague	2	14	17	24	5.6	12.2	0.4	17	14	24	12.2	5.6	0.4	2	0.784	0.001	L	17	12.2	974.869	975.459	976.243	976.246	0
1	22102404	309	Low	10.0	Vague	2	4	9	23	3.5	3.8	0.0	4	23	9	3.5	0.0	3.8	1	0.533	0.001	L	4	3.5	976.748	977.550	978.083	978.085	0
1	22102404	310	Low	10.0	Precise	1	4	17	8	3.5	12.2	0.0	17	4	8	12.2	3.5	0.0	2	0.658	0.000	L	17	12.2	978.588	981.217	981.875	981.877	0
1	22102404	311	Low	10.0	Vague	2	9	17	24	3.8	12.2	0.4	24	17	9	0.4	12.2	3.8	2	0.841	0.001	D	17	12.2	982.380	983.754	984.595	984.597	0
1	22102404	312	Low	10.0	Vague	2	9	14	23	3.8	5.6	0.0	14	9	23	5.6	3.8	0.0	2	0.843	0.001	L	14	5.6	985.100	986.200	987.043	987.045	0
1	22102404	313	Low	10.0	Precise	1	13	17	18	1.9	12.2	0.0	13	18	17	1.9	0.0	12.2	2	0.603	0.001	R	17	12.2	987.548	989.832	990.435	990.438	0
1	22102404	314	Low	10.0	Precise	1	9	15	5	3.8	7.2	0.2	9	15	5	3.8	7.2	0.2	2	0.898	0.001	D	15	7.2	990.940	991.521	992.419	992.421	0
1	22102404	315	Low	10.0	Vague	2	9	15	21	3.8	7.2	0.0	15	9	21	7.2	3.8	0.0	2	0.702	0.000	L	15	7.2	992.925	995.917	996.619	996.621	0
1	22102404	316	Low	10.0	Precise	1	4	15	1	3.5	7.2	0.0	4	1	15	3.5	0.0	7.2	2	0.658	0.001	R	15	7.2	997.124	998.289	998.947	998.949	0
1	22102404	317	Low	10.0	Vague	2	13	17	23	1.9	12.2	0.0	17	13	23	12.2	1.9	0.0	2	0.557	0.000	L	17	12.2	999.452	1002.206	1002.763	1002.765	0
1	22102404	318	Low	10.0	Vague	2	13	9	36	1.9	3.8	1.1	13	9	36	1.9	3.8	1.1	1	0.554	0.001	L	13	1.9	1003.268	1005.697	1006.251	1006.254	0
1	22102404	319	Low	10.0	Vague	2	14	17	36	5.6	12.2	1.1	14	36	17	5.6	1.1	12.2	1	1.059	0.000	L	14	5.6	1006.756	1007.343	1008.403	1008.405	0
1	22102404	320	Low	10.0	Precise	1	13	9	11	1.9	3.8	1.0	13	11	9	1.9	1.0	3.8	1	1.001	0.000	L	13	1.9	1008.908	1009.658	1010.659	1010.661	0
1	22102404	321	Low	10.0	Precise	1	15	17	5	7.2	12.2	0.2	15	17	5	7.2	12.2	0.2	1	0.734	0.000	L	15	7.2	1011.164	1013.740	1014.475	1014.477	0
1	22102404	322	Low	10.0	Precise	1	13	9	3	1.9	3.8	0.6	9	13	3	3.8	1.9	0.6	1	0.767	0.000	D	13	1.9	1014.980	1016.988	1017.755	1017.757	0
1	22102404	323	Low	10.0	Precise	1	15	17	18	7.2	12.2	0.0	15	17	18	7.2	12.2	0.0	1	0.731	0.001	L	15	7.2	1018.260	1018.904	1019.635	1019.637	0
1	22102404	324	Low	10.0	Precise	1	4	14	8	3.5	5.6	0.0	14	4	8	5.6	3.5	0.0	2	0.640	0.000	L	14	5.6	1020.140	1021.771	1022.411	1022.413	0
1	22102404	325	Low	10.0	Vague	2	15	17	25	7.2	12.2	0.3	17	15	25	12.2	7.2	0.3	1	0.631	0.001	D	15	7.2	1022.916	1024.164	1024.795	1024.797	0
1	22102404	326	Low	10.0	Vague	2	13	17	36	1.9	12.2	1.1	13	17	36	1.9	12.2	1.1	2	0.748	0.001	D	17	12.2	1025.300	1027.599	1028.347	1028.349	0
1	22102404	327	Low	10.0	Vague	2	13	17	22	1.9	12.2	0.1	13	17	22	1.9	12.2	0.1	2	0.542	0.001	D	17	12.2	1028.853	1030.565	1031.107	1031.109	0
1	22102404	328	Low	10.0	Vague	2	14	17	23	5.6	12.2	0.0	23	17	14	0.0	12.2	5.6	2	0.603	0.001	D	17	12.2	1031.613	1034.232	1034.835	1034.837	0
1	22102404	329	Low	10.0	Vague	2	13	14	23	1.9	5.6	0.0	13	14	23	1.9	5.6	0.0	2	0.816	0.001	D	14	5.6	1035.340	1036.755	1037.571	1037.573	0
1	22102404	330	Low	10.0	Precise	1	9	17	11	3.8	12.2	1.0	9	17	11	3.8	12.2	1.0	2	0.657	0.001	D	17	12.2	1038.076	1040.346	1041.003	1041.005	0
1	22102404	331	Low	10.0	Vague	2	9	15	36	3.8	7.2	1.1	15	36	9	7.2	1.1	3.8	2	0.859	0.000	L	15	7.2	1041.508	1042.144	1043.003	1043.005	0
1	22102404	332	Low	10.0	Precise	1	9	17	5	3.8	12.2	0.2	17	5	9	12.2	0.2	3.8	2	0.734	0.001	L	17	12.2	1043.508	1046.317	1047.051	1047.053	0
1	22102404	333	Low	10.0	Precise	1	13	17	11	1.9	12.2	1.0	11	17	13	1.0	12.2	1.9	2	0.765	0.000	D	17	12.2	1047.556	1049.134	1049.899	1049.901	0
1	22102404	334	Low	10.0	Precise	1	9	14	3	3.8	5.6	0.6	3	14	9	0.6	5.6	3.8	1	0.676	0.000	R	9	3.8	1050.404	1052.399	1053.075	1053.077	0
1	22102404	335	Low	10.0	Vague	2	9	17	36	3.8	12.2	1.1	17	36	9	12.2	1.1	3.8	2	1.027	0.000	L	17	12.2	1053.580	1054.080	1055.107	1055.109	0
1	22102404	336	Low	10.0	Precise	1	4	14	5	3.5	5.6	0.2	4	14	5	3.5	5.6	0.2	2	0.643	0.001	D	14	5.6	1055.612	1056.656	1057.299	1057.301	0
1	22102404	337	Low	10.0	Precise	1	13	15	8	1.9	7.2	0.0	8	13	15	0.0	1.9	7.2	2	0.699	0.001	R	15	7.2	1057.804	1059.752	1060.451	1060.453	0
1	22102404	338	Low	10.0	Vague	2	13	9	22	1.9	3.8	0.1	22	13	9	0.1	1.9	3.8	1	0.524	0.001	D	13	1.9	1060.956	1061.791	1062.315	1062.318	0
1	22102404	339	Low	10.0	Vague	2	14	15	22	5.6	7.2	0.1	14	15	22	5.6	7.2	0.1	2	0.664	0.001	D	15	7.2	1062.820	1063.819	1064.483	1064.485	0
1	22102404	340	Low	10.0	Vague	2	13	15	21	1.9	7.2	0.0	15	13	21	7.2	1.9	0.0	2	0.999	0.000	L	15	7.2	1064.988	1066.092	1067.091	1067.093	0
1	22102404	341	Low	10.0	Vague	2	4	9	36	3.5	3.8	1.1	36	9	4	1.1	3.8	3.5	2	0.941	0.000	D	9	3.8	1067.596	1068.861	1069.803	1069.805	0
1	22102404	342	Low	10.0	Precise	1	13	9	1	1.9	3.8	0.0	9	1	13	3.8	0.0	1.9	2	0.812	0.001	L	9	3.8	1070.308	1070.927	1071.739	1071.742	0
1	22102404	343	Low	10.0	Vague	2	13	4	25	1.9	3.5	0.3	25	13	4	0.3	1.9	3.5	2	0.728	0.001	R	4	3.5	1072.245	1075.083	1075.811	1075.813	0
1	22102404	344	Low	10.0	Vague	2	14	15	23	5.6	7.2	0.0	15	23	14	7.2	0.0	5.6	2	0.663	0.001	L	15	7.2	1076.316	1077.308	1077.971	1077.973	0
1	22102404	345	Low	10.0	Vague	2	13	14	21	1.9	5.6	0.0	13	14	21	1.9	5.6	0.0	1	0.934	0.001	L	13	1.9	1078.476	1080.917	1081.851	1081.853	0
1	22102404	346	Low	10.0	Vague	2	13	15	22	1.9	7.2	0.1	15	22	13	7.2	0.1	1.9	2	0.616	0.001	L	15	7.2	1082.356	1085.163	1085.779	1085.781	0
1	22102404	347	Low	10.0	Precise	1	13	4	5	1.9	3.5	0.2	13	5	4	1.9	0.2	3.5	1	0.572	0.001	L	13	1.9	1086.284	1088.463	1089.035	1089.037	0
1	22102404	348	Low	10.0	Precise	1	4	15	11	3.5	7.2	1.0	11	15	4	1.0	7.2	3.5	2	0.696	0.001	D	15	7.2	1089.540	1090.683	1091.379	1091.381	0
1	22102404	349	Low	10.0	Vague	2	15	17	24	7.2	12.2	0.4	17	15	24	12.2	7.2	0.4	1	0.612	0.001	D	15	7.2	1091.884	1093.935	1094.547	1094.549	0
1	22102404	350	Low	10.0	Precise	1	9	17	3	3.8	12.2	0.6	9	17	3	3.8	12.2	0.6	2	0.663	0.000	D	17	12.2	1095.052	1095.739	1096.403	1096.405	0
1	22102404	351	Low	10.0	Precise	1	15	17	11	7.2	12.2	1.0	11	15	17	1.0	7.2	12.2	1	0.722	0.001	D	15	7.2	1096.907	1099.193	1099.915	1099.918	0
1	22102404	352	Low	10.0	Precise	1	4	9	11	3.5	3.8	1.0	4	9	11	3.5	3.8	1.0	1	0.712	0.001	L	4	3.5	1100.421	1103.187	1103.899	1103.901	0
1	22102404	353	Low	10.0	Vague	2	13	15	25	1.9	7.2	0.3	25	15	13	0.3	7.2	1.9	2	0.656	0.001	D	15	7.2	1104.404	1106.707	1107.363	1107.365	0
1	22102404	354	Low	10.0	Precise	1	13	15	18	1.9	7.2	0.0	18	13	15	0.0	1.9	7.2	1	0.578	0.001	D	13	1.9	1107.868	1109.873	1110.451	1110.453	0
1	22102404	355	Low	10.0	Precise	1	14	15	8	5.6	7.2	0.0	14	15	8	5.6	7.2	0.0	2	0.835	0.000	D	15	7.2	1110.957	1113.016	1113.851	1113.853	0
1	22102404	356	Low	10.0	Precise	1	14	15	5	5.6	7.2	0.2	5	14	15	0.2	5.6	7.2	1	0.731	0.001	D	14	5.6	1114.356	1116.952	1117.683	1117.685	0
1	22102404	357	Low	10.0	Precise	1	14	17	8	5.6	12.2	0.0	8	14	17	0.0	5.6	12.2	1	0.650	0.001	D	14	5.6	1118.188	1120.345	1120.995	1120.997	0
1	22102404	358	Low	10.0	Vague	2	4	14	25	3.5	5.6	0.3	4	25	14	3.5	0.3	5.6	2	0.993	0.001	R	14	5.6	1121.500	1124.026	1125.019	1125.021	0
1	22102404	359	Low	10.0	Precise	1	13	15	11	1.9	7.2	1.0	13	11	15	1.9	1.0	7.2	2	0.904	0.001	R	15	7.2	1125.524	1126.083	1126.987	1126.989	0
1	22102404	360	Low	10.0	Vague	2	14	17	22	5.6	12.2	0.1	14	22	17	5.6	0.1	12.2	2	0.658	0.000	R	17	12.2	1127.492	1130.064	1130.722	1130.725	0
