Group	subID	trial	TimePressure	TimeConstraint	Vagueness	Vaguenesscode	ID1	ID2	ID3	V1	V2	V3	ID_left	ID_middle	ID_right	Bid_left	Bid_middle	Bid_right	chosenItem	RT	RTvariance	chosenPosition	chosenID	chosenValue	fixation_time	option_time	choice_time	feedback_time	timeout
2	22071905	1	Low	10.0	Vague	2	28	31	9	37.4	43.9	38.3	31	28	9	43.9	37.4	38.3	1	2.092	0.000	D	28	37.4	6.545	7.936	10.028	10.032	0
2	22071905	2	Low	10.0	Vague	2	31	34	5	43.9	80.5	19.2	34	5	31	80.5	19.2	43.9	1	4.275	0.001	R	31	43.9	10.536	11.449	15.724	15.727	0
2	22071905	3	Low	10.0	Precise	1	26	34	23	79.1	80.5	2.6	34	23	26	80.5	2.6	79.1	1	3.663	0.001	R	26	79.1	16.230	19.133	22.796	22.799	0
2	22071905	4	Low	10.0	Vague	2	31	26	9	43.9	79.1	38.3	31	9	26	43.9	38.3	79.1	3	2.282	0.001	D	9	38.3	23.303	25.090	27.372	27.375	0
2	22071905	5	Low	10.0	Vague	2	28	33	7	37.4	86.8	6.5	7	33	28	6.5	86.8	37.4	1	1.455	0.000	R	28	37.4	27.879	29.404	30.860	30.864	0
2	22071905	6	Low	10.0	Precise	1	26	33	23	79.1	86.8	2.6	23	26	33	2.6	79.1	86.8	1	1.905	0.000	D	26	79.1	31.369	32.491	34.396	34.399	0
2	22071905	7	Low	10.0	Vague	2	31	34	11	43.9	80.5	14.8	34	11	31	80.5	14.8	43.9	1	1.958	0.001	R	31	43.9	34.902	37.638	39.596	39.598	0
2	22071905	8	Low	10.0	Precise	1	28	26	25	37.4	79.1	23.7	28	25	26	37.4	23.7	79.1	1	1.961	0.000	L	28	37.4	40.101	40.915	42.876	42.879	0
2	22071905	9	Low	10.0	Precise	1	28	31	21	37.4	43.9	3.9	28	21	31	37.4	3.9	43.9	1	1.350	0.000	L	28	37.4	43.382	44.374	45.724	45.727	0
2	22071905	10	Low	10.0	Vague	2	31	26	11	43.9	79.1	14.8	26	31	11	79.1	43.9	14.8	1	9.225	0.000	D	31	43.9	46.230	48.195	57.420	57.423	0
2	22071905	11	Low	10.0	Vague	2	32	26	7	40.9	79.1	6.5	26	32	7	79.1	40.9	6.5	2	4.714	0.001	L	26	79.1	57.925	59.555	64.268	64.271	0
2	22071905	12	Low	10.0	Precise	1	31	33	21	43.9	86.8	3.9	21	33	31	3.9	86.8	43.9	1	3.401	0.001	R	31	43.9	64.773	66.931	70.332	70.334	0
2	22071905	13	Low	10.0	Precise	1	32	34	23	40.9	80.5	2.6	23	34	32	2.6	80.5	40.9	1	4.959	0.000	R	32	40.9	70.837	73.725	78.684	78.686	0
2	22071905	14	Low	10.0	Vague	2	26	33	10	79.1	86.8	27.5	26	10	33	79.1	27.5	86.8	NaN	NaN	NaN	NaN	NaN	NaN	79.189	79.925	NaN	89.915	1
2	22071905	15	Low	10.0	Vague	2	31	33	9	43.9	86.8	38.3	9	33	31	38.3	86.8	43.9	3	8.815	0.000	L	9	38.3	91.919	92.876	101.692	101.695	0
2	22071905	16	Low	10.0	Precise	1	26	33	35	79.1	86.8	35.8	35	33	26	35.8	86.8	79.1	1	3.390	0.000	R	26	79.1	102.198	103.197	106.588	106.590	0
2	22071905	17	Low	10.0	Vague	2	26	33	5	79.1	86.8	19.2	26	33	5	79.1	86.8	19.2	1	2.876	0.000	L	26	79.1	107.094	109.408	112.284	112.287	0
2	22071905	18	Low	10.0	Vague	2	32	34	7	40.9	80.5	6.5	34	7	32	80.5	6.5	40.9	3	2.589	0.000	D	7	6.5	112.790	114.047	116.636	116.638	0
2	22071905	19	Low	10.0	Vague	2	28	26	1	37.4	79.1	5.4	28	26	1	37.4	79.1	5.4	1	1.678	0.000	L	28	37.4	117.141	120.014	121.692	121.695	0
2	22071905	20	Low	10.0	Precise	1	28	33	20	37.4	86.8	2.0	33	28	20	86.8	37.4	2.0	1	2.348	0.000	D	28	37.4	122.197	122.736	125.084	125.086	0
2	22071905	21	Low	10.0	Vague	2	26	34	7	79.1	80.5	6.5	26	34	7	79.1	80.5	6.5	3	3.701	0.000	R	7	6.5	125.589	127.831	131.532	131.534	0
2	22071905	22	Low	10.0	Vague	2	26	33	11	79.1	86.8	14.8	11	33	26	14.8	86.8	79.1	2	2.998	0.000	D	33	86.8	132.037	134.998	137.996	137.998	0
2	22071905	23	Low	10.0	Vague	2	31	33	10	43.9	86.8	27.5	10	33	31	27.5	86.8	43.9	1	2.194	0.000	R	31	43.9	138.501	139.146	141.340	141.343	0
2	22071905	24	Low	10.0	Precise	1	32	34	21	40.9	80.5	3.9	21	32	34	3.9	40.9	80.5	3	5.266	0.001	L	21	3.9	141.845	143.386	148.652	148.655	0
2	22071905	25	Low	10.0	Precise	1	28	31	29	37.4	43.9	31.6	31	28	29	43.9	37.4	31.6	1	5.369	0.000	D	28	37.4	149.157	150.979	156.348	156.351	0
2	22071905	26	Low	10.0	Vague	2	28	26	7	37.4	79.1	6.5	26	7	28	79.1	6.5	37.4	2	3.894	0.000	L	26	79.1	156.853	157.846	161.740	161.743	0
2	22071905	27	Low	10.0	Precise	1	28	34	21	37.4	80.5	3.9	28	21	34	37.4	3.9	80.5	1	1.296	0.000	L	28	37.4	162.245	164.700	165.996	165.999	0
2	22071905	28	Low	10.0	Vague	2	32	31	11	40.9	43.9	14.8	32	31	11	40.9	43.9	14.8	2	1.548	0.000	D	31	43.9	166.502	168.864	170.412	170.414	0
2	22071905	29	Low	10.0	Vague	2	31	34	10	43.9	80.5	27.5	34	10	31	80.5	27.5	43.9	1	2.453	0.000	R	31	43.9	170.917	173.127	175.580	175.582	0
2	22071905	30	Low	10.0	Vague	2	28	34	7	37.4	80.5	6.5	28	7	34	37.4	6.5	80.5	1	1.281	0.000	L	28	37.4	176.085	178.763	180.044	180.046	0
2	22071905	31	Low	10.0	Precise	1	32	34	25	40.9	80.5	23.7	32	25	34	40.9	23.7	80.5	3	4.921	0.000	D	25	23.7	180.550	181.235	186.156	186.158	0
2	22071905	32	Low	10.0	Vague	2	28	33	5	37.4	86.8	19.2	33	28	5	86.8	37.4	19.2	1	1.953	0.000	D	28	37.4	186.661	189.451	191.404	191.406	0
2	22071905	33	Low	10.0	Precise	1	28	31	25	37.4	43.9	23.7	25	28	31	23.7	37.4	43.9	1	2.521	0.001	D	28	37.4	191.909	193.155	195.676	195.679	0
2	22071905	34	Low	10.0	Vague	2	32	26	5	40.9	79.1	19.2	26	5	32	79.1	19.2	40.9	2	9.001	0.000	L	26	79.1	196.182	197.170	206.172	206.174	0
2	22071905	35	Low	10.0	Vague	2	26	33	9	79.1	86.8	38.3	9	26	33	38.3	79.1	86.8	3	2.773	0.000	L	9	38.3	206.677	209.208	211.980	211.982	0
2	22071905	36	Low	10.0	Precise	1	28	32	25	37.4	40.9	23.7	32	28	25	40.9	37.4	23.7	1	2.507	0.001	D	28	37.4	212.485	213.490	215.996	215.998	0
2	22071905	37	Low	10.0	Vague	2	32	31	5	40.9	43.9	19.2	5	31	32	19.2	43.9	40.9	2	2.108	0.000	D	31	43.9	216.502	219.072	221.180	221.183	0
2	22071905	38	Low	10.0	Precise	1	26	33	21	79.1	86.8	3.9	21	26	33	3.9	79.1	86.8	1	1.893	0.001	D	26	79.1	221.685	224.199	226.092	226.095	0
2	22071905	39	Low	10.0	Vague	2	26	34	11	79.1	80.5	14.8	11	26	34	14.8	79.1	80.5	1	2.281	0.000	D	26	79.1	226.597	227.619	229.900	229.903	0
2	22071905	40	Low	10.0	Precise	1	28	26	23	37.4	79.1	2.6	28	23	26	37.4	2.6	79.1	1	1.259	0.001	L	28	37.4	230.406	231.937	233.196	233.199	0
2	22071905	41	Low	10.0	Precise	1	31	26	23	43.9	79.1	2.6	23	31	26	2.6	43.9	79.1	1	1.941	0.001	D	31	43.9	233.701	234.968	236.908	236.911	0
2	22071905	42	Low	10.0	Precise	1	26	34	21	79.1	80.5	3.9	21	34	26	3.9	80.5	79.1	1	1.500	0.000	R	26	79.1	237.413	238.928	240.428	240.430	0
2	22071905	43	Low	10.0	Precise	1	32	33	23	40.9	86.8	2.6	23	33	32	2.6	86.8	40.9	2	1.795	0.000	D	33	86.8	240.933	242.809	244.604	244.606	0
2	22071905	44	Low	10.0	Precise	1	32	26	25	40.9	79.1	23.7	32	26	25	40.9	79.1	23.7	2	2.763	0.000	D	26	79.1	245.110	247.377	250.140	250.142	0
2	22071905	45	Low	10.0	Vague	2	28	26	11	37.4	79.1	14.8	26	11	28	79.1	14.8	37.4	2	2.621	0.000	L	26	79.1	250.646	251.263	253.884	253.886	0
2	22071905	46	Low	10.0	Vague	2	28	32	7	37.4	40.9	6.5	7	28	32	6.5	37.4	40.9	1	1.921	0.000	D	28	37.4	254.389	255.979	257.900	257.902	0
2	22071905	47	Low	10.0	Precise	1	28	31	23	37.4	43.9	2.6	28	23	31	37.4	2.6	43.9	1	1.414	0.000	L	28	37.4	258.405	260.902	262.316	262.318	0
2	22071905	48	Low	10.0	Precise	1	32	31	23	40.9	43.9	2.6	32	23	31	40.9	2.6	43.9	2	1.870	0.000	R	31	43.9	262.822	264.142	266.012	266.014	0
2	22071905	49	Low	10.0	Precise	1	31	33	29	43.9	86.8	31.6	31	29	33	43.9	31.6	86.8	1	3.478	0.001	L	31	43.9	266.518	269.478	272.956	272.959	0
2	22071905	50	Low	10.0	Precise	1	31	34	23	43.9	80.5	2.6	31	34	23	43.9	80.5	2.6	1	1.295	0.000	L	31	43.9	273.461	276.445	277.740	277.743	0
2	22071905	51	Low	10.0	Vague	2	34	33	1	80.5	86.8	5.4	33	34	1	86.8	80.5	5.4	2	2.013	0.000	L	33	86.8	278.245	280.415	282.428	282.430	0
2	22071905	52	Low	10.0	Vague	2	32	26	9	40.9	79.1	38.3	9	32	26	38.3	40.9	79.1	2	4.187	0.000	R	26	79.1	282.933	285.041	289.228	289.231	0
2	22071905	53	Low	10.0	Precise	1	26	34	25	79.1	80.5	23.7	25	26	34	23.7	79.1	80.5	1	1.726	0.001	D	26	79.1	289.734	290.638	292.364	292.367	0
2	22071905	54	Low	10.0	Precise	1	32	26	29	40.9	79.1	31.6	32	26	29	40.9	79.1	31.6	2	1.678	0.000	D	26	79.1	292.869	295.695	297.372	297.375	0
2	22071905	55	Low	10.0	Vague	2	32	33	10	40.9	86.8	27.5	33	10	32	86.8	27.5	40.9	2	2.174	0.001	L	33	86.8	297.878	299.886	302.060	302.063	0
2	22071905	56	Low	10.0	Precise	1	32	34	29	40.9	80.5	31.6	34	29	32	80.5	31.6	40.9	3	1.981	0.000	D	29	31.6	302.565	304.032	306.012	306.014	0
2	22071905	57	Low	10.0	Precise	1	31	34	35	43.9	80.5	35.8	35	34	31	35.8	80.5	43.9	1	2.097	0.000	R	31	43.9	306.518	309.035	311.132	311.134	0
2	22071905	58	Low	10.0	Precise	1	28	33	25	37.4	86.8	23.7	25	28	33	23.7	37.4	86.8	2	3.446	0.001	R	33	86.8	311.637	312.806	316.252	316.255	0
2	22071905	59	Low	10.0	Precise	1	34	33	29	80.5	86.8	31.6	29	34	33	31.6	80.5	86.8	2	4.364	0.000	R	33	86.8	316.757	318.192	322.556	322.559	0
2	22071905	60	Low	10.0	Precise	1	34	33	21	80.5	86.8	3.9	34	33	21	80.5	86.8	3.9	2	1.577	0.001	D	33	86.8	323.063	324.819	326.396	326.398	0
2	22071905	61	Low	10.0	Precise	1	32	33	21	40.9	86.8	3.9	33	21	32	86.8	3.9	40.9	3	3.671	0.000	D	21	3.9	335.804	338.277	341.948	341.951	0
2	22071905	62	Low	10.0	Precise	1	31	26	21	43.9	79.1	3.9	26	31	21	79.1	43.9	3.9	1	1.268	0.000	D	31	43.9	342.454	345.304	346.572	346.575	0
2	22071905	63	Low	10.0	Precise	1	32	31	20	40.9	43.9	2.0	31	32	20	43.9	40.9	2.0	2	2.151	0.000	L	31	43.9	347.078	349.157	351.308	351.310	0
2	22071905	64	Low	10.0	Vague	2	32	26	10	40.9	79.1	27.5	26	32	10	79.1	40.9	27.5	2	1.578	0.000	L	26	79.1	351.814	352.898	354.476	354.479	0
2	22071905	65	Low	10.0	Precise	1	31	26	29	43.9	79.1	31.6	26	31	29	79.1	43.9	31.6	2	3.577	0.000	L	26	79.1	354.981	356.307	359.884	359.886	0
2	22071905	66	Low	10.0	Precise	1	28	32	29	37.4	40.9	31.6	29	32	28	31.6	40.9	37.4	1	4.590	0.001	R	28	37.4	360.389	361.886	366.476	366.479	0
2	22071905	67	Low	10.0	Vague	2	32	34	1	40.9	80.5	5.4	1	34	32	5.4	80.5	40.9	3	3.437	0.000	L	1	5.4	366.982	369.711	373.148	373.150	0
2	22071905	68	Low	10.0	Vague	2	26	34	1	79.1	80.5	5.4	34	1	26	80.5	5.4	79.1	1	3.575	0.000	R	26	79.1	373.653	376.485	380.060	380.063	0
2	22071905	69	Low	10.0	Vague	2	32	34	11	40.9	80.5	14.8	11	32	34	14.8	40.9	80.5	3	7.893	0.000	L	11	14.8	380.566	381.383	389.276	389.278	0
2	22071905	70	Low	10.0	Vague	2	28	33	1	37.4	86.8	5.4	1	33	28	5.4	86.8	37.4	3	4.010	0.000	L	1	5.4	389.781	391.057	395.068	395.070	0
2	22071905	71	Low	10.0	Precise	1	32	26	20	40.9	79.1	2.0	20	32	26	2.0	40.9	79.1	2	2.351	0.000	R	26	79.1	395.573	396.861	399.212	399.215	0
2	22071905	72	Low	10.0	Vague	2	26	34	10	79.1	80.5	27.5	26	10	34	79.1	27.5	80.5	1	1.520	0.000	L	26	79.1	399.717	402.429	403.948	403.951	0
2	22071905	73	Low	10.0	Vague	2	34	33	9	80.5	86.8	38.3	9	34	33	38.3	80.5	86.8	3	5.553	0.000	L	9	38.3	404.454	405.451	411.004	411.007	0
2	22071905	74	Low	10.0	Vague	2	28	32	1	37.4	40.9	5.4	1	32	28	5.4	40.9	37.4	3	2.435	0.000	L	1	5.4	411.509	412.057	414.492	414.494	0
2	22071905	75	Low	10.0	Precise	1	26	34	29	79.1	80.5	31.6	26	29	34	79.1	31.6	80.5	1	2.264	0.000	L	26	79.1	414.997	416.468	418.732	418.735	0
2	22071905	76	Low	10.0	Precise	1	26	33	20	79.1	86.8	2.0	26	33	20	79.1	86.8	2.0	1	2.792	0.000	L	26	79.1	419.238	420.420	423.212	423.214	0
2	22071905	77	Low	10.0	Vague	2	32	33	5	40.9	86.8	19.2	33	32	5	86.8	40.9	19.2	2	2.667	0.000	L	33	86.8	423.717	425.169	427.836	427.838	0
2	22071905	78	Low	10.0	Precise	1	31	34	20	43.9	80.5	2.0	20	34	31	2.0	80.5	43.9	1	1.827	0.001	R	31	43.9	428.341	429.977	431.804	431.807	0
2	22071905	79	Low	10.0	Vague	2	34	33	7	80.5	86.8	6.5	33	7	34	86.8	6.5	80.5	2	2.144	0.000	L	33	86.8	432.310	434.284	436.428	436.431	0
2	22071905	80	Low	10.0	Vague	2	32	26	11	40.9	79.1	14.8	26	32	11	79.1	40.9	14.8	2	3.310	0.000	L	26	79.1	436.934	439.182	442.492	442.494	0
2	22071905	81	Low	10.0	Vague	2	28	33	9	37.4	86.8	38.3	9	28	33	38.3	37.4	86.8	3	1.303	0.000	L	9	38.3	442.997	445.157	446.460	446.462	0
2	22071905	82	Low	10.0	Precise	1	31	26	35	43.9	79.1	35.8	35	26	31	35.8	79.1	43.9	1	2.479	0.000	R	31	43.9	446.965	448.157	450.636	450.638	0
2	22071905	83	Low	10.0	Vague	2	32	33	9	40.9	86.8	38.3	33	9	32	86.8	38.3	40.9	3	3.753	0.001	D	9	38.3	451.141	451.683	455.436	455.439	0
2	22071905	84	Low	10.0	Vague	2	28	34	10	37.4	80.5	27.5	10	28	34	27.5	37.4	80.5	1	1.432	0.000	D	28	37.4	455.941	457.268	458.700	458.702	0
2	22071905	85	Low	10.0	Vague	2	31	26	7	43.9	79.1	6.5	7	31	26	6.5	43.9	79.1	1	2.378	0.000	D	31	43.9	459.205	462.114	464.492	464.494	0
2	22071905	86	Low	10.0	Vague	2	32	33	7	40.9	86.8	6.5	7	33	32	6.5	86.8	40.9	2	3.660	0.001	D	33	86.8	464.998	467.808	471.468	471.471	0
2	22071905	87	Low	10.0	Vague	2	31	34	9	43.9	80.5	38.3	9	34	31	38.3	80.5	43.9	1	3.382	0.001	R	31	43.9	471.974	474.710	478.092	478.095	0
2	22071905	88	Low	10.0	Vague	2	28	32	10	37.4	40.9	27.5	32	10	28	40.9	27.5	37.4	1	2.121	0.000	R	28	37.4	478.598	480.483	482.604	482.607	0
2	22071905	89	Low	10.0	Precise	1	34	33	20	80.5	86.8	2.0	34	33	20	80.5	86.8	2.0	2	1.976	0.000	D	33	86.8	483.109	485.252	487.228	487.230	0
2	22071905	90	Low	10.0	Precise	1	32	31	25	40.9	43.9	23.7	32	31	25	40.9	43.9	23.7	2	1.465	0.000	D	31	43.9	487.733	490.708	492.172	492.175	0
2	22071905	91	Low	10.0	Precise	1	28	34	23	37.4	80.5	2.6	34	28	23	80.5	37.4	2.6	1	1.031	0.000	D	28	37.4	492.678	495.589	496.620	496.623	0
2	22071905	92	Low	10.0	Precise	1	28	33	21	37.4	86.8	3.9	33	21	28	86.8	3.9	37.4	1	6.593	0.000	R	28	37.4	497.126	498.859	505.452	505.455	0
2	22071905	93	Low	10.0	Precise	1	28	26	20	37.4	79.1	2.0	28	20	26	37.4	2.0	79.1	1	1.162	0.000	L	28	37.4	505.957	507.186	508.348	508.351	0
2	22071905	94	Low	10.0	Vague	2	32	33	1	40.9	86.8	5.4	1	32	33	5.4	40.9	86.8	3	4.705	0.000	L	1	5.4	508.854	511.083	515.788	515.791	0
2	22071905	95	Low	10.0	Precise	1	28	34	35	37.4	80.5	35.8	35	28	34	35.8	37.4	80.5	1	1.358	0.000	D	28	37.4	516.293	516.974	518.332	518.335	0
2	22071905	96	Low	10.0	Vague	2	28	34	11	37.4	80.5	14.8	11	28	34	14.8	37.4	80.5	1	1.893	0.000	D	28	37.4	518.837	519.416	521.309	521.311	0
2	22071905	97	Low	10.0	Vague	2	28	31	5	37.4	43.9	19.2	5	28	31	19.2	37.4	43.9	2	4.002	0.000	R	31	43.9	521.814	523.786	527.788	527.791	0
2	22071905	98	Low	10.0	Vague	2	32	31	1	40.9	43.9	5.4	32	31	1	40.9	43.9	5.4	2	4.891	0.000	D	31	43.9	528.294	529.761	534.652	534.655	0
2	22071905	99	Low	10.0	Vague	2	28	32	11	37.4	40.9	14.8	11	28	32	14.8	37.4	40.9	1	5.468	0.000	D	28	37.4	535.157	537.856	543.324	543.327	0
2	22071905	100	Low	10.0	Precise	1	32	26	21	40.9	79.1	3.9	32	26	21	40.9	79.1	3.9	2	1.667	0.000	D	26	79.1	543.830	546.697	548.364	548.366	0
2	22071905	101	Low	10.0	Vague	2	34	33	10	80.5	86.8	27.5	10	34	33	27.5	80.5	86.8	2	2.213	0.000	R	33	86.8	548.869	550.919	553.132	553.135	0
2	22071905	102	Low	10.0	Vague	2	28	26	10	37.4	79.1	27.5	26	28	10	79.1	37.4	27.5	2	2.813	0.000	L	26	79.1	553.638	554.463	557.276	557.278	0
2	22071905	103	Low	10.0	Precise	1	34	33	23	80.5	86.8	2.6	23	33	34	2.6	86.8	80.5	2	1.500	0.001	D	33	86.8	557.781	558.880	560.380	560.383	0
2	22071905	104	Low	10.0	Vague	2	32	34	5	40.9	80.5	19.2	32	5	34	40.9	19.2	80.5	NaN	NaN	NaN	NaN	NaN	NaN	560.886	562.959	NaN	572.949	1
2	22071905	105	Low	10.0	Precise	1	28	33	23	37.4	86.8	2.6	23	28	33	2.6	37.4	86.8	1	4.613	0.001	D	28	37.4	574.951	577.191	581.804	581.807	0
2	22071905	106	Low	10.0	Vague	2	28	26	5	37.4	79.1	19.2	26	5	28	79.1	19.2	37.4	2	2.549	0.001	L	26	79.1	582.311	583.271	585.820	585.823	0
2	22071905	107	Low	10.0	Vague	2	31	33	11	43.9	86.8	14.8	11	33	31	14.8	86.8	43.9	1	3.806	0.000	R	31	43.9	586.326	588.062	591.868	591.871	0
2	22071905	108	Low	10.0	Vague	2	32	31	9	40.9	43.9	38.3	32	9	31	40.9	38.3	43.9	3	2.766	0.001	D	9	38.3	592.374	593.774	596.540	596.543	0
2	22071905	109	Low	10.0	Precise	1	31	33	25	43.9	86.8	23.7	31	33	25	43.9	86.8	23.7	1	3.783	0.000	L	31	43.9	597.047	597.845	601.628	601.630	0
2	22071905	110	Low	10.0	Precise	1	31	26	25	43.9	79.1	23.7	25	26	31	23.7	79.1	43.9	2	2.629	0.000	D	26	79.1	602.134	603.656	606.284	606.287	0
2	22071905	111	Low	10.0	Precise	1	28	26	35	37.4	79.1	35.8	28	26	35	37.4	79.1	35.8	2	3.648	0.000	D	26	79.1	606.790	608.268	611.916	611.918	0
2	22071905	112	Low	10.0	Vague	2	28	34	9	37.4	80.5	38.3	28	34	9	37.4	80.5	38.3	3	3.212	0.000	R	9	38.3	612.421	614.400	617.612	617.614	0
2	22071905	113	Low	10.0	Precise	1	31	34	25	43.9	80.5	23.7	31	25	34	43.9	23.7	80.5	1	2.436	0.001	L	31	43.9	618.117	621.000	623.436	623.439	0
2	22071905	114	Low	10.0	Vague	2	32	33	11	40.9	86.8	14.8	32	11	33	40.9	14.8	86.8	3	3.184	0.001	D	11	14.8	623.941	626.044	629.228	629.231	0
2	22071905	115	Low	10.0	Vague	2	32	26	1	40.9	79.1	5.4	32	26	1	40.9	79.1	5.4	3	1.689	0.000	R	1	5.4	629.734	631.027	632.716	632.718	0
2	22071905	116	Low	10.0	Precise	1	28	33	29	37.4	86.8	31.6	29	33	28	31.6	86.8	37.4	1	4.439	0.000	R	28	37.4	633.221	634.709	639.148	639.151	0
2	22071905	117	Low	10.0	Precise	1	32	31	29	40.9	43.9	31.6	32	31	29	40.9	43.9	31.6	2	1.873	0.000	D	31	43.9	639.653	640.540	642.412	642.414	0
2	22071905	118	Low	10.0	Precise	1	28	32	20	37.4	40.9	2.0	20	28	32	2.0	37.4	40.9	1	2.245	0.000	D	28	37.4	642.918	645.783	648.028	648.030	0
2	22071905	119	Low	10.0	Vague	2	32	31	7	40.9	43.9	6.5	31	7	32	43.9	6.5	40.9	2	4.983	0.001	L	31	43.9	648.533	649.126	654.108	654.111	0
2	22071905	120	Low	10.0	Precise	1	28	34	25	37.4	80.5	23.7	28	34	25	37.4	80.5	23.7	1	2.920	0.000	L	28	37.4	654.614	655.412	658.332	658.334	0
2	22071905	121	Low	10.0	Precise	1	28	31	20	37.4	43.9	2.0	28	20	31	37.4	2.0	43.9	2	2.915	0.000	R	31	43.9	664.775	665.737	668.652	668.655	0
2	22071905	122	Low	10.0	Vague	2	28	32	5	37.4	40.9	19.2	28	32	5	37.4	40.9	19.2	1	2.020	0.000	L	28	37.4	669.157	670.505	672.524	672.527	0
2	22071905	123	Low	10.0	Precise	1	28	34	20	37.4	80.5	2.0	20	28	34	2.0	37.4	80.5	1	1.192	0.000	D	28	37.4	673.030	674.228	675.420	675.423	0
2	22071905	124	Low	10.0	Precise	1	31	33	20	43.9	86.8	2.0	31	33	20	43.9	86.8	2.0	1	1.210	0.000	L	31	43.9	675.926	676.594	677.804	677.807	0
2	22071905	125	Low	10.0	Precise	1	26	34	35	79.1	80.5	35.8	26	34	35	79.1	80.5	35.8	1	1.073	0.000	L	26	79.1	678.310	679.627	680.700	680.702	0
2	22071905	126	Low	10.0	Vague	2	34	33	11	80.5	86.8	14.8	11	33	34	14.8	86.8	80.5	2	1.997	0.001	D	33	86.8	681.205	681.727	683.724	683.727	0
2	22071905	127	Low	10.0	Precise	1	28	26	21	37.4	79.1	3.9	21	26	28	3.9	79.1	37.4	2	1.451	0.000	D	26	79.1	684.230	686.657	688.108	688.111	0
2	22071905	128	Low	10.0	Vague	2	26	33	1	79.1	86.8	5.4	33	1	26	86.8	5.4	79.1	3	1.996	0.000	D	1	5.4	688.613	691.472	693.468	693.470	0
2	22071905	129	Low	10.0	Precise	1	28	26	29	37.4	79.1	31.6	26	28	29	79.1	37.4	31.6	2	3.095	0.000	L	26	79.1	693.974	696.517	699.612	699.614	0
2	22071905	130	Low	10.0	Precise	1	26	33	25	79.1	86.8	23.7	33	26	25	86.8	79.1	23.7	1	1.111	0.000	D	26	79.1	700.117	701.397	702.508	702.511	0
2	22071905	131	Low	10.0	Precise	1	34	33	25	80.5	86.8	23.7	25	33	34	23.7	86.8	80.5	2	2.418	0.000	D	33	86.8	703.013	703.675	706.092	706.095	0
2	22071905	132	Low	10.0	Vague	2	31	26	5	43.9	79.1	19.2	26	31	5	79.1	43.9	19.2	1	1.457	0.000	D	31	43.9	706.598	708.028	709.484	709.487	0
2	22071905	133	Low	10.0	Precise	1	32	31	35	40.9	43.9	35.8	32	35	31	40.9	35.8	43.9	2	2.389	0.000	R	31	43.9	709.990	710.759	713.148	713.150	0
2	22071905	134	Low	10.0	Vague	2	34	33	5	80.5	86.8	19.2	34	33	5	80.5	86.8	19.2	2	2.104	0.000	D	33	86.8	713.653	716.052	718.156	718.159	0
2	22071905	135	Low	10.0	Precise	1	28	32	21	37.4	40.9	3.9	32	28	21	40.9	37.4	3.9	1	1.196	0.000	D	28	37.4	718.661	720.752	721.948	721.951	0
2	22071905	136	Low	10.0	Precise	1	28	33	35	37.4	86.8	35.8	33	35	28	86.8	35.8	37.4	1	5.249	0.001	R	28	37.4	722.454	723.003	728.252	728.255	0
2	22071905	137	Low	10.0	Vague	2	28	31	1	37.4	43.9	5.4	31	28	1	43.9	37.4	5.4	3	2.687	0.000	R	1	5.4	728.758	730.924	733.612	733.614	0
2	22071905	138	Low	10.0	Vague	2	31	26	10	43.9	79.1	27.5	26	10	31	79.1	27.5	43.9	2	1.086	0.000	L	26	79.1	734.118	736.766	737.852	737.854	0
2	22071905	139	Low	10.0	Vague	2	28	26	9	37.4	79.1	38.3	26	9	28	79.1	38.3	37.4	3	2.734	0.000	D	9	38.3	738.357	741.182	743.916	743.919	0
2	22071905	140	Low	10.0	Precise	1	31	34	21	43.9	80.5	3.9	34	31	21	80.5	43.9	3.9	1	1.771	0.000	D	31	43.9	744.421	745.489	747.260	747.262	0
2	22071905	141	Low	10.0	Vague	2	32	34	10	40.9	80.5	27.5	32	34	10	40.9	80.5	27.5	NaN	NaN	NaN	NaN	NaN	NaN	747.765	748.689	NaN	758.678	1
2	22071905	142	Low	10.0	Precise	1	32	26	23	40.9	79.1	2.6	26	32	23	79.1	40.9	2.6	2	3.051	0.000	L	26	79.1	760.681	761.537	764.588	764.591	0
2	22071905	143	Low	10.0	Precise	1	31	34	29	43.9	80.5	31.6	34	31	29	80.5	43.9	31.6	1	1.172	0.000	D	31	43.9	765.094	767.576	768.748	768.750	0
2	22071905	144	Low	10.0	Precise	1	31	26	20	43.9	79.1	2.0	20	26	31	2.0	79.1	43.9	2	2.806	0.001	D	26	79.1	769.253	769.910	772.716	772.719	0
2	22071905	145	Low	10.0	Vague	2	31	34	7	43.9	80.5	6.5	34	7	31	80.5	6.5	43.9	1	2.019	0.000	R	31	43.9	773.221	775.898	777.916	777.919	0
2	22071905	146	Low	10.0	Vague	2	28	33	11	37.4	86.8	14.8	11	33	28	14.8	86.8	37.4	2	1.834	0.000	D	33	86.8	778.421	780.738	782.572	782.575	0
2	22071905	147	Low	10.0	Precise	1	31	33	35	43.9	86.8	35.8	31	33	35	43.9	86.8	35.8	1	5.082	0.001	L	31	43.9	783.078	785.555	790.636	790.639	0
2	22071905	148	Low	10.0	Vague	2	28	32	9	37.4	40.9	38.3	28	32	9	37.4	40.9	38.3	1	1.857	0.001	L	28	37.4	791.141	793.099	794.956	794.959	0
2	22071905	149	Low	10.0	Vague	2	26	33	7	79.1	86.8	6.5	26	7	33	79.1	6.5	86.8	1	1.227	0.000	L	26	79.1	795.462	797.937	799.164	799.167	0
2	22071905	150	Low	10.0	Vague	2	31	33	7	43.9	86.8	6.5	7	33	31	6.5	86.8	43.9	1	2.004	0.000	R	31	43.9	799.669	801.208	803.212	803.215	0
2	22071905	151	Low	10.0	Precise	1	28	32	35	37.4	40.9	35.8	32	35	28	40.9	35.8	37.4	1	2.666	0.001	R	28	37.4	803.717	806.146	808.812	808.815	0
2	22071905	152	Low	10.0	Precise	1	32	33	25	40.9	86.8	23.7	32	33	25	40.9	86.8	23.7	2	1.233	0.000	D	33	86.8	809.318	811.787	813.020	813.023	0
2	22071905	153	Low	10.0	Precise	1	28	32	23	37.4	40.9	2.6	23	28	32	2.6	37.4	40.9	1	1.685	0.001	D	28	37.4	813.525	814.551	816.236	816.239	0
2	22071905	154	Low	10.0	Precise	1	28	34	29	37.4	80.5	31.6	28	34	29	37.4	80.5	31.6	1	2.038	0.000	L	28	37.4	816.742	817.926	819.964	819.966	0
2	22071905	155	Low	10.0	Precise	1	32	34	35	40.9	80.5	35.8	32	34	35	40.9	80.5	35.8	NaN	NaN	NaN	NaN	NaN	NaN	820.469	822.537	NaN	832.523	1
2	22071905	156	Low	10.0	Vague	2	31	26	1	43.9	79.1	5.4	31	26	1	43.9	79.1	5.4	3	1.699	0.001	R	1	5.4	834.526	835.609	837.308	837.311	0
2	22071905	157	Low	10.0	Precise	1	34	33	35	80.5	86.8	35.8	34	35	33	80.5	35.8	86.8	2	5.622	0.000	R	33	86.8	837.814	838.550	844.172	844.175	0
2	22071905	158	Low	10.0	Precise	1	31	33	23	43.9	86.8	2.6	31	33	23	43.9	86.8	2.6	1	2.102	0.000	L	31	43.9	844.677	847.173	849.276	849.279	0
2	22071905	159	Low	10.0	Precise	1	32	33	29	40.9	86.8	31.6	32	29	33	40.9	31.6	86.8	2	2.503	0.000	R	33	86.8	849.781	851.814	854.316	854.318	0
2	22071905	160	Low	10.0	Vague	2	26	34	9	79.1	80.5	38.3	9	34	26	38.3	80.5	79.1	3	1.290	0.001	L	9	38.3	854.821	856.690	857.980	857.983	0
2	22071905	161	Low	10.0	Vague	2	28	34	1	37.4	80.5	5.4	28	1	34	37.4	5.4	80.5	3	1.696	0.000	D	1	5.4	858.485	860.380	862.076	862.079	0
2	22071905	162	Low	10.0	Precise	1	28	31	35	37.4	43.9	35.8	28	35	31	37.4	35.8	43.9	2	2.254	0.000	R	31	43.9	862.581	863.838	866.092	866.094	0
2	22071905	163	Low	10.0	Precise	1	32	26	35	40.9	79.1	35.8	35	32	26	35.8	40.9	79.1	2	2.195	0.000	R	26	79.1	866.598	869.226	871.420	871.423	0
2	22071905	164	Low	10.0	Vague	2	26	34	5	79.1	80.5	19.2	5	26	34	19.2	79.1	80.5	1	1.687	0.000	D	26	79.1	871.925	874.245	875.932	875.935	0
2	22071905	165	Low	10.0	Vague	2	28	31	10	37.4	43.9	27.5	31	28	10	43.9	37.4	27.5	2	2.019	0.000	L	31	43.9	876.437	878.233	880.252	880.255	0
2	22071905	166	Low	10.0	Vague	2	28	33	10	37.4	86.8	27.5	33	10	28	86.8	27.5	37.4	1	4.088	0.000	R	28	37.4	880.758	882.372	886.460	886.462	0
2	22071905	167	Low	10.0	Precise	1	26	33	29	79.1	86.8	31.6	26	29	33	79.1	31.6	86.8	1	3.034	0.000	L	26	79.1	886.965	889.858	892.892	892.895	0
2	22071905	168	Low	10.0	Vague	2	32	31	10	40.9	43.9	27.5	10	32	31	27.5	40.9	43.9	2	1.789	0.000	R	31	43.9	893.398	896.239	898.028	898.031	0
2	22071905	169	Low	10.0	Vague	2	28	31	11	37.4	43.9	14.8	31	11	28	43.9	14.8	37.4	2	1.810	0.000	L	31	43.9	898.533	901.066	902.876	902.879	0
2	22071905	170	Low	10.0	Precise	1	32	34	20	40.9	80.5	2.0	20	32	34	2.0	40.9	80.5	3	5.292	0.000	L	20	2.0	903.381	905.280	910.572	910.574	0
2	22071905	171	Low	10.0	Vague	2	28	34	5	37.4	80.5	19.2	28	34	5	37.4	80.5	19.2	1	2.048	0.000	L	28	37.4	911.077	912.668	914.716	914.719	0
2	22071905	172	Low	10.0	Vague	2	31	33	5	43.9	86.8	19.2	31	33	5	43.9	86.8	19.2	1	1.229	0.000	L	31	43.9	915.221	916.223	917.452	917.454	0
2	22071905	173	Low	10.0	Precise	1	26	34	20	79.1	80.5	2.0	26	20	34	79.1	2.0	80.5	1	1.273	0.000	L	26	79.1	917.958	918.451	919.724	919.727	0
2	22071905	174	Low	10.0	Vague	2	31	34	1	43.9	80.5	5.4	1	34	31	5.4	80.5	43.9	1	3.266	0.000	R	31	43.9	920.230	923.083	926.348	926.351	0
2	22071905	175	Low	10.0	Vague	2	28	31	7	37.4	43.9	6.5	28	31	7	37.4	43.9	6.5	1	4.424	0.000	L	28	37.4	926.854	927.428	931.852	931.854	0
2	22071905	176	Low	10.0	Precise	1	32	33	35	40.9	86.8	35.8	35	33	32	35.8	86.8	40.9	2	2.874	0.000	D	33	86.8	932.357	933.426	936.300	936.303	0
2	22071905	177	Low	10.0	Precise	1	32	31	21	40.9	43.9	3.9	31	21	32	43.9	3.9	40.9	2	1.631	0.000	L	31	43.9	936.806	938.109	939.740	939.743	0
2	22071905	178	Low	10.0	Vague	2	32	34	9	40.9	80.5	38.3	32	9	34	40.9	38.3	80.5	3	1.220	0.000	D	9	38.3	940.245	943.097	944.316	944.319	0
2	22071905	179	Low	10.0	Vague	2	31	33	1	43.9	86.8	5.4	1	31	33	5.4	43.9	86.8	1	1.524	0.000	D	31	43.9	944.821	947.096	948.620	948.622	0
2	22071905	180	Low	10.0	Precise	1	32	33	20	40.9	86.8	2.0	20	32	33	2.0	40.9	86.8	3	3.000	0.000	L	20	2.0	949.125	951.588	954.588	954.591	0
2	22071905	181	High	1.5	Precise	1	28	34	24	37.4	80.5	2.4	28	24	34	37.4	2.4	80.5	1	1.154	0.000	L	28	37.4	968.280	969.947	971.100	971.103	0
2	22071905	182	High	1.5	Vague	2	28	32	4	37.4	40.9	16.7	28	4	32	37.4	16.7	40.9	1	1.378	0.000	L	28	37.4	971.605	972.698	974.076	974.079	0
2	22071905	183	High	1.5	Vague	2	28	32	13	37.4	40.9	24.5	28	13	32	37.4	24.5	40.9	NaN	NaN	NaN	NaN	NaN	NaN	974.582	975.877	NaN	977.366	1
2	22071905	184	High	1.5	Precise	1	31	26	22	43.9	79.1	22.9	26	22	31	79.1	22.9	43.9	2	0.820	0.000	L	26	79.1	979.369	980.040	980.860	980.863	0
2	22071905	185	High	1.5	Vague	2	31	33	6	43.9	86.8	6.1	31	6	33	43.9	6.1	86.8	NaN	NaN	NaN	NaN	NaN	NaN	981.366	983.017	NaN	984.504	1
2	22071905	186	High	1.5	Vague	2	26	34	6	79.1	80.5	6.1	26	34	6	79.1	80.5	6.1	1	0.947	0.000	L	26	79.1	986.506	989.449	990.396	990.399	0
2	22071905	187	High	1.5	Precise	1	32	31	36	40.9	43.9	36.0	31	36	32	43.9	36.0	40.9	2	0.874	0.000	L	31	43.9	990.902	992.163	993.036	993.038	0
2	22071905	188	High	1.5	Precise	1	31	26	24	43.9	79.1	2.4	31	26	24	43.9	79.1	2.4	1	0.854	0.001	L	31	43.9	993.542	995.222	996.076	996.080	0
2	22071905	189	High	1.5	Vague	2	26	34	13	79.1	80.5	24.5	13	34	26	24.5	80.5	79.1	1	0.970	0.000	R	26	79.1	996.583	998.578	999.548	999.550	0
2	22071905	190	High	1.5	Precise	1	28	32	30	37.4	40.9	34.5	30	32	28	34.5	40.9	37.4	NaN	NaN	NaN	NaN	NaN	NaN	1000.053	1002.425	NaN	1003.911	1
2	22071905	191	High	1.5	Precise	1	32	34	24	40.9	80.5	2.4	24	34	32	2.4	80.5	40.9	NaN	NaN	NaN	NaN	NaN	NaN	1005.914	1008.704	NaN	1010.191	1
2	22071905	192	High	1.5	Precise	1	31	26	19	43.9	79.1	3.9	31	19	26	43.9	3.9	79.1	2	1.204	0.000	R	26	79.1	1012.193	1012.936	1014.140	1014.143	0
2	22071905	193	High	1.5	Vague	2	31	26	2	43.9	79.1	3.4	2	31	26	3.4	43.9	79.1	2	1.360	0.001	R	26	79.1	1014.646	1016.477	1017.836	1017.839	0
2	22071905	194	High	1.5	Precise	1	31	34	36	43.9	80.5	36.0	36	31	34	36.0	43.9	80.5	1	1.198	0.001	D	31	43.9	1018.342	1021.326	1022.524	1022.527	0
2	22071905	195	High	1.5	Vague	2	28	31	6	37.4	43.9	6.1	31	28	6	43.9	37.4	6.1	2	1.066	0.001	L	31	43.9	1023.029	1024.611	1025.676	1025.679	0
2	22071905	196	High	1.5	Precise	1	32	31	22	40.9	43.9	22.9	22	32	31	22.9	40.9	43.9	2	1.231	0.000	R	31	43.9	1026.181	1027.246	1028.476	1028.479	0
2	22071905	197	High	1.5	Precise	1	34	33	19	80.5	86.8	3.9	19	33	34	3.9	86.8	80.5	2	1.109	0.000	D	33	86.8	1028.981	1030.343	1031.452	1031.455	0
2	22071905	198	High	1.5	Precise	1	31	33	27	43.9	86.8	30.6	27	33	31	30.6	86.8	43.9	2	1.217	0.000	D	33	86.8	1031.958	1033.659	1034.876	1034.879	0
2	22071905	199	High	1.5	Precise	1	32	31	24	40.9	43.9	2.4	32	31	24	40.9	43.9	2.4	3	1.019	0.000	R	24	2.4	1035.381	1036.433	1037.452	1037.454	0
2	22071905	200	High	1.5	Precise	1	31	26	27	43.9	79.1	30.6	31	27	26	43.9	30.6	79.1	2	0.912	0.000	R	26	79.1	1037.958	1039.500	1040.412	1040.414	0
2	22071905	201	High	1.5	Precise	1	32	33	22	40.9	86.8	22.9	33	22	32	86.8	22.9	40.9	2	1.176	0.000	L	33	86.8	1040.917	1042.660	1043.836	1043.838	0
2	22071905	202	High	1.5	Precise	1	28	26	22	37.4	79.1	22.9	28	22	26	37.4	22.9	79.1	2	0.910	0.000	R	26	79.1	1044.341	1047.054	1047.964	1047.966	0
2	22071905	203	High	1.5	Precise	1	28	34	30	37.4	80.5	34.5	34	28	30	80.5	37.4	34.5	NaN	NaN	NaN	NaN	NaN	NaN	1048.470	1050.491	NaN	1051.977	1
2	22071905	204	High	1.5	Precise	1	32	33	27	40.9	86.8	30.6	33	32	27	86.8	40.9	30.6	2	1.118	0.000	L	33	86.8	1053.980	1056.941	1058.060	1058.062	0
2	22071905	205	High	1.5	Vague	2	31	33	2	43.9	86.8	3.4	33	2	31	86.8	3.4	43.9	1	0.795	0.000	R	31	43.9	1058.566	1060.305	1061.100	1061.102	0
2	22071905	206	High	1.5	Precise	1	28	26	24	37.4	79.1	2.4	24	28	26	2.4	37.4	79.1	3	0.808	0.000	L	24	2.4	1061.605	1064.020	1064.828	1064.831	0
2	22071905	207	High	1.5	Precise	1	28	33	24	37.4	86.8	2.4	24	33	28	2.4	86.8	37.4	3	0.907	0.000	L	24	2.4	1065.334	1068.209	1069.116	1069.119	0
2	22071905	208	High	1.5	Vague	2	28	34	13	37.4	80.5	24.5	28	13	34	37.4	24.5	80.5	1	0.863	0.001	L	28	37.4	1069.622	1071.789	1072.652	1072.655	0
2	22071905	209	High	1.5	Vague	2	31	33	8	43.9	86.8	33.6	8	33	31	33.6	86.8	43.9	1	0.905	0.000	R	31	43.9	1073.157	1073.907	1074.812	1074.815	0
2	22071905	210	High	1.5	Precise	1	26	34	36	79.1	80.5	36.0	26	36	34	79.1	36.0	80.5	1	1.033	0.000	L	26	79.1	1075.318	1076.323	1077.356	1077.358	0
2	22071905	211	High	1.5	Vague	2	32	31	2	40.9	43.9	3.4	32	2	31	40.9	3.4	43.9	2	0.706	0.000	R	31	43.9	1077.861	1078.362	1079.068	1079.071	0
2	22071905	212	High	1.5	Precise	1	31	33	30	43.9	86.8	34.5	31	33	30	43.9	86.8	34.5	1	0.753	0.000	L	31	43.9	1079.573	1080.203	1080.956	1080.958	0
2	22071905	213	High	1.5	Vague	2	32	26	3	40.9	79.1	7.5	3	32	26	7.5	40.9	79.1	NaN	NaN	NaN	NaN	NaN	NaN	1081.461	1083.024	NaN	1084.510	1
2	22071905	214	High	1.5	Precise	1	34	33	27	80.5	86.8	30.6	27	33	34	30.6	86.8	80.5	2	0.932	0.000	D	33	86.8	1086.514	1087.672	1088.604	1088.606	0
2	22071905	215	High	1.5	Vague	2	31	33	13	43.9	86.8	24.5	31	33	13	43.9	86.8	24.5	1	0.751	0.000	L	31	43.9	1089.109	1090.846	1091.596	1091.599	0
2	22071905	216	High	1.5	Vague	2	32	33	2	40.9	86.8	3.4	2	33	32	3.4	86.8	40.9	2	1.213	0.000	D	33	86.8	1092.101	1094.127	1095.340	1095.343	0
2	22071905	217	High	1.5	Vague	2	32	31	8	40.9	43.9	33.6	31	8	32	43.9	33.6	40.9	2	0.720	0.000	L	31	43.9	1095.846	1097.676	1098.396	1098.398	0
2	22071905	218	High	1.5	Precise	1	26	33	24	79.1	86.8	2.4	24	33	26	2.4	86.8	79.1	1	0.728	0.000	R	26	79.1	1098.901	1101.044	1101.772	1101.774	0
2	22071905	219	High	1.5	Precise	1	28	34	19	37.4	80.5	3.9	28	34	19	37.4	80.5	3.9	1	0.762	0.000	L	28	37.4	1102.278	1104.226	1104.988	1104.991	0
2	22071905	220	High	1.5	Precise	1	32	31	30	40.9	43.9	34.5	32	30	31	40.9	34.5	43.9	2	0.836	0.000	R	31	43.9	1105.493	1107.592	1108.428	1108.431	0
2	22071905	221	High	1.5	Precise	1	31	34	24	43.9	80.5	2.4	24	31	34	2.4	43.9	80.5	3	0.752	0.001	L	24	2.4	1108.934	1111.676	1112.428	1112.431	0
2	22071905	222	High	1.5	Vague	2	28	32	8	37.4	40.9	33.6	32	28	8	40.9	37.4	33.6	1	1.173	0.000	D	28	37.4	1112.934	1115.608	1116.780	1116.783	0
2	22071905	223	High	1.5	Vague	2	28	31	3	37.4	43.9	7.5	31	28	3	43.9	37.4	7.5	2	0.819	0.000	L	31	43.9	1117.285	1119.866	1120.684	1120.687	0
2	22071905	224	High	1.5	Precise	1	34	33	22	80.5	86.8	22.9	34	33	22	80.5	86.8	22.9	2	1.169	0.000	D	33	86.8	1121.190	1122.955	1124.124	1124.127	0
2	22071905	225	High	1.5	Vague	2	26	33	4	79.1	86.8	16.7	4	26	33	16.7	79.1	86.8	3	1.125	0.001	L	4	16.7	1124.629	1126.935	1128.060	1128.063	0
2	22071905	226	High	1.5	Vague	2	28	33	4	37.4	86.8	16.7	4	28	33	16.7	37.4	86.8	3	0.705	0.000	L	4	16.7	1128.566	1129.979	1130.684	1130.687	0
2	22071905	227	High	1.5	Precise	1	28	32	22	37.4	40.9	22.9	32	22	28	40.9	22.9	37.4	1	1.058	0.000	R	28	37.4	1131.190	1132.106	1133.164	1133.167	0
2	22071905	228	High	1.5	Precise	1	26	33	22	79.1	86.8	22.9	22	26	33	22.9	79.1	86.8	2	0.936	0.000	R	33	86.8	1133.669	1135.781	1136.716	1136.719	0
2	22071905	229	High	1.5	Precise	1	32	26	24	40.9	79.1	2.4	32	24	26	40.9	2.4	79.1	2	0.832	0.000	R	26	79.1	1137.221	1139.052	1139.884	1139.887	0
2	22071905	230	High	1.5	Vague	2	28	34	2	37.4	80.5	3.4	34	2	28	80.5	3.4	37.4	1	1.154	0.000	R	28	37.4	1140.390	1142.474	1143.628	1143.631	0
2	22071905	231	High	1.5	Vague	2	28	31	2	37.4	43.9	3.4	28	31	2	37.4	43.9	3.4	2	1.181	0.001	D	31	43.9	1144.133	1146.832	1148.012	1148.015	0
2	22071905	232	High	1.5	Precise	1	28	33	27	37.4	86.8	30.6	33	28	27	86.8	37.4	30.6	1	1.136	0.001	D	28	37.4	1148.518	1149.709	1150.844	1150.847	0
2	22071905	233	High	1.5	Vague	2	32	26	4	40.9	79.1	16.7	26	4	32	79.1	16.7	40.9	2	0.775	0.000	L	26	79.1	1151.350	1153.861	1154.636	1154.639	0
2	22071905	234	High	1.5	Precise	1	26	33	30	79.1	86.8	34.5	26	33	30	79.1	86.8	34.5	1	0.726	0.000	L	26	79.1	1155.142	1157.174	1157.900	1157.902	0
2	22071905	235	High	1.5	Vague	2	31	34	6	43.9	80.5	6.1	31	34	6	43.9	80.5	6.1	1	1.092	0.000	L	31	43.9	1158.406	1158.985	1160.076	1160.079	0
2	22071905	236	High	1.5	Precise	1	31	26	36	43.9	79.1	36.0	26	36	31	79.1	36.0	43.9	1	0.874	0.000	R	31	43.9	1160.581	1163.442	1164.316	1164.318	0
2	22071905	237	High	1.5	Precise	1	32	33	24	40.9	86.8	2.4	32	24	33	40.9	2.4	86.8	2	1.038	0.000	R	33	86.8	1164.821	1166.846	1167.884	1167.887	0
2	22071905	238	High	1.5	Vague	2	31	33	3	43.9	86.8	7.5	33	3	31	86.8	7.5	43.9	1	0.909	0.000	R	31	43.9	1168.389	1170.015	1170.924	1170.927	0
2	22071905	239	High	1.5	Precise	1	32	34	19	40.9	80.5	3.9	32	34	19	40.9	80.5	3.9	NaN	NaN	NaN	NaN	NaN	NaN	1171.429	1172.235	NaN	1173.721	1
2	22071905	240	High	1.5	Vague	2	28	32	2	37.4	40.9	3.4	32	2	28	40.9	3.4	37.4	1	0.832	0.000	R	28	37.4	1175.724	1176.397	1177.228	1177.231	0
2	22071905	241	High	1.5	Precise	1	28	31	22	37.4	43.9	22.9	28	31	22	37.4	43.9	22.9	2	1.188	0.000	D	31	43.9	1182.171	1183.368	1184.556	1184.558	0
2	22071905	242	High	1.5	Vague	2	31	34	13	43.9	80.5	24.5	34	13	31	80.5	24.5	43.9	1	1.056	0.000	R	31	43.9	1185.061	1186.413	1187.468	1187.471	0
2	22071905	243	High	1.5	Vague	2	28	26	3	37.4	79.1	7.5	26	28	3	79.1	37.4	7.5	2	0.856	0.000	L	26	79.1	1187.973	1188.532	1189.388	1189.391	0
2	22071905	244	High	1.5	Precise	1	28	32	27	37.4	40.9	30.6	32	28	27	40.9	37.4	30.6	1	1.094	0.000	D	28	37.4	1189.894	1192.614	1193.708	1193.711	0
2	22071905	245	High	1.5	Precise	1	28	34	36	37.4	80.5	36.0	36	28	34	36.0	37.4	80.5	1	0.872	0.000	D	28	37.4	1194.214	1195.268	1196.140	1196.143	0
2	22071905	246	High	1.5	Precise	1	28	26	27	37.4	79.1	30.6	26	27	28	79.1	30.6	37.4	1	0.692	0.000	R	28	37.4	1196.646	1197.896	1198.588	1198.590	0
2	22071905	247	High	1.5	Vague	2	34	33	2	80.5	86.8	3.4	2	33	34	3.4	86.8	80.5	2	1.119	0.000	D	33	86.8	1199.093	1200.157	1201.276	1201.279	0
2	22071905	248	High	1.5	Vague	2	28	34	6	37.4	80.5	6.1	34	6	28	80.5	6.1	37.4	1	0.708	0.000	R	28	37.4	1201.782	1202.504	1203.212	1203.215	0
2	22071905	249	High	1.5	Precise	1	31	34	30	43.9	80.5	34.5	31	34	30	43.9	80.5	34.5	1	0.769	0.001	L	31	43.9	1203.717	1204.299	1205.068	1205.071	0
2	22071905	250	High	1.5	Vague	2	32	33	3	40.9	86.8	7.5	33	32	3	86.8	40.9	7.5	2	1.019	0.001	L	33	86.8	1205.574	1206.721	1207.740	1207.743	0
2	22071905	251	High	1.5	Vague	2	31	34	4	43.9	80.5	16.7	34	31	4	80.5	43.9	16.7	1	1.159	0.000	D	31	43.9	1208.246	1209.909	1211.068	1211.071	0
2	22071905	252	High	1.5	Vague	2	32	26	6	40.9	79.1	6.1	6	26	32	6.1	79.1	40.9	3	0.932	0.000	L	6	6.1	1211.573	1212.488	1213.420	1213.422	0
2	22071905	253	High	1.5	Precise	1	32	33	30	40.9	86.8	34.5	33	30	32	86.8	34.5	40.9	2	0.811	0.001	L	33	86.8	1213.925	1214.737	1215.548	1215.551	0
2	22071905	254	High	1.5	Precise	1	28	33	19	37.4	86.8	3.9	28	33	19	37.4	86.8	3.9	1	0.907	0.000	L	28	37.4	1216.054	1217.121	1218.028	1218.031	0
2	22071905	255	High	1.5	Vague	2	26	33	8	79.1	86.8	33.6	26	33	8	79.1	86.8	33.6	2	0.782	0.000	D	33	86.8	1218.533	1220.334	1221.116	1221.119	0
2	22071905	256	High	1.5	Precise	1	28	33	30	37.4	86.8	34.5	30	28	33	34.5	37.4	86.8	2	1.111	0.000	R	33	86.8	1221.621	1222.645	1223.756	1223.759	0
2	22071905	257	High	1.5	Vague	2	32	31	4	40.9	43.9	16.7	32	4	31	40.9	16.7	43.9	3	1.018	0.000	D	4	16.7	1224.261	1225.890	1226.908	1226.911	0
2	22071905	258	High	1.5	Precise	1	32	31	19	40.9	43.9	3.9	32	19	31	40.9	3.9	43.9	2	0.771	0.000	R	31	43.9	1227.413	1228.649	1229.420	1229.423	0
2	22071905	259	High	1.5	Vague	2	28	34	3	37.4	80.5	7.5	34	3	28	80.5	7.5	37.4	1	0.856	0.001	R	28	37.4	1229.925	1231.972	1232.828	1232.831	0
2	22071905	260	High	1.5	Precise	1	32	34	36	40.9	80.5	36.0	34	32	36	80.5	40.9	36.0	NaN	NaN	NaN	NaN	NaN	NaN	1233.334	1234.151	NaN	1235.640	1
2	22071905	261	High	1.5	Precise	1	28	31	19	37.4	43.9	3.9	19	31	28	3.9	43.9	37.4	1	0.816	0.000	R	28	37.4	1237.642	1238.333	1239.148	1239.151	0
2	22071905	262	High	1.5	Precise	1	31	33	36	43.9	86.8	36.0	33	31	36	86.8	43.9	36.0	1	1.259	0.000	D	31	43.9	1239.653	1240.897	1242.156	1242.159	0
2	22071905	263	High	1.5	Precise	1	26	34	19	79.1	80.5	3.9	26	19	34	79.1	3.9	80.5	1	0.908	0.001	L	26	79.1	1242.662	1245.409	1246.316	1246.319	0
2	22071905	264	High	1.5	Vague	2	28	26	8	37.4	79.1	33.6	26	28	8	79.1	37.4	33.6	2	0.596	0.001	L	26	79.1	1246.822	1248.521	1249.116	1249.119	0
2	22071905	265	High	1.5	Vague	2	31	26	13	43.9	79.1	24.5	13	26	31	24.5	79.1	43.9	NaN	NaN	NaN	NaN	NaN	NaN	1249.622	1252.011	NaN	1253.498	1
2	22071905	266	High	1.5	Precise	1	28	33	36	37.4	86.8	36.0	33	28	36	86.8	37.4	36.0	2	1.217	0.001	L	33	86.8	1255.500	1256.459	1257.676	1257.679	0
2	22071905	267	High	1.5	Vague	2	28	32	3	37.4	40.9	7.5	32	28	3	40.9	37.4	7.5	1	1.089	0.001	D	28	37.4	1258.182	1259.484	1260.572	1260.575	0
2	22071905	268	High	1.5	Precise	1	31	34	27	43.9	80.5	30.6	34	31	27	80.5	43.9	30.6	1	1.032	0.000	D	31	43.9	1261.078	1263.284	1264.316	1264.319	0
2	22071905	269	High	1.5	Precise	1	31	34	22	43.9	80.5	22.9	22	34	31	22.9	80.5	43.9	1	1.216	0.001	R	31	43.9	1264.822	1265.373	1266.588	1266.591	0
2	22071905	270	High	1.5	Vague	2	28	26	2	37.4	79.1	3.4	2	28	26	3.4	37.4	79.1	1	1.134	0.000	D	28	37.4	1267.093	1268.735	1269.868	1269.870	0
2	22071905	271	High	1.5	Vague	2	28	34	8	37.4	80.5	33.6	34	8	28	80.5	33.6	37.4	NaN	NaN	NaN	NaN	NaN	NaN	1270.373	1273.179	NaN	1274.665	1
2	22071905	272	High	1.5	Precise	1	31	33	22	43.9	86.8	22.9	22	33	31	22.9	86.8	43.9	1	1.068	0.001	R	31	43.9	1276.668	1278.912	1279.980	1279.983	0
2	22071905	273	High	1.5	Vague	2	32	33	13	40.9	86.8	24.5	32	33	13	40.9	86.8	24.5	2	0.982	0.000	D	33	86.8	1280.485	1283.078	1284.060	1284.062	0
2	22071905	274	High	1.5	Precise	1	32	31	27	40.9	43.9	30.6	31	27	32	43.9	30.6	40.9	2	1.232	0.000	L	31	43.9	1284.565	1285.468	1286.700	1286.703	0
2	22071905	275	High	1.5	Vague	2	31	26	4	43.9	79.1	16.7	4	31	26	16.7	43.9	79.1	3	1.000	0.000	L	4	16.7	1287.206	1290.053	1291.052	1291.055	0
2	22071905	276	High	1.5	Precise	1	28	26	19	37.4	79.1	3.9	19	28	26	3.9	37.4	79.1	2	0.715	0.000	R	26	79.1	1291.557	1292.721	1293.436	1293.439	0
2	22071905	277	High	1.5	Vague	2	32	31	3	40.9	43.9	7.5	3	31	32	7.5	43.9	40.9	2	1.166	0.001	D	31	43.9	1293.942	1295.070	1296.236	1296.239	0
2	22071905	278	High	1.5	Vague	2	31	33	4	43.9	86.8	16.7	33	4	31	86.8	16.7	43.9	3	1.028	0.000	D	4	16.7	1296.741	1298.616	1299.644	1299.647	0
2	22071905	279	High	1.5	Vague	2	32	34	8	40.9	80.5	33.6	8	34	32	33.6	80.5	40.9	NaN	NaN	NaN	NaN	NaN	NaN	1300.149	1301.124	NaN	1302.610	1
2	22071905	280	High	1.5	Precise	1	26	34	27	79.1	80.5	30.6	27	34	26	30.6	80.5	79.1	1	1.249	0.000	R	26	79.1	1304.613	1307.290	1308.540	1308.543	0
2	22071905	281	High	1.5	Vague	2	32	26	2	40.9	79.1	3.4	2	26	32	3.4	79.1	40.9	2	1.053	0.001	D	26	79.1	1309.046	1311.167	1312.220	1312.223	0
2	22071905	282	High	1.5	Precise	1	32	33	19	40.9	86.8	3.9	19	32	33	3.9	40.9	86.8	2	1.167	0.000	R	33	86.8	1312.726	1315.133	1316.300	1316.303	0
2	22071905	283	High	1.5	Vague	2	31	26	8	43.9	79.1	33.6	31	8	26	43.9	33.6	79.1	2	0.875	0.000	R	26	79.1	1316.806	1319.697	1320.572	1320.575	0
2	22071905	284	High	1.5	Vague	2	31	26	3	43.9	79.1	7.5	26	3	31	79.1	7.5	43.9	2	0.932	0.000	L	26	79.1	1321.077	1323.416	1324.348	1324.351	0
2	22071905	285	High	1.5	Vague	2	32	33	6	40.9	86.8	6.1	6	33	32	6.1	86.8	40.9	3	1.217	0.000	L	6	6.1	1324.853	1326.347	1327.564	1327.566	0
2	22071905	286	High	1.5	Precise	1	28	34	22	37.4	80.5	22.9	34	28	22	80.5	37.4	22.9	1	1.274	0.000	D	28	37.4	1328.069	1329.218	1330.492	1330.495	0
2	22071905	287	High	1.5	Vague	2	26	33	3	79.1	86.8	7.5	33	26	3	86.8	79.1	7.5	2	0.995	0.000	L	33	86.8	1330.997	1332.457	1333.452	1333.454	0
2	22071905	288	High	1.5	Precise	1	26	34	24	79.1	80.5	2.4	34	24	26	80.5	2.4	79.1	1	0.829	0.001	R	26	79.1	1333.957	1335.103	1335.932	1335.935	0
2	22071905	289	High	1.5	Precise	1	26	34	22	79.1	80.5	22.9	26	22	34	79.1	22.9	80.5	1	0.924	0.000	L	26	79.1	1336.438	1337.008	1337.932	1337.935	0
2	22071905	290	High	1.5	Precise	1	34	33	30	80.5	86.8	34.5	30	33	34	34.5	86.8	80.5	2	1.129	0.000	D	33	86.8	1338.437	1339.523	1340.652	1340.655	0
2	22071905	291	High	1.5	Vague	2	32	31	13	40.9	43.9	24.5	32	31	13	40.9	43.9	24.5	2	1.089	0.001	D	31	43.9	1341.158	1343.772	1344.860	1344.863	0
2	22071905	292	High	1.5	Precise	1	26	33	27	79.1	86.8	30.6	27	26	33	30.6	79.1	86.8	1	0.971	0.000	D	26	79.1	1345.366	1347.681	1348.652	1348.655	0
2	22071905	293	High	1.5	Vague	2	28	33	8	37.4	86.8	33.6	33	8	28	86.8	33.6	37.4	NaN	NaN	NaN	NaN	NaN	NaN	1349.158	1351.400	NaN	1352.887	1
2	22071905	294	High	1.5	Vague	2	32	34	13	40.9	80.5	24.5	13	32	34	24.5	40.9	80.5	NaN	NaN	NaN	NaN	NaN	NaN	1354.890	1356.239	NaN	1357.725	1
2	22071905	295	High	1.5	Precise	1	28	31	27	37.4	43.9	30.6	27	31	28	30.6	43.9	37.4	1	0.822	0.000	R	28	37.4	1359.728	1361.478	1362.300	1362.303	0
2	22071905	296	High	1.5	Vague	2	32	26	13	40.9	79.1	24.5	13	26	32	24.5	79.1	40.9	NaN	NaN	NaN	NaN	NaN	NaN	1362.806	1365.417	NaN	1366.904	1
2	22071905	297	High	1.5	Vague	2	34	33	6	80.5	86.8	6.1	33	6	34	86.8	6.1	80.5	NaN	NaN	NaN	NaN	NaN	NaN	1368.906	1369.855	NaN	1371.341	1
2	22071905	298	High	1.5	Precise	1	28	31	30	37.4	43.9	34.5	28	30	31	37.4	34.5	43.9	2	0.782	0.000	R	31	43.9	1373.344	1375.646	1376.428	1376.431	0
2	22071905	299	High	1.5	Precise	1	28	26	30	37.4	79.1	34.5	26	30	28	79.1	34.5	37.4	1	0.857	0.000	R	28	37.4	1376.934	1379.108	1379.964	1379.967	0
2	22071905	300	High	1.5	Precise	1	26	33	19	79.1	86.8	3.9	33	19	26	86.8	3.9	79.1	1	0.858	0.000	R	26	79.1	1380.470	1383.090	1383.948	1383.951	0
2	22071905	301	High	1.5	Precise	1	32	33	36	40.9	86.8	36.0	33	32	36	86.8	40.9	36.0	NaN	NaN	NaN	NaN	NaN	NaN	1390.046	1392.016	NaN	1393.504	1
2	22071905	302	High	1.5	Precise	1	32	26	36	40.9	79.1	36.0	26	32	36	79.1	40.9	36.0	2	1.345	0.001	L	26	79.1	1395.507	1398.348	1399.692	1399.695	0
2	22071905	303	High	1.5	Vague	2	26	34	8	79.1	80.5	33.6	26	8	34	79.1	33.6	80.5	1	0.636	0.000	L	26	79.1	1400.198	1401.776	1402.412	1402.415	0
2	22071905	304	High	1.5	Vague	2	28	26	6	37.4	79.1	6.1	26	6	28	79.1	6.1	37.4	2	0.720	0.000	L	26	79.1	1402.917	1404.028	1404.748	1404.751	0
2	22071905	305	High	1.5	Vague	2	31	34	2	43.9	80.5	3.4	34	31	2	80.5	43.9	3.4	1	1.368	0.000	D	31	43.9	1405.254	1407.861	1409.228	1409.231	0
2	22071905	306	High	1.5	Precise	1	31	33	24	43.9	86.8	2.4	33	31	24	86.8	43.9	2.4	1	1.207	0.000	D	31	43.9	1409.734	1410.693	1411.900	1411.903	0
2	22071905	307	High	1.5	Vague	2	28	32	6	37.4	40.9	6.1	32	28	6	40.9	37.4	6.1	1	1.184	0.000	D	28	37.4	1412.406	1414.044	1415.228	1415.231	0
2	22071905	308	High	1.5	Vague	2	26	33	2	79.1	86.8	3.4	2	26	33	3.4	79.1	86.8	1	1.108	0.000	D	26	79.1	1415.733	1417.640	1418.748	1418.751	0
2	22071905	309	High	1.5	Precise	1	26	34	30	79.1	80.5	34.5	30	26	34	34.5	79.1	80.5	1	0.772	0.001	D	26	79.1	1419.254	1420.745	1421.516	1421.519	0
2	22071905	310	High	1.5	Vague	2	32	34	3	40.9	80.5	7.5	3	32	34	7.5	40.9	80.5	NaN	NaN	NaN	NaN	NaN	NaN	1422.021	1423.957	NaN	1425.444	1
2	22071905	311	High	1.5	Vague	2	28	31	4	37.4	43.9	16.7	31	4	28	43.9	16.7	37.4	3	1.083	0.000	D	4	16.7	1427.446	1430.001	1431.084	1431.087	0
2	22071905	312	High	1.5	Precise	1	32	34	27	40.9	80.5	30.6	27	32	34	30.6	40.9	80.5	NaN	NaN	NaN	NaN	NaN	NaN	1431.589	1432.236	NaN	1433.722	1
2	22071905	313	High	1.5	Precise	1	32	34	22	40.9	80.5	22.9	34	22	32	80.5	22.9	40.9	NaN	NaN	NaN	NaN	NaN	NaN	1435.724	1436.914	NaN	1438.401	1
2	22071905	314	High	1.5	Precise	1	28	32	24	37.4	40.9	2.4	28	32	24	37.4	40.9	2.4	1	1.253	0.000	L	28	37.4	1440.404	1441.255	1442.508	1442.511	0
2	22071905	315	High	1.5	Precise	1	31	33	19	43.9	86.8	3.9	33	31	19	86.8	43.9	3.9	1	1.194	0.000	D	31	43.9	1443.013	1444.994	1446.188	1446.191	0
2	22071905	316	High	1.5	Precise	1	32	26	22	40.9	79.1	22.9	22	32	26	22.9	40.9	79.1	2	0.832	0.001	R	26	79.1	1446.693	1447.661	1448.492	1448.495	0
2	22071905	317	High	1.5	Vague	2	31	34	8	43.9	80.5	33.6	8	31	34	33.6	43.9	80.5	1	1.069	0.001	D	31	43.9	1448.997	1451.135	1452.205	1452.207	0
2	22071905	318	High	1.5	Vague	2	34	33	13	80.5	86.8	24.5	13	34	33	24.5	80.5	86.8	2	1.157	0.000	R	33	86.8	1452.710	1454.647	1455.804	1455.807	0
2	22071905	319	High	1.5	Precise	1	32	26	19	40.9	79.1	3.9	26	19	32	79.1	3.9	40.9	2	0.986	0.000	L	26	79.1	1456.309	1458.354	1459.340	1459.342	0
2	22071905	320	High	1.5	Vague	2	34	33	4	80.5	86.8	16.7	34	33	4	80.5	86.8	16.7	3	1.478	0.000	R	4	16.7	1459.846	1460.550	1462.028	1462.030	0
2	22071905	321	High	1.5	Vague	2	28	26	13	37.4	79.1	24.5	28	26	13	37.4	79.1	24.5	2	1.162	0.000	D	26	79.1	1462.534	1464.819	1465.980	1465.983	0
2	22071905	322	High	1.5	Precise	1	32	34	30	40.9	80.5	34.5	32	30	34	40.9	34.5	80.5	NaN	NaN	NaN	NaN	NaN	NaN	1466.486	1467.000	NaN	1468.486	1
2	22071905	323	High	1.5	Precise	1	34	33	24	80.5	86.8	2.4	33	24	34	86.8	2.4	80.5	3	0.991	0.001	D	24	2.4	1470.489	1471.725	1472.716	1472.720	0
2	22071905	324	High	1.5	Vague	2	32	26	8	40.9	79.1	33.6	32	8	26	40.9	33.6	79.1	2	0.865	0.000	R	26	79.1	1473.223	1475.212	1476.076	1476.079	0
2	22071905	325	High	1.5	Vague	2	32	34	6	40.9	80.5	6.1	32	6	34	40.9	6.1	80.5	1	1.127	0.000	L	32	40.9	1476.582	1478.869	1479.996	1479.999	0
2	22071905	326	High	1.5	Vague	2	28	33	3	37.4	86.8	7.5	33	28	3	86.8	37.4	7.5	1	1.199	0.000	D	28	37.4	1480.501	1482.750	1483.948	1483.951	0
2	22071905	327	High	1.5	Vague	2	31	26	6	43.9	79.1	6.1	6	26	31	6.1	79.1	43.9	2	0.998	0.000	D	26	79.1	1484.453	1486.102	1487.100	1487.104	0
2	22071905	328	High	1.5	Vague	2	26	34	3	79.1	80.5	7.5	3	26	34	7.5	79.1	80.5	1	0.863	0.000	D	26	79.1	1487.606	1489.133	1489.996	1489.999	0
2	22071905	329	High	1.5	Vague	2	28	33	2	37.4	86.8	3.4	33	28	2	86.8	37.4	3.4	1	0.971	0.000	D	28	37.4	1490.501	1491.058	1492.028	1492.031	0
2	22071905	330	High	1.5	Precise	1	28	26	36	37.4	79.1	36.0	26	36	28	79.1	36.0	37.4	1	1.145	0.001	R	28	37.4	1492.533	1493.507	1494.652	1494.655	0
2	22071905	331	High	1.5	Precise	1	34	33	36	80.5	86.8	36.0	34	33	36	80.5	86.8	36.0	NaN	NaN	NaN	NaN	NaN	NaN	1495.158	1496.713	NaN	1498.199	1
2	22071905	332	High	1.5	Vague	2	32	33	8	40.9	86.8	33.6	32	33	8	40.9	86.8	33.6	NaN	NaN	NaN	NaN	NaN	NaN	1500.201	1501.476	NaN	1502.962	1
2	22071905	333	High	1.5	Vague	2	28	33	13	37.4	86.8	24.5	28	13	33	37.4	24.5	86.8	1	0.784	0.000	L	28	37.4	1504.966	1507.468	1508.252	1508.255	0
2	22071905	334	High	1.5	Precise	1	28	33	22	37.4	86.8	22.9	28	22	33	37.4	22.9	86.8	2	1.244	0.000	R	33	86.8	1508.757	1510.848	1512.092	1512.095	0
2	22071905	335	High	1.5	Vague	2	32	34	2	40.9	80.5	3.4	2	34	32	3.4	80.5	40.9	NaN	NaN	NaN	NaN	NaN	NaN	1512.597	1514.898	NaN	1516.384	1
2	22071905	336	High	1.5	Vague	2	32	33	4	40.9	86.8	16.7	32	4	33	40.9	16.7	86.8	NaN	NaN	NaN	NaN	NaN	NaN	1518.387	1520.412	NaN	1521.898	1
2	22071905	337	High	1.5	Vague	2	28	31	8	37.4	43.9	33.6	28	31	8	37.4	43.9	33.6	1	1.171	0.000	L	28	37.4	1523.901	1526.394	1527.564	1527.567	0
2	22071905	338	High	1.5	Precise	1	26	33	36	79.1	86.8	36.0	33	26	36	86.8	79.1	36.0	1	1.202	0.000	D	26	79.1	1528.069	1530.714	1531.916	1531.919	0
2	22071905	339	High	1.5	Vague	2	28	26	4	37.4	79.1	16.7	4	28	26	16.7	37.4	79.1	1	1.086	0.000	D	28	37.4	1532.422	1533.582	1534.668	1534.671	0
2	22071905	340	High	1.5	Vague	2	26	33	13	79.1	86.8	24.5	33	13	26	86.8	24.5	79.1	1	0.762	0.000	R	26	79.1	1535.174	1537.954	1538.716	1538.719	0
2	22071905	341	High	1.5	Vague	2	28	33	6	37.4	86.8	6.1	33	28	6	86.8	37.4	6.1	1	1.118	0.000	D	28	37.4	1539.221	1542.127	1543.244	1543.247	0
2	22071905	342	High	1.5	Vague	2	28	34	4	37.4	80.5	16.7	34	4	28	80.5	16.7	37.4	1	1.222	0.000	R	28	37.4	1543.749	1545.318	1546.540	1546.543	0
2	22071905	343	High	1.5	Precise	1	32	26	27	40.9	79.1	30.6	27	32	26	30.6	40.9	79.1	2	1.154	0.000	R	26	79.1	1547.046	1548.331	1549.484	1549.487	0
2	22071905	344	High	1.5	Vague	2	26	33	6	79.1	86.8	6.1	6	26	33	6.1	79.1	86.8	1	1.159	0.000	D	26	79.1	1549.990	1552.533	1553.692	1553.695	0
2	22071905	345	High	1.5	Precise	1	28	31	36	37.4	43.9	36.0	31	36	28	43.9	36.0	37.4	1	1.142	0.000	R	28	37.4	1554.198	1555.222	1556.364	1556.367	0
2	22071905	346	High	1.5	Precise	1	28	32	19	37.4	40.9	3.9	19	28	32	3.9	37.4	40.9	NaN	NaN	NaN	NaN	NaN	NaN	1556.870	1558.629	NaN	1560.115	1
2	22071905	347	High	1.5	Precise	1	31	34	19	43.9	80.5	3.9	34	31	19	80.5	43.9	3.9	1	0.977	0.001	D	31	43.9	1562.118	1564.908	1565.884	1565.887	0
2	22071905	348	High	1.5	Vague	2	32	34	4	40.9	80.5	16.7	4	32	34	16.7	40.9	80.5	3	1.186	0.000	L	4	16.7	1566.390	1568.587	1569.772	1569.775	0
2	22071905	349	High	1.5	Precise	1	28	32	36	37.4	40.9	36.0	32	28	36	40.9	37.4	36.0	1	0.993	0.000	D	28	37.4	1570.277	1573.083	1574.076	1574.079	0
2	22071905	350	High	1.5	Vague	2	26	34	4	79.1	80.5	16.7	26	4	34	79.1	16.7	80.5	1	1.329	0.001	L	26	79.1	1574.582	1575.547	1576.876	1576.879	0
2	22071905	351	High	1.5	Vague	2	26	34	2	79.1	80.5	3.4	34	26	2	80.5	79.1	3.4	1	1.141	0.000	D	26	79.1	1577.381	1578.791	1579.932	1579.935	0
2	22071905	352	High	1.5	Vague	2	34	33	8	80.5	86.8	33.6	8	34	33	33.6	80.5	86.8	NaN	NaN	NaN	NaN	NaN	NaN	1580.437	1580.974	NaN	1582.460	1
2	22071905	353	High	1.5	Vague	2	28	31	13	37.4	43.9	24.5	31	28	13	43.9	37.4	24.5	2	1.023	0.000	L	31	43.9	1584.463	1585.517	1586.540	1586.543	0
2	22071905	354	High	1.5	Vague	2	31	34	3	43.9	80.5	7.5	34	31	3	80.5	43.9	7.5	1	1.109	0.000	D	31	43.9	1587.045	1589.015	1590.124	1590.127	0
2	22071905	355	High	1.5	Vague	2	34	33	3	80.5	86.8	7.5	3	33	34	7.5	86.8	80.5	NaN	NaN	NaN	NaN	NaN	NaN	1590.629	1592.395	NaN	1593.881	1
2	22071905	356	High	1.5	Precise	1	28	31	24	37.4	43.9	2.4	24	31	28	2.4	43.9	37.4	2	1.170	0.001	D	31	43.9	1595.884	1598.379	1599.549	1599.551	0
2	22071905	357	High	1.5	Precise	1	32	26	30	40.9	79.1	34.5	26	30	32	79.1	34.5	40.9	2	1.059	0.000	L	26	79.1	1600.053	1602.569	1603.628	1603.630	0
2	22071905	358	High	1.5	Precise	1	28	34	27	37.4	80.5	30.6	28	34	27	37.4	80.5	30.6	1	0.763	0.000	L	28	37.4	1604.134	1605.633	1606.396	1606.398	0
2	22071905	359	High	1.5	Vague	2	32	31	6	40.9	43.9	6.1	6	31	32	6.1	43.9	40.9	2	1.071	0.000	D	31	43.9	1606.901	1608.030	1609.100	1609.103	0
2	22071905	360	High	1.5	Precise	1	31	26	30	43.9	79.1	34.5	26	31	30	79.1	43.9	34.5	1	1.092	0.001	D	31	43.9	1609.605	1610.169	1611.260	1611.263	0
