Group	subID	trial	TimePressure	TimeConstraint	Vagueness	Vaguenesscode	ID1	ID2	ID3	V1	V2	V3	ID_left	ID_middle	ID_right	Bid_left	Bid_middle	Bid_right	chosenItem	RT	RTvariance	chosenPosition	chosenID	chosenValue	fixation_time	option_time	choice_time	feedback_time	timeout
2	22110305	1	Low	10.0	Precise	1	32	26	21	0.3	0.8	0.0	26	32	21	0.8	0.3	0.0	2	6.088	0.000	L	26	0.8	5.535	8.038	14.126	14.130	0
2	22110305	2	Low	10.0	Vague	2	28	32	14	0.3	0.3	0.0	14	28	32	0.0	0.3	0.3	1	2.318	0.000	D	28	0.3	14.633	16.088	18.406	18.409	0
2	22110305	3	Low	10.0	Vague	2	31	33	5	0.7	1.7	0.2	33	31	5	1.7	0.7	0.2	2	2.547	0.000	L	33	1.7	18.914	20.299	22.846	22.849	0
2	22110305	4	Low	10.0	Vague	2	28	33	7	0.3	1.7	0.0	28	33	7	0.3	1.7	0.0	2	0.927	0.001	D	33	1.7	23.353	24.911	25.838	25.841	0
2	22110305	5	Low	10.0	Vague	2	32	30	4	0.3	0.7	0.0	4	32	30	0.0	0.3	0.7	2	1.588	0.000	R	30	0.7	26.347	29.305	30.894	30.898	0
2	22110305	6	Low	10.0	Vague	2	28	31	14	0.3	0.7	0.0	31	14	28	0.7	0.0	0.3	1	1.588	0.000	R	28	0.3	31.403	33.434	35.022	35.025	0
2	22110305	7	Low	10.0	Vague	2	28	26	4	0.3	0.8	0.0	28	26	4	0.3	0.8	0.0	1	2.356	0.000	L	28	0.3	35.528	37.050	39.406	39.408	0
2	22110305	8	Low	10.0	Precise	1	32	26	23	0.3	0.8	0.1	26	32	23	0.8	0.3	0.1	2	2.178	0.000	L	26	0.8	39.912	40.980	43.158	43.160	0
2	22110305	9	Low	10.0	Vague	2	30	33	18	0.7	1.7	0.0	33	18	30	1.7	0.0	0.7	2	1.369	0.000	L	33	1.7	43.662	44.397	45.766	45.768	0
2	22110305	10	Low	10.0	Precise	1	31	26	34	0.7	0.8	0.2	34	26	31	0.2	0.8	0.7	2	1.690	0.001	D	26	0.8	46.271	48.196	49.886	49.889	0
2	22110305	11	Low	10.0	Precise	1	28	31	29	0.3	0.7	0.0	31	29	28	0.7	0.0	0.3	1	1.603	0.001	R	28	0.3	50.392	53.147	54.750	54.753	0
2	22110305	12	Low	10.0	Precise	1	28	33	23	0.3	1.7	0.1	33	23	28	1.7	0.1	0.3	2	1.224	0.000	L	33	1.7	55.256	58.030	59.254	59.256	0
2	22110305	13	Low	10.0	Precise	1	28	31	25	0.3	0.7	0.0	25	28	31	0.0	0.3	0.7	1	1.618	0.000	D	28	0.3	59.759	62.348	63.966	63.968	0
2	22110305	14	Low	10.0	Vague	2	28	32	1	0.3	0.3	0.2	28	1	32	0.3	0.2	0.3	1	1.879	0.000	L	28	0.3	64.471	66.670	68.550	68.552	0
2	22110305	15	Low	10.0	Vague	2	30	31	5	0.7	0.7	0.2	5	30	31	0.2	0.7	0.7	1	1.206	0.000	D	30	0.7	69.055	71.311	72.518	72.520	0
2	22110305	16	Low	10.0	Vague	2	32	33	7	0.3	1.7	0.0	32	33	7	0.3	1.7	0.0	2	1.200	0.001	D	33	1.7	73.022	73.846	75.046	75.049	0
2	22110305	17	Low	10.0	Precise	1	32	31	23	0.3	0.7	0.1	23	32	31	0.1	0.3	0.7	2	1.971	0.000	R	31	0.7	75.551	78.323	80.294	80.296	0
2	22110305	18	Low	10.0	Vague	2	28	26	1	0.3	0.8	0.2	28	1	26	0.3	0.2	0.8	1	1.289	0.000	L	28	0.3	80.799	82.717	84.006	84.008	0
2	22110305	19	Low	10.0	Vague	2	32	26	1	0.3	0.8	0.2	32	1	26	0.3	0.2	0.8	2	2.294	0.001	R	26	0.8	84.511	85.496	87.790	87.792	0
2	22110305	20	Low	10.0	Precise	1	26	33	36	0.8	1.7	0.0	33	26	36	1.7	0.8	0.0	2	1.775	0.001	L	33	1.7	88.295	90.903	92.678	92.680	0
2	22110305	21	Low	10.0	Vague	2	28	31	5	0.3	0.7	0.2	5	28	31	0.2	0.3	0.7	3	2.437	0.000	L	5	0.2	93.183	93.745	96.182	96.184	0
2	22110305	22	Low	10.0	Precise	1	32	33	29	0.3	1.7	0.0	32	33	29	0.3	1.7	0.0	2	1.320	0.001	D	33	1.7	96.687	97.390	98.710	98.713	0
2	22110305	23	Low	10.0	Precise	1	28	33	36	0.3	1.7	0.0	28	33	36	0.3	1.7	0.0	2	0.854	0.000	D	33	1.7	99.215	102.088	102.942	102.944	0
2	22110305	24	Low	10.0	Precise	1	30	31	36	0.7	0.7	0.0	36	30	31	0.0	0.7	0.7	1	1.575	0.000	D	30	0.7	103.447	106.046	107.622	107.624	0
2	22110305	25	Low	10.0	Precise	1	31	33	21	0.7	1.7	0.0	33	31	21	1.7	0.7	0.0	2	0.992	0.000	L	33	1.7	108.127	109.557	110.550	110.552	0
2	22110305	26	Low	10.0	Precise	1	32	31	36	0.3	0.7	0.0	31	32	36	0.7	0.3	0.0	2	2.132	0.000	L	31	0.7	111.055	113.802	115.934	115.936	0
2	22110305	27	Low	10.0	Vague	2	30	31	18	0.7	0.7	0.0	30	31	18	0.7	0.7	0.0	1	1.283	0.000	L	30	0.7	116.439	117.771	119.054	119.056	0
2	22110305	28	Low	10.0	Precise	1	32	33	25	0.3	1.7	0.0	33	25	32	1.7	0.0	0.3	2	1.004	0.000	L	33	1.7	119.559	120.745	121.750	121.752	0
2	22110305	29	Low	10.0	Vague	2	32	33	14	0.3	1.7	0.0	32	14	33	0.3	0.0	1.7	2	1.266	0.000	R	33	1.7	122.255	123.891	125.157	125.160	0
2	22110305	30	Low	10.0	Precise	1	32	30	29	0.3	0.7	0.0	30	32	29	0.7	0.3	0.0	2	0.800	0.000	L	30	0.7	125.663	127.574	128.374	128.376	0
2	22110305	31	Low	10.0	Vague	2	30	31	4	0.7	0.7	0.0	4	31	30	0.0	0.7	0.7	1	0.736	0.000	R	30	0.7	128.879	130.934	131.670	131.672	0
2	22110305	32	Low	10.0	Precise	1	32	30	21	0.3	0.7	0.0	21	32	30	0.0	0.3	0.7	2	0.929	0.000	R	30	0.7	132.175	132.965	133.894	133.896	0
2	22110305	33	Low	10.0	Vague	2	32	31	14	0.3	0.7	0.0	14	32	31	0.0	0.3	0.7	1	2.374	0.000	D	32	0.3	134.399	135.144	137.518	137.520	0
2	22110305	34	Low	10.0	Vague	2	32	26	5	0.3	0.8	0.2	5	32	26	0.2	0.3	0.8	2	1.852	0.000	R	26	0.8	138.023	140.417	142.270	142.272	0
2	22110305	35	Low	10.0	Precise	1	28	30	34	0.3	0.7	0.2	30	28	34	0.7	0.3	0.2	3	1.113	0.000	R	34	0.2	142.775	144.780	145.894	145.896	0
2	22110305	36	Low	10.0	Vague	2	28	30	7	0.3	0.7	0.0	28	7	30	0.3	0.0	0.7	2	0.788	0.001	R	30	0.7	146.398	148.465	149.254	149.256	0
2	22110305	37	Low	10.0	Vague	2	30	31	1	0.7	0.7	0.2	1	30	31	0.2	0.7	0.7	1	1.382	0.000	D	30	0.7	149.760	150.888	152.270	152.272	0
2	22110305	38	Low	10.0	Vague	2	30	33	7	0.7	1.7	0.0	33	7	30	1.7	0.0	0.7	2	1.018	0.000	L	33	1.7	152.774	154.084	155.102	155.104	0
2	22110305	39	Low	10.0	Precise	1	28	31	34	0.3	0.7	0.2	31	34	28	0.7	0.2	0.3	3	1.139	0.000	D	34	0.2	155.606	158.323	159.462	159.464	0
2	22110305	40	Low	10.0	Precise	1	30	26	36	0.7	0.8	0.0	30	26	36	0.7	0.8	0.0	1	0.770	0.000	L	30	0.7	159.968	161.483	162.253	162.256	0
2	22110305	41	Low	10.0	Precise	1	26	33	34	0.8	1.7	0.2	33	26	34	1.7	0.8	0.2	2	1.278	0.000	L	33	1.7	162.759	164.040	165.318	165.320	0
2	22110305	42	Low	10.0	Precise	1	28	26	29	0.3	0.8	0.0	26	28	29	0.8	0.3	0.0	1	1.570	0.000	D	28	0.3	165.823	168.428	169.998	170.001	0
2	22110305	43	Low	10.0	Precise	1	28	32	23	0.3	0.3	0.1	23	28	32	0.1	0.3	0.3	1	1.336	0.000	D	28	0.3	170.504	173.062	174.398	174.400	0
2	22110305	44	Low	10.0	Precise	1	28	26	21	0.3	0.8	0.0	28	21	26	0.3	0.0	0.8	2	1.969	0.000	R	26	0.8	174.903	176.357	178.326	178.328	0
2	22110305	45	Low	10.0	Precise	1	30	26	25	0.7	0.8	0.0	30	25	26	0.7	0.0	0.8	1	0.990	0.000	L	30	0.7	178.831	179.504	180.494	180.496	0
2	22110305	46	Low	10.0	Precise	1	32	33	36	0.3	1.7	0.0	32	36	33	0.3	0.0	1.7	2	0.789	0.000	R	33	1.7	180.999	182.329	183.118	183.120	0
2	22110305	47	Low	10.0	Precise	1	26	33	29	0.8	1.7	0.0	29	33	26	0.0	1.7	0.8	2	0.689	0.000	D	33	1.7	183.622	186.037	186.726	186.728	0
2	22110305	48	Low	10.0	Precise	1	28	30	29	0.3	0.7	0.0	30	29	28	0.7	0.0	0.3	2	0.742	0.001	L	30	0.7	187.231	189.160	189.902	189.904	0
2	22110305	49	Low	10.0	Vague	2	31	26	5	0.7	0.8	0.2	5	31	26	0.2	0.7	0.8	1	2.386	0.000	D	31	0.7	190.407	192.004	194.390	194.392	0
2	22110305	50	Low	10.0	Precise	1	28	31	21	0.3	0.7	0.0	28	31	21	0.3	0.7	0.0	1	1.456	0.000	L	28	0.3	194.895	197.310	198.766	198.768	0
2	22110305	51	Low	10.0	Vague	2	32	33	18	0.3	1.7	0.0	32	33	18	0.3	1.7	0.0	2	1.069	0.000	D	33	1.7	199.271	201.289	202.358	202.361	0
2	22110305	52	Low	10.0	Vague	2	32	26	7	0.3	0.8	0.0	26	7	32	0.8	0.0	0.3	2	1.704	0.000	L	26	0.8	202.863	203.870	205.574	205.576	0
2	22110305	53	Low	10.0	Vague	2	28	31	18	0.3	0.7	0.0	18	28	31	0.0	0.3	0.7	2	1.970	0.001	R	31	0.7	206.079	207.412	209.382	209.385	0
2	22110305	54	Low	10.0	Precise	1	32	30	36	0.3	0.7	0.0	36	30	32	0.0	0.7	0.3	2	1.804	0.001	D	30	0.7	209.888	212.354	214.158	214.161	0
2	22110305	55	Low	10.0	Precise	1	28	30	36	0.3	0.7	0.0	28	30	36	0.3	0.7	0.0	2	1.007	0.001	D	30	0.7	214.663	215.543	216.550	216.552	0
2	22110305	56	Low	10.0	Precise	1	31	26	36	0.7	0.8	0.0	31	36	26	0.7	0.0	0.8	1	4.743	0.001	L	31	0.7	217.055	217.839	222.582	222.585	0
2	22110305	57	Low	10.0	Vague	2	26	33	14	0.8	1.7	0.0	14	26	33	0.0	0.8	1.7	2	1.122	0.000	R	33	1.7	223.087	224.308	225.430	225.432	0
2	22110305	58	Low	10.0	Precise	1	28	26	34	0.3	0.8	0.2	26	28	34	0.8	0.3	0.2	3	0.758	0.001	R	34	0.2	225.934	228.480	229.238	229.240	0
2	22110305	59	Low	10.0	Vague	2	32	30	14	0.3	0.7	0.0	32	14	30	0.3	0.0	0.7	2	0.671	0.000	R	30	0.7	229.744	231.679	232.350	232.352	0
2	22110305	60	Low	10.0	Precise	1	31	26	21	0.7	0.8	0.0	31	26	21	0.7	0.8	0.0	2	1.099	0.000	D	26	0.8	232.854	234.610	235.710	235.713	0
2	22110305	61	Low	10.0	Precise	1	30	26	21	0.7	0.8	0.0	26	21	30	0.8	0.0	0.7	1	0.825	0.000	R	30	0.7	243.401	246.228	247.054	247.056	0
2	22110305	62	Low	10.0	Vague	2	28	33	18	0.3	1.7	0.0	28	18	33	0.3	0.0	1.7	2	1.009	0.000	R	33	1.7	247.560	249.325	250.334	250.336	0
2	22110305	63	Low	10.0	Vague	2	31	33	7	0.7	1.7	0.0	7	31	33	0.0	0.7	1.7	2	0.662	0.000	R	33	1.7	250.839	251.872	252.534	252.536	0
2	22110305	64	Low	10.0	Precise	1	28	31	23	0.3	0.7	0.1	23	31	28	0.1	0.7	0.3	2	1.656	0.000	D	31	0.7	253.039	254.830	256.486	256.488	0
2	22110305	65	Low	10.0	Vague	2	32	31	1	0.3	0.7	0.2	31	1	32	0.7	0.2	0.3	2	1.860	0.000	L	31	0.7	256.991	257.562	259.422	259.424	0
2	22110305	66	Low	10.0	Vague	2	28	31	4	0.3	0.7	0.0	28	31	4	0.3	0.7	0.0	2	2.179	0.000	D	31	0.7	259.927	262.490	264.670	264.672	0
2	22110305	67	Low	10.0	Vague	2	28	32	5	0.3	0.3	0.2	32	5	28	0.3	0.2	0.3	1	1.884	0.000	R	28	0.3	265.175	268.074	269.958	269.960	0
2	22110305	68	Low	10.0	Precise	1	32	33	34	0.3	1.7	0.2	32	34	33	0.3	0.2	1.7	2	0.875	0.000	R	33	1.7	270.464	273.178	274.054	274.056	0
2	22110305	69	Low	10.0	Precise	1	30	33	21	0.7	1.7	0.0	33	30	21	1.7	0.7	0.0	2	2.208	0.000	L	33	1.7	274.559	276.445	278.654	278.656	0
2	22110305	70	Low	10.0	Vague	2	28	26	7	0.3	0.8	0.0	26	7	28	0.8	0.0	0.3	2	2.431	0.001	L	26	0.8	279.159	279.935	282.366	282.368	0
2	22110305	71	Low	10.0	Vague	2	28	33	5	0.3	1.7	0.2	5	33	28	0.2	1.7	0.3	2	1.055	0.001	D	33	1.7	282.871	284.551	285.606	285.608	0
2	22110305	72	Low	10.0	Vague	2	28	31	1	0.3	0.7	0.2	31	1	28	0.7	0.2	0.3	1	2.347	0.000	R	28	0.3	286.111	288.219	290.566	290.569	0
2	22110305	73	Low	10.0	Precise	1	28	32	29	0.3	0.3	0.0	32	29	28	0.3	0.0	0.3	1	2.172	0.001	R	28	0.3	291.072	292.290	294.462	294.464	0
2	22110305	74	Low	10.0	Vague	2	28	32	4	0.3	0.3	0.0	32	28	4	0.3	0.3	0.0	1	1.667	0.001	D	28	0.3	294.967	297.499	299.166	299.169	0
2	22110305	75	Low	10.0	Precise	1	30	31	21	0.7	0.7	0.0	31	30	21	0.7	0.7	0.0	1	1.080	0.001	D	30	0.7	299.672	301.326	302.406	302.408	0
2	22110305	76	Low	10.0	Precise	1	32	30	34	0.3	0.7	0.2	32	34	30	0.3	0.2	0.7	3	1.421	0.000	D	34	0.2	302.911	304.553	305.974	305.976	0
2	22110305	77	Low	10.0	Vague	2	28	26	18	0.3	0.8	0.0	18	28	26	0.0	0.3	0.8	1	0.456	0.000	D	28	0.3	306.479	308.086	308.542	308.544	0
2	22110305	78	Low	10.0	Vague	2	32	26	18	0.3	0.8	0.0	18	32	26	0.0	0.3	0.8	2	1.396	0.000	R	26	0.8	309.047	310.850	312.246	312.248	0
2	22110305	79	Low	10.0	Precise	1	28	30	23	0.3	0.7	0.1	30	28	23	0.7	0.3	0.1	2	0.901	0.000	L	30	0.7	312.752	314.937	315.838	315.840	0
2	22110305	80	Low	10.0	Vague	2	30	26	14	0.7	0.8	0.0	30	14	26	0.7	0.0	0.8	1	1.280	0.001	L	30	0.7	316.343	318.054	319.334	319.336	0
2	22110305	81	Low	10.0	Precise	1	30	26	23	0.7	0.8	0.1	30	26	23	0.7	0.8	0.1	1	3.089	0.000	L	30	0.7	319.840	320.468	323.558	323.560	0
2	22110305	82	Low	10.0	Precise	1	31	33	34	0.7	1.7	0.2	33	31	34	1.7	0.7	0.2	2	0.951	0.000	L	33	1.7	324.063	326.110	327.062	327.064	0
2	22110305	83	Low	10.0	Precise	1	30	33	23	0.7	1.7	0.1	30	23	33	0.7	0.1	1.7	1	2.663	0.001	L	30	0.7	327.567	328.943	331.606	331.608	0
2	22110305	84	Low	10.0	Vague	2	30	33	5	0.7	1.7	0.2	30	5	33	0.7	0.2	1.7	2	0.907	0.000	R	33	1.7	332.112	333.211	334.118	334.120	0
2	22110305	85	Low	10.0	Vague	2	28	30	4	0.3	0.7	0.0	30	28	4	0.7	0.3	0.0	2	0.923	0.000	L	30	0.7	334.623	337.363	338.286	338.288	0
2	22110305	86	Low	10.0	Vague	2	31	26	18	0.7	0.8	0.0	26	18	31	0.8	0.0	0.7	2	2.309	0.001	L	26	0.8	338.790	339.569	341.878	341.880	0
2	22110305	87	Low	10.0	Vague	2	26	33	7	0.8	1.7	0.0	26	33	7	0.8	1.7	0.0	2	1.637	0.000	D	33	1.7	342.383	345.145	346.782	346.784	0
2	22110305	88	Low	10.0	Vague	2	28	30	18	0.3	0.7	0.0	28	18	30	0.3	0.0	0.7	2	1.478	0.000	R	30	0.7	347.287	349.520	350.998	351.001	0
2	22110305	89	Low	10.0	Precise	1	30	31	25	0.7	0.7	0.0	30	25	31	0.7	0.0	0.7	1	1.145	0.000	L	30	0.7	351.503	353.813	354.958	354.960	0
2	22110305	90	Low	10.0	Vague	2	32	31	5	0.3	0.7	0.2	5	31	32	0.2	0.7	0.3	3	1.412	0.000	L	5	0.2	355.462	357.297	358.710	358.712	0
2	22110305	91	Low	10.0	Vague	2	31	26	7	0.7	0.8	0.0	7	26	31	0.0	0.8	0.7	2	1.855	0.000	D	26	0.8	359.215	361.462	363.318	363.320	0
2	22110305	92	Low	10.0	Vague	2	31	26	4	0.7	0.8	0.0	31	26	4	0.7	0.8	0.0	2	1.351	0.001	D	26	0.8	363.823	365.399	366.750	366.753	0
2	22110305	93	Low	10.0	Precise	1	28	26	36	0.3	0.8	0.0	26	28	36	0.8	0.3	0.0	2	4.437	0.001	L	26	0.8	367.256	368.985	373.422	373.424	0
2	22110305	94	Low	10.0	Vague	2	31	33	1	0.7	1.7	0.2	31	1	33	0.7	0.2	1.7	2	0.988	0.001	R	33	1.7	373.927	374.682	375.670	375.672	0
2	22110305	95	Low	10.0	Precise	1	31	33	36	0.7	1.7	0.0	33	31	36	1.7	0.7	0.0	2	0.642	0.001	L	33	1.7	376.175	378.020	378.662	378.665	0
2	22110305	96	Low	10.0	Precise	1	28	30	21	0.3	0.7	0.0	21	30	28	0.0	0.7	0.3	2	0.803	0.001	D	30	0.7	379.168	381.251	382.054	382.056	0
2	22110305	97	Low	10.0	Precise	1	30	33	25	0.7	1.7	0.0	30	25	33	0.7	0.0	1.7	2	0.640	0.000	R	33	1.7	382.559	385.038	385.678	385.680	0
2	22110305	98	Low	10.0	Precise	1	32	31	29	0.3	0.7	0.0	32	29	31	0.3	0.0	0.7	2	1.814	0.000	R	31	0.7	386.183	389.039	390.854	390.856	0
2	22110305	99	Low	10.0	Precise	1	31	26	29	0.7	0.8	0.0	26	29	31	0.8	0.0	0.7	1	1.876	0.000	R	31	0.7	391.359	392.610	394.486	394.488	0
2	22110305	100	Low	10.0	Precise	1	31	33	23	0.7	1.7	0.1	23	31	33	0.1	0.7	1.7	2	0.929	0.000	R	33	1.7	394.991	396.629	397.558	397.560	0
2	22110305	101	Low	10.0	Precise	1	32	33	23	0.3	1.7	0.1	32	23	33	0.3	0.1	1.7	2	0.589	0.000	R	33	1.7	398.063	400.105	400.694	400.696	0
2	22110305	102	Low	10.0	Precise	1	28	33	21	0.3	1.7	0.0	28	21	33	0.3	0.0	1.7	2	0.599	0.000	R	33	1.7	401.199	402.294	402.894	402.896	0
2	22110305	103	Low	10.0	Precise	1	30	26	29	0.7	0.8	0.0	26	29	30	0.8	0.0	0.7	1	1.066	0.001	R	30	0.7	403.399	404.884	405.950	405.952	0
2	22110305	104	Low	10.0	Precise	1	30	33	36	0.7	1.7	0.0	30	33	36	0.7	1.7	0.0	2	0.591	0.000	D	33	1.7	406.455	409.055	409.646	409.648	0
2	22110305	105	Low	10.0	Vague	2	32	33	4	0.3	1.7	0.0	33	32	4	1.7	0.3	0.0	2	0.839	0.000	L	33	1.7	410.151	412.070	412.910	412.912	0
2	22110305	106	Low	10.0	Vague	2	32	30	18	0.3	0.7	0.0	32	18	30	0.3	0.0	0.7	2	1.029	0.000	R	30	0.7	413.414	416.241	417.270	417.272	0
2	22110305	107	Low	10.0	Vague	2	31	33	18	0.7	1.7	0.0	18	31	33	0.0	0.7	1.7	2	0.884	0.000	R	33	1.7	417.775	418.506	419.390	419.392	0
2	22110305	108	Low	10.0	Vague	2	30	31	7	0.7	0.7	0.0	30	31	7	0.7	0.7	0.0	1	1.959	0.000	L	30	0.7	419.895	422.079	424.038	424.041	0
2	22110305	109	Low	10.0	Precise	1	28	33	29	0.3	1.7	0.0	29	33	28	0.0	1.7	0.3	2	0.762	0.001	D	33	1.7	424.544	426.420	427.182	427.185	0
2	22110305	110	Low	10.0	Vague	2	28	30	5	0.3	0.7	0.2	28	5	30	0.3	0.2	0.7	2	1.373	0.000	R	30	0.7	427.688	429.201	430.574	430.576	0
2	22110305	111	Low	10.0	Precise	1	30	33	34	0.7	1.7	0.2	33	30	34	1.7	0.7	0.2	3	0.965	0.001	R	34	0.2	431.078	431.929	432.894	432.897	0
2	22110305	112	Low	10.0	Precise	1	28	31	36	0.3	0.7	0.0	31	28	36	0.7	0.3	0.0	1	1.172	0.001	D	28	0.3	433.400	435.778	436.950	436.953	0
2	22110305	113	Low	10.0	Precise	1	26	33	21	0.8	1.7	0.0	26	21	33	0.8	0.0	1.7	2	0.800	0.000	R	33	1.7	437.455	439.014	439.814	439.816	0
2	22110305	114	Low	10.0	Precise	1	30	31	29	0.7	0.7	0.0	31	30	29	0.7	0.7	0.0	1	1.108	0.001	D	30	0.7	440.319	441.730	442.838	442.840	0
2	22110305	115	Low	10.0	Vague	2	26	33	1	0.8	1.7	0.2	33	1	26	1.7	0.2	0.8	2	0.817	0.001	L	33	1.7	443.343	445.533	446.350	446.353	0
2	22110305	116	Low	10.0	Vague	2	30	26	4	0.7	0.8	0.0	30	4	26	0.7	0.0	0.8	1	0.974	0.000	L	30	0.7	446.856	448.424	449.398	449.400	0
2	22110305	117	Low	10.0	Precise	1	32	26	25	0.3	0.8	0.0	32	26	25	0.3	0.8	0.0	2	2.528	0.000	D	26	0.8	449.903	450.446	452.974	452.976	0
2	22110305	118	Low	10.0	Precise	1	28	32	25	0.3	0.3	0.0	32	25	28	0.3	0.0	0.3	1	1.670	0.001	R	28	0.3	453.479	455.848	457.518	457.521	0
2	22110305	119	Low	10.0	Precise	1	30	33	29	0.7	1.7	0.0	30	29	33	0.7	0.0	1.7	2	0.990	0.000	R	33	1.7	458.024	460.927	461.918	461.920	0
2	22110305	120	Low	10.0	Vague	2	28	31	7	0.3	0.7	0.0	7	31	28	0.0	0.7	0.3	2	2.776	0.000	D	31	0.7	462.423	463.342	466.118	466.120	0
2	22110305	121	Low	10.0	Vague	2	28	32	18	0.3	0.3	0.0	18	32	28	0.0	0.3	0.3	1	2.668	0.000	R	28	0.3	473.639	475.697	478.366	478.368	0
2	22110305	122	Low	10.0	Vague	2	30	26	18	0.7	0.8	0.0	18	30	26	0.0	0.7	0.8	1	1.205	0.000	D	30	0.7	478.871	481.105	482.310	482.313	0
2	22110305	123	Low	10.0	Vague	2	26	33	5	0.8	1.7	0.2	26	33	5	0.8	1.7	0.2	2	1.178	0.001	D	33	1.7	482.816	485.196	486.374	486.376	0
2	22110305	124	Low	10.0	Vague	2	30	33	1	0.7	1.7	0.2	1	30	33	0.2	0.7	1.7	2	1.898	0.000	R	33	1.7	486.880	487.820	489.718	489.720	0
2	22110305	125	Low	10.0	Vague	2	32	30	7	0.3	0.7	0.0	30	32	7	0.7	0.3	0.0	2	2.858	0.000	L	30	0.7	490.223	492.036	494.894	494.896	0
2	22110305	126	Low	10.0	Precise	1	32	26	34	0.3	0.8	0.2	32	26	34	0.3	0.8	0.2	3	1.423	0.001	R	34	0.2	495.399	496.183	497.606	497.608	0
2	22110305	127	Low	10.0	Precise	1	32	26	36	0.3	0.8	0.0	32	36	26	0.3	0.0	0.8	3	0.000	1.259	D	36	0.0	498.112	498.865	498.865	498.870	0
2	22110305	128	Low	10.0	Vague	2	28	32	7	0.3	0.3	0.0	28	7	32	0.3	0.0	0.3	1	2.794	0.000	L	28	0.3	499.373	501.643	504.438	504.440	0
2	22110305	129	Low	10.0	Vague	2	28	33	4	0.3	1.7	0.0	4	28	33	0.0	0.3	1.7	2	1.353	0.000	R	33	1.7	504.943	507.829	509.182	509.184	0
2	22110305	130	Low	10.0	Vague	2	28	33	14	0.3	1.7	0.0	33	14	28	1.7	0.0	0.3	2	1.038	0.001	L	33	1.7	509.687	512.568	513.606	513.608	0
2	22110305	131	Low	10.0	Vague	2	32	33	5	0.3	1.7	0.2	33	5	32	1.7	0.2	0.3	2	0.783	0.000	L	33	1.7	514.112	516.783	517.566	517.568	0
2	22110305	132	Low	10.0	Precise	1	28	30	25	0.3	0.7	0.0	30	28	25	0.7	0.3	0.0	2	1.330	0.000	L	30	0.7	518.071	520.036	521.366	521.368	0
2	22110305	133	Low	10.0	Precise	1	28	26	25	0.3	0.8	0.0	28	26	25	0.3	0.8	0.0	2	2.026	0.000	D	26	0.8	521.871	522.459	524.486	524.488	0
2	22110305	134	Low	10.0	Vague	2	26	33	18	0.8	1.7	0.0	33	18	26	1.7	0.0	0.8	2	0.884	0.001	L	33	1.7	524.991	527.594	528.478	528.480	0
2	22110305	135	Low	10.0	Precise	1	28	32	36	0.3	0.3	0.0	28	32	36	0.3	0.3	0.0	1	3.213	0.000	L	28	0.3	528.983	529.705	532.918	532.920	0
2	22110305	136	Low	10.0	Vague	2	28	33	1	0.3	1.7	0.2	33	1	28	1.7	0.2	0.3	2	0.900	0.001	L	33	1.7	533.424	535.418	536.318	536.320	0
2	22110305	137	Low	10.0	Vague	2	32	26	14	0.3	0.8	0.0	14	26	32	0.0	0.8	0.3	2	2.336	0.000	D	26	0.8	536.823	538.366	540.702	540.704	0
2	22110305	138	Low	10.0	Precise	1	32	33	21	0.3	1.7	0.0	32	21	33	0.3	0.0	1.7	2	0.881	0.000	R	33	1.7	541.207	543.373	544.254	544.256	0
2	22110305	139	Low	10.0	Precise	1	28	33	34	0.3	1.7	0.2	33	34	28	1.7	0.2	0.3	2	1.760	0.000	L	33	1.7	544.759	545.910	547.670	547.672	0
2	22110305	140	Low	10.0	Precise	1	30	26	34	0.7	0.8	0.2	34	26	30	0.2	0.8	0.7	3	1.701	0.000	L	34	0.2	548.175	549.752	551.454	551.456	0
2	22110305	141	Low	10.0	Vague	2	31	33	14	0.7	1.7	0.0	33	31	14	1.7	0.7	0.0	2	0.811	0.000	L	33	1.7	551.959	554.499	555.310	555.312	0
2	22110305	142	Low	10.0	Vague	2	28	26	5	0.3	0.8	0.2	26	28	5	0.8	0.3	0.2	2	1.545	0.000	L	26	0.8	555.815	556.341	557.886	557.888	0
2	22110305	143	Low	10.0	Precise	1	28	33	25	0.3	1.7	0.0	25	33	28	0.0	1.7	0.3	2	0.896	0.001	D	33	1.7	558.391	559.942	560.838	560.841	0
2	22110305	144	Low	10.0	Vague	2	32	30	1	0.3	0.7	0.2	1	30	32	0.2	0.7	0.3	2	1.106	0.000	D	30	0.7	561.343	563.484	564.590	564.592	0
2	22110305	145	Low	10.0	Precise	1	28	32	21	0.3	0.3	0.0	32	28	21	0.3	0.3	0.0	1	2.238	0.001	D	28	0.3	565.095	566.064	568.302	568.304	0
2	22110305	146	Low	10.0	Vague	2	30	26	7	0.7	0.8	0.0	30	26	7	0.7	0.8	0.0	3	0.900	0.000	R	7	0.0	568.807	570.681	571.582	571.584	0
2	22110305	147	Low	10.0	Vague	2	31	33	4	0.7	1.7	0.0	33	4	31	1.7	0.0	0.7	2	1.206	0.000	L	33	1.7	572.087	574.359	575.566	575.568	0
2	22110305	148	Low	10.0	Vague	2	32	31	18	0.3	0.7	0.0	31	32	18	0.7	0.3	0.0	2	1.651	0.000	L	31	0.7	576.070	578.282	579.934	579.936	0
2	22110305	149	Low	10.0	Vague	2	28	30	14	0.3	0.7	0.0	30	28	14	0.7	0.3	0.0	2	1.290	0.001	L	30	0.7	580.440	582.524	583.814	583.817	0
2	22110305	150	Low	10.0	Precise	1	31	26	23	0.7	0.8	0.1	26	23	31	0.8	0.1	0.7	2	2.336	0.000	L	26	0.8	584.320	585.829	588.166	588.168	0
2	22110305	151	Low	10.0	Vague	2	31	26	14	0.7	0.8	0.0	26	14	31	0.8	0.0	0.7	2	2.900	0.000	L	26	0.8	588.671	589.394	592.294	592.296	0
2	22110305	152	Low	10.0	Vague	2	32	30	5	0.3	0.7	0.2	5	32	30	0.2	0.3	0.7	2	1.016	0.001	R	30	0.7	592.798	594.046	595.062	595.065	0
2	22110305	153	Low	10.0	Vague	2	31	26	1	0.7	0.8	0.2	26	31	1	0.8	0.7	0.2	2	1.365	0.001	L	26	0.8	595.568	596.889	598.254	598.256	0
2	22110305	154	Low	10.0	Precise	1	32	30	25	0.3	0.7	0.0	32	25	30	0.3	0.0	0.7	2	1.079	0.000	R	30	0.7	598.760	600.863	601.942	601.944	0
2	22110305	155	Low	10.0	Vague	2	30	26	1	0.7	0.8	0.2	1	30	26	0.2	0.7	0.8	1	1.387	0.001	D	30	0.7	602.447	604.891	606.278	606.281	0
2	22110305	156	Low	10.0	Precise	1	30	31	23	0.7	0.7	0.1	31	30	23	0.7	0.7	0.1	1	0.936	0.001	D	30	0.7	606.784	608.966	609.902	609.904	0
2	22110305	157	Low	10.0	Vague	2	28	30	1	0.3	0.7	0.2	1	30	28	0.2	0.7	0.3	2	0.736	0.000	D	30	0.7	610.407	612.470	613.206	613.208	0
2	22110305	158	Low	10.0	Vague	2	26	33	4	0.8	1.7	0.0	33	26	4	1.7	0.8	0.0	2	0.780	0.000	L	33	1.7	613.711	614.610	615.390	615.392	0
2	22110305	159	Low	10.0	Precise	1	28	32	34	0.3	0.3	0.2	34	32	28	0.2	0.3	0.3	3	0.804	0.000	L	34	0.2	615.896	617.033	617.838	617.840	0
2	22110305	160	Low	10.0	Precise	1	26	33	25	0.8	1.7	0.0	33	26	25	1.7	0.8	0.0	2	0.939	0.000	L	33	1.7	618.343	620.307	621.246	621.248	0
2	22110305	161	Low	10.0	Precise	1	32	31	34	0.3	0.7	0.2	34	32	31	0.2	0.3	0.7	3	1.027	0.000	L	34	0.2	621.752	624.619	625.646	625.649	0
2	22110305	162	Low	10.0	Vague	2	32	33	1	0.3	1.7	0.2	1	32	33	0.2	0.3	1.7	2	1.287	0.000	R	33	1.7	626.152	627.447	628.734	628.736	0
2	22110305	163	Low	10.0	Precise	1	32	30	23	0.3	0.7	0.1	32	23	30	0.3	0.1	0.7	2	1.262	0.000	R	30	0.7	629.239	631.992	633.254	633.256	0
2	22110305	164	Low	10.0	Precise	1	32	31	25	0.3	0.7	0.0	31	32	25	0.7	0.3	0.0	2	1.902	0.000	L	31	0.7	633.759	636.216	638.118	638.120	0
2	22110305	165	Low	10.0	Precise	1	32	31	21	0.3	0.7	0.0	32	31	21	0.3	0.7	0.0	2	1.703	0.000	D	31	0.7	638.623	640.358	642.062	642.064	0
2	22110305	166	Low	10.0	Precise	1	30	31	34	0.7	0.7	0.2	31	30	34	0.7	0.7	0.2	3	1.121	0.000	R	34	0.2	642.567	645.476	646.598	646.600	0
2	22110305	167	Low	10.0	Vague	2	30	26	5	0.7	0.8	0.2	5	26	30	0.2	0.8	0.7	1	1.851	0.000	R	30	0.7	647.102	648.467	650.318	650.320	0
2	22110305	168	Low	10.0	Vague	2	30	33	4	0.7	1.7	0.0	33	30	4	1.7	0.7	0.0	2	1.686	0.001	L	33	1.7	650.823	651.792	653.478	653.480	0
2	22110305	169	Low	10.0	Vague	2	28	26	14	0.3	0.8	0.0	28	26	14	0.3	0.8	0.0	2	2.071	0.000	D	26	0.8	653.983	655.894	657.966	657.968	0
2	22110305	170	Low	10.0	Precise	1	28	26	23	0.3	0.8	0.1	28	23	26	0.3	0.1	0.8	2	1.678	0.001	R	26	0.8	658.471	661.232	662.910	662.913	0
2	22110305	171	Low	10.0	Vague	2	30	33	14	0.7	1.7	0.0	33	14	30	1.7	0.0	0.7	2	2.592	0.001	L	33	1.7	663.416	665.278	667.870	667.873	0
2	22110305	172	Low	10.0	Vague	2	30	31	14	0.7	0.7	0.0	30	14	31	0.7	0.0	0.7	1	1.129	0.001	L	30	0.7	668.375	671.029	672.158	672.160	0
2	22110305	173	Low	10.0	Precise	1	32	26	29	0.3	0.8	0.0	29	26	32	0.0	0.8	0.3	2	1.461	0.000	D	26	0.8	672.664	673.193	674.654	674.656	0
2	22110305	174	Low	10.0	Precise	1	31	26	25	0.7	0.8	0.0	25	26	31	0.0	0.8	0.7	2	1.426	0.000	D	26	0.8	675.159	676.700	678.126	678.128	0
2	22110305	175	Low	10.0	Vague	2	32	26	4	0.3	0.8	0.0	32	4	26	0.3	0.0	0.8	2	1.516	0.000	R	26	0.8	678.631	681.370	682.886	682.888	0
2	22110305	176	Low	10.0	Precise	1	26	33	23	0.8	1.7	0.1	26	33	23	0.8	1.7	0.1	2	1.091	0.001	D	33	1.7	683.391	684.668	685.758	685.760	0
2	22110305	177	Low	10.0	Vague	2	32	31	7	0.3	0.7	0.0	31	7	32	0.7	0.0	0.3	2	3.017	0.000	L	31	0.7	686.264	687.053	690.070	690.072	0
2	22110305	178	Low	10.0	Vague	2	32	31	4	0.3	0.7	0.0	32	31	4	0.3	0.7	0.0	2	2.033	0.000	D	31	0.7	690.575	693.117	695.150	695.152	0
2	22110305	179	Low	10.0	Precise	1	31	33	25	0.7	1.7	0.0	33	25	31	1.7	0.0	0.7	2	0.936	0.001	L	33	1.7	695.655	697.734	698.670	698.672	0
2	22110305	180	Low	10.0	Precise	1	31	33	29	0.7	1.7	0.0	29	31	33	0.0	0.7	1.7	2	0.792	0.000	R	33	1.7	699.175	701.149	701.942	701.944	0
2	22110305	181	High	1.5	Vague	2	28	33	9	0.3	1.7	0.1	28	33	9	0.3	1.7	0.1	2	0.598	0.000	D	33	1.7	735.904	737.904	738.502	738.504	0
2	22110305	182	High	1.5	Vague	2	28	33	16	0.3	1.7	0.0	16	33	28	0.0	1.7	0.3	NaN	NaN	NaN	NaN	NaN	NaN	739.007	741.963	NaN	743.453	1
2	22110305	183	High	1.5	Vague	2	28	31	2	0.3	0.7	0.0	31	28	2	0.7	0.3	0.0	2	1.153	0.000	L	31	0.7	745.457	746.230	747.382	747.386	0
2	22110305	184	High	1.5	Precise	1	31	33	35	0.7	1.7	0.0	33	35	31	1.7	0.0	0.7	2	1.044	0.000	L	33	1.7	747.889	748.610	749.654	749.657	0
2	22110305	185	High	1.5	Vague	2	31	33	10	0.7	1.7	0.0	31	33	10	0.7	1.7	0.0	2	0.675	0.000	D	33	1.7	750.160	752.891	753.566	753.569	0
2	22110305	186	High	1.5	Vague	2	28	30	10	0.3	0.7	0.0	10	28	30	0.0	0.3	0.7	1	0.719	0.000	D	28	0.3	754.072	754.807	755.526	755.528	0
2	22110305	187	High	1.5	Vague	2	28	31	9	0.3	0.7	0.1	31	9	28	0.7	0.1	0.3	3	0.776	0.001	D	9	0.1	756.031	758.822	759.598	759.600	0
2	22110305	188	High	1.5	Vague	2	30	33	3	0.7	1.7	0.2	33	30	3	1.7	0.7	0.2	2	0.659	0.000	L	33	1.7	760.103	761.275	761.934	761.936	0
2	22110305	189	High	1.5	Precise	1	30	26	35	0.7	0.8	0.0	26	30	35	0.8	0.7	0.0	2	1.057	0.000	L	26	0.8	762.439	764.700	765.758	765.760	0
2	22110305	190	High	1.5	Vague	2	32	30	16	0.3	0.7	0.0	16	32	30	0.0	0.3	0.7	2	1.001	0.000	R	30	0.7	766.263	768.765	769.766	769.768	0
2	22110305	191	High	1.5	Precise	1	31	33	22	0.7	1.7	0.0	31	22	33	0.7	0.0	1.7	2	0.847	0.000	R	33	1.7	770.271	770.806	771.654	771.656	0
2	22110305	192	High	1.5	Precise	1	26	33	27	0.8	1.7	0.0	27	26	33	0.0	0.8	1.7	2	0.538	0.000	R	33	1.7	772.158	773.236	773.774	773.776	0
2	22110305	193	High	1.5	Precise	1	30	33	20	0.7	1.7	0.2	30	33	20	0.7	1.7	0.2	2	0.578	0.001	D	33	1.7	774.279	775.005	775.582	775.585	0
2	22110305	194	High	1.5	Vague	2	31	33	16	0.7	1.7	0.0	16	33	31	0.0	1.7	0.7	2	0.485	0.000	D	33	1.7	776.087	777.528	778.014	778.017	0
2	22110305	195	High	1.5	Precise	1	31	26	19	0.7	0.8	0.0	19	31	26	0.0	0.7	0.8	2	0.991	0.000	R	26	0.8	778.520	781.199	782.190	782.192	0
2	22110305	196	High	1.5	Vague	2	31	26	9	0.7	0.8	0.1	31	9	26	0.7	0.1	0.8	2	0.954	0.000	R	26	0.8	782.695	783.868	784.822	784.824	0
2	22110305	197	High	1.5	Vague	2	32	26	6	0.3	0.8	0.0	26	32	6	0.8	0.3	0.0	2	0.780	0.000	L	26	0.8	785.327	786.146	786.926	786.928	0
2	22110305	198	High	1.5	Vague	2	28	33	2	0.3	1.7	0.0	2	28	33	0.0	0.3	1.7	2	0.579	0.000	R	33	1.7	787.431	788.563	789.142	789.144	0
2	22110305	199	High	1.5	Precise	1	28	26	27	0.3	0.8	0.0	28	27	26	0.3	0.0	0.8	2	0.956	0.000	R	26	0.8	789.647	790.474	791.430	791.432	0
2	22110305	200	High	1.5	Precise	1	28	33	20	0.3	1.7	0.2	28	33	20	0.3	1.7	0.2	2	0.579	0.000	D	33	1.7	791.935	793.075	793.654	793.657	0
2	22110305	201	High	1.5	Vague	2	28	32	2	0.3	0.3	0.0	28	2	32	0.3	0.0	0.3	1	0.986	0.001	L	28	0.3	794.160	795.388	796.374	796.376	0
2	22110305	202	High	1.5	Vague	2	32	31	3	0.3	0.7	0.2	3	32	31	0.2	0.3	0.7	2	1.299	0.000	R	31	0.7	796.880	798.387	799.686	799.688	0
2	22110305	203	High	1.5	Precise	1	30	33	27	0.7	1.7	0.0	33	30	27	1.7	0.7	0.0	2	0.829	0.000	L	33	1.7	800.191	802.321	803.150	803.152	0
2	22110305	204	High	1.5	Precise	1	28	31	20	0.3	0.7	0.2	28	31	20	0.3	0.7	0.2	1	1.126	0.000	L	28	0.3	803.655	804.631	805.758	805.760	0
2	22110305	205	High	1.5	Precise	1	28	32	24	0.3	0.3	0.0	28	24	32	0.3	0.0	0.3	1	1.370	0.000	L	28	0.3	806.263	808.188	809.558	809.561	0
2	22110305	206	High	1.5	Precise	1	32	26	22	0.3	0.8	0.0	32	22	26	0.3	0.0	0.8	2	0.934	0.001	R	26	0.8	810.064	811.720	812.654	812.656	0
2	22110305	207	High	1.5	Vague	2	28	31	3	0.3	0.7	0.2	3	28	31	0.2	0.3	0.7	1	0.927	0.000	D	28	0.3	813.159	814.559	815.486	815.488	0
2	22110305	208	High	1.5	Vague	2	32	33	6	0.3	1.7	0.0	6	33	32	0.0	1.7	0.3	2	0.620	0.000	D	33	1.7	815.991	818.098	818.718	818.720	0
2	22110305	209	High	1.5	Precise	1	30	33	22	0.7	1.7	0.0	30	33	22	0.7	1.7	0.0	2	0.594	0.000	D	33	1.7	819.223	820.636	821.230	821.232	0
2	22110305	210	High	1.5	Vague	2	31	33	9	0.7	1.7	0.1	9	33	31	0.1	1.7	0.7	2	0.508	0.000	D	33	1.7	821.735	822.562	823.070	823.072	0
2	22110305	211	High	1.5	Vague	2	28	26	6	0.3	0.8	0.0	26	28	6	0.8	0.3	0.0	2	0.757	0.000	L	26	0.8	823.575	824.361	825.118	825.120	0
2	22110305	212	High	1.5	Vague	2	28	33	3	0.3	1.7	0.2	3	33	28	0.2	1.7	0.3	2	0.507	0.000	D	33	1.7	825.623	826.987	827.494	827.496	0
2	22110305	213	High	1.5	Vague	2	30	33	6	0.7	1.7	0.0	30	33	6	0.7	1.7	0.0	2	0.515	0.000	D	33	1.7	827.999	829.283	829.798	829.800	0
2	22110305	214	High	1.5	Precise	1	32	33	20	0.3	1.7	0.2	32	33	20	0.3	1.7	0.2	2	0.437	0.000	D	33	1.7	830.303	831.449	831.886	831.889	0
2	22110305	215	High	1.5	Precise	1	31	26	20	0.7	0.8	0.2	20	26	31	0.2	0.8	0.7	1	0.777	0.000	R	31	0.7	832.392	834.005	834.782	834.784	0
2	22110305	216	High	1.5	Precise	1	32	31	24	0.3	0.7	0.0	32	24	31	0.3	0.0	0.7	2	1.148	0.001	R	31	0.7	835.287	836.762	837.910	837.912	0
2	22110305	217	High	1.5	Vague	2	30	26	3	0.7	0.8	0.2	3	30	26	0.2	0.7	0.8	1	1.088	0.000	D	30	0.7	838.415	840.494	841.582	841.584	0
2	22110305	218	High	1.5	Precise	1	28	26	35	0.3	0.8	0.0	26	28	35	0.8	0.3	0.0	2	0.926	0.000	L	26	0.8	842.087	843.664	844.590	844.592	0
2	22110305	219	High	1.5	Vague	2	26	33	2	0.8	1.7	0.0	33	26	2	1.7	0.8	0.0	2	0.986	0.000	L	33	1.7	845.095	845.828	846.814	846.816	0
2	22110305	220	High	1.5	Vague	2	28	26	9	0.3	0.8	0.1	26	9	28	0.8	0.1	0.3	2	0.919	0.000	L	26	0.8	847.320	850.271	851.190	851.192	0
2	22110305	221	High	1.5	Precise	1	32	26	27	0.3	0.8	0.0	26	27	32	0.8	0.0	0.3	2	1.096	0.000	L	26	0.8	851.695	853.519	854.614	854.617	0
2	22110305	222	High	1.5	Precise	1	28	32	35	0.3	0.3	0.0	28	35	32	0.3	0.0	0.3	1	1.226	0.000	L	28	0.3	855.120	855.972	857.198	857.200	0
2	22110305	223	High	1.5	Vague	2	30	26	10	0.7	0.8	0.0	30	10	26	0.7	0.0	0.8	1	0.782	0.000	L	30	0.7	857.703	860.120	860.902	860.905	0
2	22110305	224	High	1.5	Precise	1	32	33	22	0.3	1.7	0.0	32	33	22	0.3	1.7	0.0	2	0.679	0.001	D	33	1.7	861.407	862.255	862.934	862.936	0
2	22110305	225	High	1.5	Vague	2	28	30	16	0.3	0.7	0.0	16	30	28	0.0	0.7	0.3	2	0.860	0.000	D	30	0.7	863.440	865.234	866.094	866.096	0
2	22110305	226	High	1.5	Vague	2	26	33	9	0.8	1.7	0.1	33	26	9	1.7	0.8	0.1	2	0.717	0.000	L	33	1.7	866.599	868.073	868.790	868.792	0
2	22110305	227	High	1.5	Precise	1	28	31	22	0.3	0.7	0.0	31	22	28	0.7	0.0	0.3	1	1.061	0.000	R	28	0.3	869.295	870.185	871.246	871.248	0
2	22110305	228	High	1.5	Vague	2	28	26	10	0.3	0.8	0.0	10	28	26	0.0	0.3	0.8	2	0.915	0.000	R	26	0.8	871.751	872.339	873.254	873.256	0
2	22110305	229	High	1.5	Precise	1	30	31	24	0.7	0.7	0.0	24	31	30	0.0	0.7	0.7	1	1.015	0.001	R	30	0.7	873.759	875.063	876.078	876.081	0
2	22110305	230	High	1.5	Precise	1	32	31	35	0.3	0.7	0.0	35	31	32	0.0	0.7	0.3	2	1.071	0.001	D	31	0.7	876.583	878.496	879.566	879.569	0
2	22110305	231	High	1.5	Vague	2	32	30	3	0.3	0.7	0.2	3	30	32	0.2	0.7	0.3	2	1.009	0.000	D	30	0.7	880.072	881.860	882.870	882.872	0
2	22110305	232	High	1.5	Vague	2	30	31	9	0.7	0.7	0.1	9	31	30	0.1	0.7	0.7	1	0.923	0.000	R	30	0.7	883.376	884.162	885.086	885.088	0
2	22110305	233	High	1.5	Vague	2	32	33	2	0.3	1.7	0.0	32	33	2	0.3	1.7	0.0	2	1.135	0.000	D	33	1.7	885.591	887.239	888.374	888.376	0
2	22110305	234	High	1.5	Vague	2	28	26	16	0.3	0.8	0.0	28	26	16	0.3	0.8	0.0	2	1.182	0.001	D	26	0.8	888.878	891.400	892.582	892.585	0
2	22110305	235	High	1.5	Vague	2	28	32	10	0.3	0.3	0.0	10	32	28	0.0	0.3	0.3	NaN	NaN	NaN	NaN	NaN	NaN	893.088	896.005	NaN	897.491	1
2	22110305	236	High	1.5	Vague	2	32	26	9	0.3	0.8	0.1	9	26	32	0.1	0.8	0.3	2	0.940	0.000	D	26	0.8	899.495	901.322	902.262	902.265	0
2	22110305	237	High	1.5	Precise	1	28	32	27	0.3	0.3	0.0	28	27	32	0.3	0.0	0.3	1	1.284	0.001	L	28	0.3	902.768	905.306	906.590	906.593	0
2	22110305	238	High	1.5	Precise	1	28	33	24	0.3	1.7	0.0	33	24	28	1.7	0.0	0.3	2	0.542	0.001	L	33	1.7	907.095	908.112	908.654	908.656	0
2	22110305	239	High	1.5	Precise	1	30	31	35	0.7	0.7	0.0	30	31	35	0.7	0.7	0.0	1	0.708	0.001	L	30	0.7	909.159	911.098	911.806	911.809	0
2	22110305	240	High	1.5	Vague	2	31	33	3	0.7	1.7	0.2	33	3	31	1.7	0.2	0.7	2	0.656	0.001	L	33	1.7	912.311	915.238	915.894	915.897	0
2	22110305	241	High	1.5	Vague	2	26	33	3	0.8	1.7	0.2	33	3	26	1.7	0.2	0.8	2	0.658	0.000	L	33	1.7	921.860	923.940	924.598	924.601	0
2	22110305	242	High	1.5	Vague	2	30	26	9	0.7	0.8	0.1	26	9	30	0.8	0.1	0.7	1	0.666	0.000	R	30	0.7	925.104	926.804	927.470	927.472	0
2	22110305	243	High	1.5	Vague	2	32	30	2	0.3	0.7	0.0	30	2	32	0.7	0.0	0.3	2	0.727	0.000	L	30	0.7	927.976	930.054	930.782	930.784	0
2	22110305	244	High	1.5	Precise	1	32	33	19	0.3	1.7	0.0	19	32	33	0.0	0.3	1.7	2	0.562	0.001	R	33	1.7	931.288	934.220	934.782	934.785	0
2	22110305	245	High	1.5	Vague	2	31	26	16	0.7	0.8	0.0	16	31	26	0.0	0.7	0.8	2	1.011	0.000	R	26	0.8	935.287	937.771	938.782	938.784	0
2	22110305	246	High	1.5	Precise	1	26	33	20	0.8	1.7	0.2	26	20	33	0.8	0.2	1.7	2	0.603	0.000	R	33	1.7	939.287	941.594	942.198	942.200	0
2	22110305	247	High	1.5	Precise	1	30	31	22	0.7	0.7	0.0	31	22	30	0.7	0.0	0.7	1	1.002	0.001	R	30	0.7	942.702	943.796	944.798	944.801	0
2	22110305	248	High	1.5	Precise	1	32	30	27	0.3	0.7	0.0	32	30	27	0.3	0.7	0.0	2	1.042	0.000	D	30	0.7	945.304	946.204	947.246	947.248	0
2	22110305	249	High	1.5	Vague	2	31	33	6	0.7	1.7	0.0	31	6	33	0.7	0.0	1.7	2	0.688	0.000	R	33	1.7	947.751	950.246	950.934	950.936	0
2	22110305	250	High	1.5	Vague	2	32	30	10	0.3	0.7	0.0	30	10	32	0.7	0.0	0.3	2	0.884	0.001	L	30	0.7	951.440	953.578	954.462	954.464	0
2	22110305	251	High	1.5	Vague	2	30	31	6	0.7	0.7	0.0	30	31	6	0.7	0.7	0.0	1	0.598	0.001	L	30	0.7	954.967	957.336	957.934	957.936	0
2	22110305	252	High	1.5	Vague	2	32	33	3	0.3	1.7	0.2	33	32	3	1.7	0.3	0.2	2	0.581	0.001	L	33	1.7	958.439	961.225	961.806	961.809	0
2	22110305	253	High	1.5	Precise	1	28	32	19	0.3	0.3	0.0	32	19	28	0.3	0.0	0.3	1	1.047	0.000	R	28	0.3	962.311	965.279	966.326	966.328	0
2	22110305	254	High	1.5	Precise	1	32	31	27	0.3	0.7	0.0	32	27	31	0.3	0.0	0.7	2	1.254	0.001	R	31	0.7	966.831	967.800	969.054	969.056	0
2	22110305	255	High	1.5	Vague	2	32	31	9	0.3	0.7	0.1	9	31	32	0.1	0.7	0.3	2	1.222	0.000	D	31	0.7	969.560	972.312	973.534	973.537	0
2	22110305	256	High	1.5	Precise	1	28	33	22	0.3	1.7	0.0	28	33	22	0.3	1.7	0.0	2	0.783	0.000	D	33	1.7	974.039	975.119	975.902	975.904	0
2	22110305	257	High	1.5	Vague	2	32	33	16	0.3	1.7	0.0	32	16	33	0.3	0.0	1.7	2	0.652	0.000	R	33	1.7	976.407	977.450	978.102	978.104	0
2	22110305	258	High	1.5	Precise	1	28	26	22	0.3	0.8	0.0	28	22	26	0.3	0.0	0.8	2	0.921	0.000	R	26	0.8	978.608	981.509	982.430	982.432	0
2	22110305	259	High	1.5	Vague	2	30	26	6	0.7	0.8	0.0	6	26	30	0.0	0.8	0.7	1	0.825	0.001	R	30	0.7	982.935	983.677	984.502	984.504	0
2	22110305	260	High	1.5	Vague	2	28	30	3	0.3	0.7	0.2	28	3	30	0.3	0.2	0.7	2	1.101	0.000	R	30	0.7	985.008	986.937	988.038	988.040	0
2	22110305	261	High	1.5	Vague	2	31	26	6	0.7	0.8	0.0	31	6	26	0.7	0.0	0.8	2	1.184	0.000	R	26	0.8	988.544	990.350	991.534	991.536	0
2	22110305	262	High	1.5	Precise	1	26	33	35	0.8	1.7	0.0	35	33	26	0.0	1.7	0.8	2	1.153	0.001	D	33	1.7	992.039	994.069	995.222	995.224	0
2	22110305	263	High	1.5	Precise	1	31	33	19	0.7	1.7	0.0	19	33	31	0.0	1.7	0.7	2	0.671	0.000	D	33	1.7	995.728	997.758	998.430	998.432	0
2	22110305	264	High	1.5	Precise	1	30	33	24	0.7	1.7	0.0	33	24	30	1.7	0.0	0.7	2	1.075	0.000	L	33	1.7	998.935	999.483	1000.558	1000.560	0
2	22110305	265	High	1.5	Precise	1	31	33	27	0.7	1.7	0.0	31	27	33	0.7	0.0	1.7	2	0.613	0.000	R	33	1.7	1001.063	1002.297	1002.910	1002.912	0
2	22110305	266	High	1.5	Precise	1	32	33	35	0.3	1.7	0.0	35	32	33	0.0	0.3	1.7	2	0.584	0.000	R	33	1.7	1003.415	1004.830	1005.414	1005.416	0
2	22110305	267	High	1.5	Precise	1	28	30	27	0.3	0.7	0.0	28	27	30	0.3	0.0	0.7	2	0.716	0.000	R	30	0.7	1005.919	1008.778	1009.494	1009.496	0
2	22110305	268	High	1.5	Precise	1	31	26	24	0.7	0.8	0.0	24	26	31	0.0	0.8	0.7	1	0.732	0.000	R	31	0.7	1010.000	1011.674	1012.406	1012.408	0
2	22110305	269	High	1.5	Precise	1	30	26	27	0.7	0.8	0.0	30	26	27	0.7	0.8	0.0	2	0.915	0.000	D	26	0.8	1012.911	1015.123	1016.038	1016.040	0
2	22110305	270	High	1.5	Precise	1	28	30	22	0.3	0.7	0.0	22	28	30	0.0	0.3	0.7	2	0.857	0.001	R	30	0.7	1016.543	1018.286	1019.142	1019.145	0
2	22110305	271	High	1.5	Precise	1	31	33	24	0.7	1.7	0.0	31	24	33	0.7	0.0	1.7	2	0.770	0.000	R	33	1.7	1019.647	1021.635	1022.406	1022.408	0
2	22110305	272	High	1.5	Vague	2	32	33	10	0.3	1.7	0.0	10	33	32	0.0	1.7	0.3	2	0.757	0.001	D	33	1.7	1022.912	1025.833	1026.590	1026.593	0
2	22110305	273	High	1.5	Precise	1	32	26	19	0.3	0.8	0.0	19	32	26	0.0	0.3	0.8	2	1.227	0.001	R	26	0.8	1027.096	1029.227	1030.454	1030.457	0
2	22110305	274	High	1.5	Precise	1	32	30	20	0.3	0.7	0.2	30	32	20	0.7	0.3	0.2	2	1.341	0.000	L	30	0.7	1030.959	1032.561	1033.902	1033.904	0
2	22110305	275	High	1.5	Vague	2	28	32	3	0.3	0.3	0.2	28	32	3	0.3	0.3	0.2	2	0.982	0.000	D	32	0.3	1034.407	1035.736	1036.718	1036.720	0
2	22110305	276	High	1.5	Vague	2	28	32	16	0.3	0.3	0.0	16	32	28	0.0	0.3	0.3	1	1.145	0.000	R	28	0.3	1037.223	1038.525	1039.670	1039.672	0
2	22110305	277	High	1.5	Vague	2	28	31	6	0.3	0.7	0.0	31	6	28	0.7	0.0	0.3	2	1.116	0.000	L	31	0.7	1040.176	1042.097	1043.214	1043.216	0
2	22110305	278	High	1.5	Vague	2	32	26	10	0.3	0.8	0.0	26	32	10	0.8	0.3	0.0	2	1.186	0.000	L	26	0.8	1043.720	1045.692	1046.878	1046.880	0
2	22110305	279	High	1.5	Vague	2	32	30	6	0.3	0.7	0.0	6	32	30	0.0	0.3	0.7	2	0.596	0.001	R	30	0.7	1047.383	1050.066	1050.662	1050.664	0
2	22110305	280	High	1.5	Precise	1	32	26	24	0.3	0.8	0.0	26	32	24	0.8	0.3	0.0	2	1.074	0.001	L	26	0.8	1051.168	1053.644	1054.718	1054.721	0
2	22110305	281	High	1.5	Precise	1	28	30	24	0.3	0.7	0.0	30	24	28	0.7	0.0	0.3	2	0.682	0.000	L	30	0.7	1055.224	1057.044	1057.726	1057.728	0
2	22110305	282	High	1.5	Vague	2	26	33	6	0.8	1.7	0.0	26	33	6	0.8	1.7	0.0	1	0.934	0.001	L	26	0.8	1058.232	1060.824	1061.758	1061.761	0
2	22110305	283	High	1.5	Vague	2	32	31	2	0.3	0.7	0.0	32	2	31	0.3	0.0	0.7	2	1.124	0.000	R	31	0.7	1062.263	1063.746	1064.870	1064.872	0
2	22110305	284	High	1.5	Precise	1	28	26	19	0.3	0.8	0.0	28	26	19	0.3	0.8	0.0	1	1.113	0.000	L	28	0.3	1065.376	1068.061	1069.174	1069.176	0
2	22110305	285	High	1.5	Precise	1	26	33	19	0.8	1.7	0.0	26	33	19	0.8	1.7	0.0	2	0.645	0.001	D	33	1.7	1069.679	1072.432	1073.078	1073.080	0
2	22110305	286	High	1.5	Vague	2	30	31	2	0.7	0.7	0.0	31	2	30	0.7	0.0	0.7	1	0.754	0.000	R	30	0.7	1073.583	1075.164	1075.918	1075.920	0
2	22110305	287	High	1.5	Vague	2	28	30	6	0.3	0.7	0.0	28	30	6	0.3	0.7	0.0	2	0.654	0.001	D	30	0.7	1076.424	1078.408	1079.062	1079.065	0
2	22110305	288	High	1.5	Precise	1	31	26	22	0.7	0.8	0.0	22	31	26	0.0	0.7	0.8	2	1.206	0.000	R	26	0.8	1079.568	1081.352	1082.558	1082.561	0
2	22110305	289	High	1.5	Precise	1	32	30	19	0.3	0.7	0.0	30	32	19	0.7	0.3	0.0	2	1.161	0.001	L	30	0.7	1083.064	1083.877	1085.038	1085.040	0
2	22110305	290	High	1.5	Vague	2	32	31	10	0.3	0.7	0.0	31	32	10	0.7	0.3	0.0	NaN	NaN	NaN	NaN	NaN	NaN	1085.544	1086.962	NaN	1088.451	1
2	22110305	291	High	1.5	Precise	1	30	31	19	0.7	0.7	0.0	30	31	19	0.7	0.7	0.0	1	1.144	0.000	L	30	0.7	1090.453	1093.054	1094.198	1094.201	0
2	22110305	292	High	1.5	Precise	1	30	26	22	0.7	0.8	0.0	22	30	26	0.0	0.7	0.8	1	0.810	0.000	D	30	0.7	1094.703	1096.212	1097.022	1097.024	0
2	22110305	293	High	1.5	Precise	1	28	32	20	0.3	0.3	0.2	28	32	20	0.3	0.3	0.2	1	1.204	0.000	L	28	0.3	1097.528	1098.609	1099.814	1099.816	0
2	22110305	294	High	1.5	Precise	1	32	31	19	0.3	0.7	0.0	32	31	19	0.3	0.7	0.0	2	1.261	0.001	D	31	0.7	1100.319	1100.865	1102.126	1102.128	0
2	22110305	295	High	1.5	Vague	2	30	33	10	0.7	1.7	0.0	10	30	33	0.0	0.7	1.7	2	0.724	0.000	R	33	1.7	1102.632	1103.265	1103.990	1103.992	0
2	22110305	296	High	1.5	Precise	1	30	26	20	0.7	0.8	0.2	20	26	30	0.2	0.8	0.7	1	0.715	0.000	R	30	0.7	1104.495	1106.675	1107.390	1107.392	0
2	22110305	297	High	1.5	Vague	2	32	31	16	0.3	0.7	0.0	16	31	32	0.0	0.7	0.3	2	0.844	0.000	D	31	0.7	1107.895	1110.474	1111.318	1111.320	0
2	22110305	298	High	1.5	Precise	1	31	26	35	0.7	0.8	0.0	26	35	31	0.8	0.0	0.7	1	0.900	0.000	R	31	0.7	1111.824	1114.746	1115.646	1115.648	0
2	22110305	299	High	1.5	Precise	1	28	33	19	0.3	1.7	0.0	19	28	33	0.0	0.3	1.7	2	0.586	0.000	R	33	1.7	1116.151	1118.324	1118.910	1118.912	0
2	22110305	300	High	1.5	Precise	1	30	26	19	0.7	0.8	0.0	26	30	19	0.8	0.7	0.0	1	0.684	0.000	D	30	0.7	1119.416	1122.322	1123.006	1123.009	0
2	22110305	301	High	1.5	Precise	1	30	31	20	0.7	0.7	0.2	20	30	31	0.2	0.7	0.7	NaN	NaN	NaN	NaN	NaN	NaN	1161.017	1163.257	NaN	1164.746	1
2	22110305	302	High	1.5	Vague	2	30	26	16	0.7	0.8	0.0	30	16	26	0.7	0.0	0.8	1	0.812	0.000	L	30	0.7	1166.749	1168.626	1169.438	1169.441	0
2	22110305	303	High	1.5	Vague	2	26	33	16	0.8	1.7	0.0	33	16	26	1.7	0.0	0.8	2	0.784	0.001	L	33	1.7	1169.945	1172.302	1173.086	1173.089	0
2	22110305	304	High	1.5	Precise	1	28	32	22	0.3	0.3	0.0	28	32	22	0.3	0.3	0.0	1	1.158	0.000	L	28	0.3	1173.592	1175.496	1176.654	1176.657	0
2	22110305	305	High	1.5	Precise	1	30	31	27	0.7	0.7	0.0	31	27	30	0.7	0.0	0.7	1	1.093	0.000	R	30	0.7	1177.159	1178.889	1179.982	1179.984	0
2	22110305	306	High	1.5	Vague	2	28	26	3	0.3	0.8	0.2	26	3	28	0.8	0.2	0.3	2	1.265	0.000	L	26	0.8	1180.487	1181.197	1182.462	1182.465	0
2	22110305	307	High	1.5	Vague	2	30	26	2	0.7	0.8	0.0	30	26	2	0.7	0.8	0.0	1	0.793	0.000	L	30	0.7	1182.967	1184.652	1185.446	1185.448	0
2	22110305	308	High	1.5	Precise	1	28	31	35	0.3	0.7	0.0	31	28	35	0.7	0.3	0.0	NaN	NaN	NaN	NaN	NaN	NaN	1185.951	1187.083	NaN	1188.570	1
2	22110305	309	High	1.5	Precise	1	26	33	24	0.8	1.7	0.0	26	24	33	0.8	0.0	1.7	2	0.712	0.000	R	33	1.7	1190.573	1192.709	1193.422	1193.424	0
2	22110305	310	High	1.5	Vague	2	32	26	16	0.3	0.8	0.0	16	26	32	0.0	0.8	0.3	2	0.917	0.001	D	26	0.8	1193.927	1195.417	1196.334	1196.336	0
2	22110305	311	High	1.5	Vague	2	32	31	6	0.3	0.7	0.0	31	32	6	0.7	0.3	0.0	2	0.982	0.000	L	31	0.7	1196.840	1198.896	1199.878	1199.880	0
2	22110305	312	High	1.5	Vague	2	28	31	10	0.3	0.7	0.0	28	31	10	0.3	0.7	0.0	2	1.058	0.000	D	31	0.7	1200.384	1202.276	1203.334	1203.336	0
2	22110305	313	High	1.5	Vague	2	31	26	3	0.7	0.8	0.2	3	26	31	0.2	0.8	0.7	1	1.027	0.000	R	31	0.7	1203.839	1205.122	1206.150	1206.152	0
2	22110305	314	High	1.5	Precise	1	28	30	19	0.3	0.7	0.0	28	19	30	0.3	0.0	0.7	2	1.117	0.001	R	30	0.7	1206.655	1208.394	1209.510	1209.513	0
2	22110305	315	High	1.5	Vague	2	30	33	16	0.7	1.7	0.0	33	16	30	1.7	0.0	0.7	2	0.606	0.000	L	33	1.7	1210.016	1212.897	1213.502	1213.504	0
2	22110305	316	High	1.5	Precise	1	28	33	27	0.3	1.7	0.0	28	27	33	0.3	0.0	1.7	2	1.004	0.000	R	33	1.7	1214.007	1215.129	1216.134	1216.136	0
2	22110305	317	High	1.5	Precise	1	32	31	20	0.3	0.7	0.2	31	32	20	0.7	0.3	0.2	2	0.804	0.000	L	31	0.7	1216.639	1218.514	1219.318	1219.320	0
2	22110305	318	High	1.5	Vague	2	28	31	16	0.3	0.7	0.0	16	31	28	0.0	0.7	0.3	2	1.264	0.001	D	31	0.7	1219.823	1220.886	1222.150	1222.152	0
2	22110305	319	High	1.5	Precise	1	28	31	27	0.3	0.7	0.0	31	27	28	0.7	0.0	0.3	2	1.177	0.000	L	31	0.7	1222.655	1225.380	1226.558	1226.560	0
2	22110305	320	High	1.5	Precise	1	30	26	24	0.7	0.8	0.0	30	24	26	0.7	0.0	0.8	1	0.960	0.000	L	30	0.7	1227.064	1227.750	1228.710	1228.712	0
2	22110305	321	High	1.5	Vague	2	32	26	3	0.3	0.8	0.2	32	3	26	0.3	0.2	0.8	2	1.186	0.000	R	26	0.8	1229.216	1231.484	1232.670	1232.672	0
2	22110305	322	High	1.5	Vague	2	28	26	2	0.3	0.8	0.0	26	2	28	0.8	0.0	0.3	NaN	NaN	NaN	NaN	NaN	NaN	1233.175	1234.395	NaN	1235.881	1
2	22110305	323	High	1.5	Precise	1	28	30	20	0.3	0.7	0.2	28	30	20	0.3	0.7	0.2	2	0.717	0.001	D	30	0.7	1237.884	1240.177	1240.894	1240.896	0
2	22110305	324	High	1.5	Precise	1	30	33	35	0.7	1.7	0.0	33	30	35	1.7	0.7	0.0	1	1.349	0.000	D	30	0.7	1241.399	1242.241	1243.590	1243.592	0
2	22110305	325	High	1.5	Precise	1	31	33	20	0.7	1.7	0.2	20	31	33	0.2	0.7	1.7	2	0.975	0.001	R	33	1.7	1244.096	1245.295	1246.270	1246.273	0
2	22110305	326	High	1.5	Precise	1	32	33	27	0.3	1.7	0.0	32	27	33	0.3	0.0	1.7	2	0.557	0.001	R	33	1.7	1246.775	1249.290	1249.846	1249.849	0
2	22110305	327	High	1.5	Precise	1	28	26	24	0.3	0.8	0.0	28	24	26	0.3	0.0	0.8	2	0.976	0.000	R	26	0.8	1250.352	1252.710	1253.686	1253.688	0
2	22110305	328	High	1.5	Precise	1	28	30	35	0.3	0.7	0.0	30	35	28	0.7	0.0	0.3	2	1.367	0.000	L	30	0.7	1254.191	1256.038	1257.406	1257.408	0
2	22110305	329	High	1.5	Vague	2	28	32	6	0.3	0.3	0.0	6	32	28	0.0	0.3	0.3	1	1.046	0.001	R	28	0.3	1257.912	1259.728	1260.774	1260.777	0
2	22110305	330	High	1.5	Precise	1	32	30	35	0.3	0.7	0.0	32	30	35	0.3	0.7	0.0	2	0.880	0.001	D	30	0.7	1261.279	1263.782	1264.662	1264.664	0
2	22110305	331	High	1.5	Precise	1	32	31	22	0.3	0.7	0.0	31	22	32	0.7	0.0	0.3	NaN	NaN	NaN	NaN	NaN	NaN	1265.167	1266.795	NaN	1268.281	1
2	22110305	332	High	1.5	Vague	2	28	33	6	0.3	1.7	0.0	6	28	33	0.0	0.3	1.7	2	0.571	0.000	R	33	1.7	1270.284	1272.170	1272.742	1272.744	0
2	22110305	333	High	1.5	Precise	1	28	33	35	0.3	1.7	0.0	35	33	28	0.0	1.7	0.3	2	0.710	0.000	D	33	1.7	1273.247	1276.200	1276.910	1276.912	0
2	22110305	334	High	1.5	Precise	1	32	30	24	0.3	0.7	0.0	32	30	24	0.3	0.7	0.0	2	0.851	0.000	D	30	0.7	1277.416	1278.219	1279.070	1279.072	0
2	22110305	335	High	1.5	Precise	1	28	31	24	0.3	0.7	0.0	28	31	24	0.3	0.7	0.0	2	0.855	0.001	D	31	0.7	1279.576	1281.583	1282.438	1282.441	0
2	22110305	336	High	1.5	Vague	2	28	33	10	0.3	1.7	0.0	28	10	33	0.3	0.0	1.7	2	0.793	0.000	R	33	1.7	1282.944	1284.173	1284.966	1284.968	0
2	22110305	337	High	1.5	Vague	2	28	30	2	0.3	0.7	0.0	30	28	2	0.7	0.3	0.0	2	0.811	0.000	L	30	0.7	1285.471	1286.131	1286.942	1286.944	0
2	22110305	338	High	1.5	Vague	2	32	33	9	0.3	1.7	0.1	9	32	33	0.1	0.3	1.7	2	0.522	0.000	R	33	1.7	1287.447	1290.101	1290.622	1290.624	0
2	22110305	339	High	1.5	Precise	1	31	26	27	0.7	0.8	0.0	27	31	26	0.0	0.7	0.8	2	1.320	0.000	R	26	0.8	1291.127	1291.894	1293.214	1293.216	0
2	22110305	340	High	1.5	Vague	2	30	33	9	0.7	1.7	0.1	9	30	33	0.1	0.7	1.7	2	0.599	0.000	R	33	1.7	1293.720	1295.247	1295.846	1295.848	0
2	22110305	341	High	1.5	Vague	2	26	33	10	0.8	1.7	0.0	10	33	26	0.0	1.7	0.8	2	0.525	0.001	D	33	1.7	1296.351	1298.697	1299.222	1299.225	0
2	22110305	342	High	1.5	Vague	2	30	31	3	0.7	0.7	0.2	30	31	3	0.7	0.7	0.2	1	0.903	0.001	L	30	0.7	1299.727	1301.655	1302.558	1302.561	0
2	22110305	343	High	1.5	Vague	2	31	26	2	0.7	0.8	0.0	2	26	31	0.0	0.8	0.7	1	1.024	0.001	R	31	0.7	1303.063	1304.878	1305.902	1305.905	0
2	22110305	344	High	1.5	Precise	1	28	26	20	0.3	0.8	0.2	20	28	26	0.2	0.3	0.8	2	1.149	0.000	R	26	0.8	1306.408	1308.353	1309.502	1309.504	0
2	22110305	345	High	1.5	Vague	2	28	32	9	0.3	0.3	0.1	28	32	9	0.3	0.3	0.1	1	1.263	0.001	L	28	0.3	1310.007	1312.471	1313.734	1313.736	0
2	22110305	346	High	1.5	Precise	1	32	33	24	0.3	1.7	0.0	32	24	33	0.3	0.0	1.7	2	0.614	0.000	R	33	1.7	1314.239	1315.344	1315.958	1315.961	0
2	22110305	347	High	1.5	Precise	1	26	33	22	0.8	1.7	0.0	33	22	26	1.7	0.0	0.8	2	0.581	0.001	L	33	1.7	1316.463	1317.953	1318.534	1318.536	0
2	22110305	348	High	1.5	Vague	2	31	33	2	0.7	1.7	0.0	2	33	31	0.0	1.7	0.7	2	0.679	0.000	D	33	1.7	1319.040	1320.711	1321.390	1321.392	0
2	22110305	349	High	1.5	Vague	2	28	30	9	0.3	0.7	0.1	28	9	30	0.3	0.1	0.7	2	0.665	0.000	R	30	0.7	1321.895	1324.660	1325.326	1325.328	0
2	22110305	350	High	1.5	Precise	1	32	30	22	0.3	0.7	0.0	22	32	30	0.0	0.3	0.7	2	0.711	0.000	R	30	0.7	1325.831	1328.374	1329.086	1329.088	0
2	22110305	351	High	1.5	Precise	1	32	26	35	0.3	0.8	0.0	35	26	32	0.0	0.8	0.3	2	1.060	0.000	D	26	0.8	1329.591	1331.570	1332.630	1332.633	0
2	22110305	352	High	1.5	Vague	2	32	26	2	0.3	0.8	0.0	26	32	2	0.8	0.3	0.0	2	0.979	0.000	L	26	0.8	1333.136	1335.203	1336.182	1336.184	0
2	22110305	353	High	1.5	Precise	1	32	26	20	0.3	0.8	0.2	26	32	20	0.8	0.3	0.2	2	1.070	0.000	L	26	0.8	1336.686	1338.632	1339.702	1339.705	0
2	22110305	354	High	1.5	Vague	2	30	31	16	0.7	0.7	0.0	30	16	31	0.7	0.0	0.7	1	0.700	0.001	L	30	0.7	1340.208	1342.538	1343.238	1343.240	0
2	22110305	355	High	1.5	Vague	2	31	26	10	0.7	0.8	0.0	31	10	26	0.7	0.0	0.8	2	1.339	0.001	R	26	0.8	1343.743	1344.523	1345.862	1345.864	0
2	22110305	356	High	1.5	Precise	1	30	33	19	0.7	1.7	0.0	30	33	19	0.7	1.7	0.0	2	0.615	0.000	D	33	1.7	1346.367	1348.768	1349.382	1349.385	0
2	22110305	357	High	1.5	Vague	2	30	31	10	0.7	0.7	0.0	30	31	10	0.7	0.7	0.0	1	1.109	0.000	L	30	0.7	1349.888	1351.745	1352.854	1352.856	0
2	22110305	358	High	1.5	Vague	2	32	30	9	0.3	0.7	0.1	32	30	9	0.3	0.7	0.1	2	0.647	0.001	D	30	0.7	1353.359	1355.535	1356.182	1356.185	0
2	22110305	359	High	1.5	Vague	2	30	33	2	0.7	1.7	0.0	2	33	30	0.0	1.7	0.7	2	0.531	0.000	D	33	1.7	1356.687	1358.931	1359.462	1359.464	0
2	22110305	360	High	1.5	Precise	1	28	31	19	0.3	0.7	0.0	31	28	19	0.7	0.3	0.0	2	0.867	0.001	L	31	0.7	1359.967	1362.851	1363.718	1363.721	0
