Group	subID	trial	TimePressure	TimeConstraint	Vagueness	Vaguenesscode	ID1	ID2	ID3	V1	V2	V3	ID_left	ID_middle	ID_right	Bid_left	Bid_middle	Bid_right	chosenItem	RT	RTvariance	chosenPosition	chosenID	chosenValue	fixation_time	option_time	choice_time	feedback_time	timeout
1	22102504	1	High	1.5	Vague	2	13	17	30	5.0	9.0	0.9	17	30	13	9.0	0.9	5.0	1	1.078	0.000	R	13	5.0	9.661	11.066	12.144	12.147	0
1	22102504	2	High	1.5	Vague	2	10	13	29	5.0	5.0	1.2	29	10	13	1.2	5.0	5.0	1	1.149	0.000	D	10	5.0	12.652	15.026	16.176	16.179	0
1	22102504	3	High	1.5	Vague	2	14	17	29	3.6	9.0	1.2	29	17	14	1.2	9.0	3.6	NaN	NaN	NaN	NaN	NaN	NaN	16.725	17.633	NaN	19.124	1
1	22102504	4	High	1.5	Precise	1	10	13	11	5.0	5.0	2.0	10	13	11	5.0	5.0	2.0	3	0.983	0.000	R	11	2.0	21.129	23.064	24.048	24.051	0
1	22102504	5	High	1.5	Precise	1	14	8	5	3.6	4.4	0.5	8	14	5	4.4	3.6	0.5	1	0.950	0.001	D	14	3.6	24.555	27.306	28.256	28.260	0
1	22102504	6	High	1.5	Vague	2	8	17	23	4.4	9.0	0.6	8	17	23	4.4	9.0	0.6	1	1.009	0.000	L	8	4.4	28.766	29.991	30.999	31.003	0
1	22102504	7	High	1.5	Precise	1	14	17	5	3.6	9.0	0.5	14	17	5	3.6	9.0	0.5	2	0.822	0.001	D	17	9.0	31.505	33.137	33.960	33.962	0
1	22102504	8	High	1.5	Precise	1	8	13	12	4.4	5.0	0.9	8	13	12	4.4	5.0	0.9	1	0.944	0.001	L	8	4.4	34.465	35.032	35.976	35.979	0
1	22102504	9	High	1.5	Vague	2	8	10	19	4.4	5.0	0.4	8	10	19	4.4	5.0	0.4	2	0.951	0.000	D	10	5.0	36.482	38.305	39.255	39.258	0
1	22102504	10	High	1.5	Precise	1	13	17	7	5.0	9.0	0.5	13	7	17	5.0	0.5	9.0	2	0.986	0.001	R	17	9.0	39.761	41.038	42.024	42.026	0
1	22102504	11	High	1.5	Vague	2	10	17	34	5.0	9.0	0.8	34	17	10	0.8	9.0	5.0	1	0.803	0.000	R	10	5.0	42.529	43.900	44.703	44.707	0
1	22102504	12	High	1.5	Vague	2	8	13	30	4.4	5.0	0.9	30	8	13	0.9	4.4	5.0	1	1.426	0.001	D	8	4.4	45.209	46.662	48.088	48.090	0
1	22102504	13	High	1.5	Vague	2	14	10	29	3.6	5.0	1.2	14	10	29	3.6	5.0	1.2	2	0.749	0.001	D	10	5.0	48.593	49.667	50.416	50.418	0
1	22102504	14	High	1.5	Precise	1	10	13	7	5.0	5.0	0.5	10	13	7	5.0	5.0	0.5	1	1.375	0.000	L	10	5.0	50.921	53.504	54.879	54.882	0
1	22102504	15	High	1.5	Vague	2	8	10	34	4.4	5.0	0.8	8	10	34	4.4	5.0	0.8	2	0.945	0.000	D	10	5.0	55.385	56.774	57.720	57.722	0
1	22102504	16	High	1.5	Vague	2	14	17	34	3.6	9.0	0.8	14	34	17	3.6	0.8	9.0	2	1.196	0.001	R	17	9.0	58.225	60.668	61.864	61.866	0
1	22102504	17	High	1.5	Vague	2	16	17	34	6.7	9.0	0.8	16	17	34	6.7	9.0	0.8	2	0.770	0.001	D	17	9.0	62.369	64.781	65.552	65.554	0
1	22102504	18	High	1.5	Vague	2	14	8	34	3.6	4.4	0.8	34	14	8	0.8	3.6	4.4	2	0.963	0.000	R	8	4.4	66.057	67.660	68.623	68.626	0
1	22102504	19	High	1.5	Precise	1	8	10	2	4.4	5.0	0.5	8	2	10	4.4	0.5	5.0	2	1.258	0.001	R	10	5.0	69.129	70.118	71.376	71.378	0
1	22102504	20	High	1.5	Precise	1	8	16	2	4.4	6.7	0.5	16	2	8	6.7	0.5	4.4	1	0.953	0.001	R	8	4.4	71.881	73.919	74.872	74.874	0
1	22102504	21	High	1.5	Precise	1	14	16	11	3.6	6.7	2.0	16	11	14	6.7	2.0	3.6	1	0.932	0.001	R	14	3.6	75.377	78.020	78.952	78.954	0
1	22102504	22	High	1.5	Precise	1	16	17	4	6.7	9.0	2.9	4	17	16	2.9	9.0	6.7	2	1.283	0.001	D	17	9.0	79.457	82.253	83.536	83.538	0
1	22102504	23	High	1.5	Precise	1	8	16	11	4.4	6.7	2.0	16	11	8	6.7	2.0	4.4	1	0.813	0.001	R	8	4.4	84.041	86.811	87.624	87.626	0
1	22102504	24	High	1.5	Vague	2	16	17	29	6.7	9.0	1.2	29	17	16	1.2	9.0	6.7	2	0.828	0.001	D	17	9.0	88.129	90.212	91.040	91.042	0
1	22102504	25	High	1.5	Vague	2	8	13	23	4.4	5.0	0.6	13	8	23	5.0	4.4	0.6	1	0.736	0.000	D	8	4.4	91.545	92.336	93.071	93.074	0
1	22102504	26	High	1.5	Precise	1	10	17	2	5.0	9.0	0.5	17	2	10	9.0	0.5	5.0	2	0.928	0.000	L	17	9.0	93.577	95.272	96.199	96.202	0
1	22102504	27	High	1.5	Vague	2	8	16	19	4.4	6.7	0.4	8	16	19	4.4	6.7	0.4	2	1.338	0.001	D	16	6.7	96.704	97.382	98.720	98.722	0
1	22102504	28	High	1.5	Vague	2	13	17	20	5.0	9.0	0.7	20	17	13	0.7	9.0	5.0	3	0.746	0.000	L	20	0.7	99.225	100.613	101.359	101.363	0
1	22102504	29	High	1.5	Precise	1	8	10	7	4.4	5.0	0.5	10	8	7	5.0	4.4	0.5	2	0.910	0.000	L	10	5.0	101.865	102.769	103.680	103.682	0
1	22102504	30	High	1.5	Precise	1	14	17	11	3.6	9.0	2.0	11	14	17	2.0	3.6	9.0	2	0.919	0.001	R	17	9.0	104.185	105.545	106.464	106.466	0
1	22102504	31	High	1.5	Vague	2	10	13	30	5.0	5.0	0.9	13	10	30	5.0	5.0	0.9	1	0.843	0.000	D	10	5.0	106.968	108.189	109.032	109.034	0
1	22102504	32	High	1.5	Precise	1	8	13	2	4.4	5.0	0.5	13	8	2	5.0	4.4	0.5	1	1.127	0.001	D	8	4.4	109.537	110.369	111.496	111.498	0
1	22102504	33	High	1.5	Precise	1	14	10	2	3.6	5.0	0.5	2	14	10	0.5	3.6	5.0	2	0.793	0.001	R	10	5.0	112.001	113.366	114.160	114.162	0
1	22102504	34	High	1.5	Precise	1	16	17	5	6.7	9.0	0.5	17	5	16	9.0	0.5	6.7	1	0.916	0.001	R	16	6.7	114.665	115.459	116.376	116.378	0
1	22102504	35	High	1.5	Vague	2	10	17	29	5.0	9.0	1.2	17	10	29	9.0	5.0	1.2	2	0.592	0.001	L	17	9.0	116.880	119.152	119.744	119.746	0
1	22102504	36	High	1.5	Vague	2	8	10	30	4.4	5.0	0.9	8	10	30	4.4	5.0	0.9	2	0.761	0.001	D	10	5.0	120.248	120.927	121.688	121.690	0
1	22102504	37	High	1.5	Precise	1	8	16	4	4.4	6.7	2.9	16	8	4	6.7	4.4	2.9	3	1.104	0.001	R	4	2.9	122.193	124.968	126.072	126.074	0
1	22102504	38	High	1.5	Vague	2	8	10	20	4.4	5.0	0.7	10	8	20	5.0	4.4	0.7	2	0.740	0.000	L	10	5.0	126.578	128.651	129.391	129.394	0
1	22102504	39	High	1.5	Vague	2	13	17	19	5.0	9.0	0.4	13	17	19	5.0	9.0	0.4	2	0.826	0.000	D	17	9.0	129.897	132.798	133.623	133.626	0
1	22102504	40	High	1.5	Precise	1	13	17	11	5.0	9.0	2.0	17	11	13	9.0	2.0	5.0	2	0.687	0.001	L	17	9.0	134.129	135.841	136.528	136.530	0
1	22102504	41	High	1.5	Vague	2	14	13	19	3.6	5.0	0.4	19	14	13	0.4	3.6	5.0	2	0.863	0.000	R	13	5.0	137.032	138.401	139.264	139.266	0
1	22102504	42	High	1.5	Precise	1	8	17	7	4.4	9.0	0.5	8	7	17	4.4	0.5	9.0	2	1.072	0.000	R	17	9.0	139.769	142.359	143.431	143.434	0
1	22102504	43	High	1.5	Vague	2	14	13	29	3.6	5.0	1.2	14	29	13	3.6	1.2	5.0	1	1.215	0.001	L	14	3.6	143.936	145.153	146.368	146.370	0
1	22102504	44	High	1.5	Precise	1	14	13	12	3.6	5.0	0.9	14	13	12	3.6	5.0	0.9	2	1.025	0.000	D	13	5.0	146.873	147.887	148.912	148.914	0
1	22102504	45	High	1.5	Precise	1	10	16	12	5.0	6.7	0.9	16	10	12	6.7	5.0	0.9	1	0.995	0.001	D	10	5.0	149.416	152.084	153.080	153.082	0
1	22102504	46	High	1.5	Precise	1	14	10	7	3.6	5.0	0.5	14	7	10	3.6	0.5	5.0	2	0.717	0.000	R	10	5.0	153.585	156.002	156.720	156.722	0
1	22102504	47	High	1.5	Precise	1	10	16	5	5.0	6.7	0.5	16	5	10	6.7	0.5	5.0	1	0.766	0.001	R	10	5.0	157.225	159.081	159.848	159.850	0
1	22102504	48	High	1.5	Vague	2	14	17	19	3.6	9.0	0.4	17	19	14	9.0	0.4	3.6	2	1.183	0.001	L	17	9.0	160.353	161.824	163.008	163.010	0
1	22102504	49	High	1.5	Vague	2	14	16	20	3.6	6.7	0.7	20	14	16	0.7	3.6	6.7	1	1.060	0.001	D	14	3.6	163.513	164.548	165.608	165.610	0
1	22102504	50	High	1.5	Precise	1	10	13	5	5.0	5.0	0.5	10	13	5	5.0	5.0	0.5	1	0.688	0.000	L	10	5.0	166.113	166.959	167.647	167.650	0
1	22102504	51	High	1.5	Vague	2	8	16	30	4.4	6.7	0.9	30	16	8	0.9	6.7	4.4	2	1.049	0.001	D	16	6.7	168.152	168.695	169.744	169.746	0
1	22102504	52	High	1.5	Vague	2	14	16	23	3.6	6.7	0.6	23	14	16	0.6	3.6	6.7	2	0.918	0.000	R	16	6.7	170.249	171.089	172.007	172.010	0
1	22102504	53	High	1.5	Vague	2	14	16	34	3.6	6.7	0.8	16	34	14	6.7	0.8	3.6	2	0.726	0.001	L	16	6.7	172.512	173.057	173.784	173.786	0
1	22102504	54	High	1.5	Vague	2	10	16	23	5.0	6.7	0.6	23	16	10	0.6	6.7	5.0	1	0.828	0.000	R	10	5.0	174.288	177.196	178.023	178.026	0
1	22102504	55	High	1.5	Precise	1	13	17	5	5.0	9.0	0.5	17	5	13	9.0	0.5	5.0	2	0.759	0.000	L	17	9.0	178.529	180.656	181.415	181.418	0
1	22102504	56	High	1.5	Precise	1	14	16	2	3.6	6.7	0.5	16	2	14	6.7	0.5	3.6	2	1.026	0.001	L	16	6.7	181.922	182.550	183.576	183.578	0
1	22102504	57	High	1.5	Precise	1	16	17	2	6.7	9.0	0.5	2	16	17	0.5	6.7	9.0	2	0.600	0.001	R	17	9.0	184.081	186.479	187.080	187.082	0
1	22102504	58	High	1.5	Vague	2	8	17	34	4.4	9.0	0.8	8	17	34	4.4	9.0	0.8	2	0.921	0.001	D	17	9.0	187.585	189.823	190.744	190.746	0
1	22102504	59	High	1.5	Vague	2	14	10	34	3.6	5.0	0.8	10	34	14	5.0	0.8	3.6	2	0.693	0.001	L	10	5.0	191.249	193.739	194.432	194.434	0
1	22102504	60	High	1.5	Precise	1	14	16	5	3.6	6.7	0.5	5	16	14	0.5	6.7	3.6	2	0.769	0.000	D	16	6.7	194.936	197.871	198.640	198.642	0
1	22102504	61	High	1.5	Precise	1	8	10	4	4.4	5.0	2.9	10	4	8	5.0	2.9	4.4	2	1.010	0.000	L	10	5.0	217.361	218.125	219.135	219.138	0
1	22102504	62	High	1.5	Precise	1	10	13	4	5.0	5.0	2.9	13	10	4	5.0	5.0	2.9	1	0.905	0.001	D	10	5.0	219.640	221.463	222.368	222.370	0
1	22102504	63	High	1.5	Vague	2	16	17	30	6.7	9.0	0.9	30	16	17	0.9	6.7	9.0	2	0.653	0.000	R	17	9.0	222.873	225.475	226.127	226.130	0
1	22102504	64	High	1.5	Precise	1	10	17	4	5.0	9.0	2.9	4	10	17	2.9	5.0	9.0	2	0.741	0.000	R	17	9.0	226.633	227.906	228.647	228.650	0
1	22102504	65	High	1.5	Precise	1	10	13	2	5.0	5.0	0.5	10	13	2	5.0	5.0	0.5	1	0.584	0.001	L	10	5.0	229.152	230.160	230.744	230.746	0
1	22102504	66	High	1.5	Precise	1	8	10	5	4.4	5.0	0.5	10	5	8	5.0	0.5	4.4	2	0.577	0.001	L	10	5.0	231.249	233.078	233.655	233.658	0
1	22102504	67	High	1.5	Vague	2	8	16	29	4.4	6.7	1.2	16	29	8	6.7	1.2	4.4	2	0.823	0.000	L	16	6.7	234.161	236.248	237.071	237.074	0
1	22102504	68	High	1.5	Vague	2	14	8	23	3.6	4.4	0.6	14	8	23	3.6	4.4	0.6	1	0.797	0.001	L	14	3.6	237.576	240.227	241.024	241.026	0
1	22102504	69	High	1.5	Vague	2	13	16	34	5.0	6.7	0.8	16	13	34	6.7	5.0	0.8	2	0.841	0.001	L	16	6.7	241.529	243.646	244.488	244.490	0
1	22102504	70	High	1.5	Vague	2	14	8	20	3.6	4.4	0.7	14	20	8	3.6	0.7	4.4	3	0.950	0.000	D	20	0.7	244.993	246.081	247.032	247.034	0
1	22102504	71	High	1.5	Precise	1	14	16	7	3.6	6.7	0.5	16	14	7	6.7	3.6	0.5	2	0.640	0.001	L	16	6.7	247.537	249.223	249.863	249.866	0
1	22102504	72	High	1.5	Vague	2	8	13	34	4.4	5.0	0.8	34	13	8	0.8	5.0	4.4	1	1.078	0.001	R	8	4.4	250.368	252.618	253.696	253.698	0
1	22102504	73	High	1.5	Vague	2	14	16	29	3.6	6.7	1.2	29	14	16	1.2	3.6	6.7	2	0.675	0.000	R	16	6.7	254.201	255.236	255.911	255.914	0
1	22102504	74	High	1.5	Vague	2	14	10	19	3.6	5.0	0.4	10	19	14	5.0	0.4	3.6	1	0.943	0.001	R	14	3.6	256.417	259.369	260.312	260.314	0
1	22102504	75	High	1.5	Vague	2	13	17	34	5.0	9.0	0.8	34	17	13	0.8	9.0	5.0	2	0.966	0.000	D	17	9.0	260.816	262.705	263.671	263.674	0
1	22102504	76	High	1.5	Precise	1	13	16	12	5.0	6.7	0.9	13	16	12	5.0	6.7	0.9	2	0.881	0.000	D	16	6.7	264.177	265.830	266.711	266.714	0
1	22102504	77	High	1.5	Vague	2	8	17	20	4.4	9.0	0.7	8	17	20	4.4	9.0	0.7	2	0.544	0.000	D	17	9.0	267.217	269.376	269.920	269.922	0
1	22102504	78	High	1.5	Vague	2	8	17	19	4.4	9.0	0.4	17	8	19	9.0	4.4	0.4	1	0.733	0.001	D	8	4.4	270.425	272.539	273.272	273.274	0
1	22102504	79	High	1.5	Precise	1	14	10	5	3.6	5.0	0.5	5	10	14	0.5	5.0	3.6	2	0.699	0.001	D	10	5.0	273.777	275.461	276.159	276.162	0
1	22102504	80	High	1.5	Vague	2	13	16	19	5.0	6.7	0.4	16	13	19	6.7	5.0	0.4	2	1.323	0.000	L	16	6.7	276.664	279.100	280.423	280.426	0
1	22102504	81	High	1.5	Vague	2	8	16	23	4.4	6.7	0.6	16	23	8	6.7	0.6	4.4	2	1.123	0.000	L	16	6.7	280.929	281.924	283.047	283.050	0
1	22102504	82	High	1.5	Precise	1	8	17	12	4.4	9.0	0.9	12	17	8	0.9	9.0	4.4	NaN	NaN	NaN	NaN	NaN	NaN	283.552	284.516	NaN	286.006	1
1	22102504	83	High	1.5	Precise	1	13	16	2	5.0	6.7	0.5	16	13	2	6.7	5.0	0.5	2	0.608	0.001	L	16	6.7	288.012	289.167	289.776	289.780	0
1	22102504	84	High	1.5	Vague	2	10	13	34	5.0	5.0	0.8	34	13	10	0.8	5.0	5.0	3	0.602	0.001	L	34	0.8	290.282	291.717	292.319	292.322	0
1	22102504	85	High	1.5	Vague	2	14	8	30	3.6	4.4	0.9	30	14	8	0.9	3.6	4.4	2	0.829	0.001	R	8	4.4	292.824	295.146	295.976	295.978	0
1	22102504	86	High	1.5	Precise	1	10	17	11	5.0	9.0	2.0	10	17	11	5.0	9.0	2.0	2	0.641	0.001	D	17	9.0	296.481	297.278	297.920	297.922	0
1	22102504	87	High	1.5	Vague	2	8	17	30	4.4	9.0	0.9	8	17	30	4.4	9.0	0.9	2	0.663	0.001	D	17	9.0	298.425	300.265	300.928	300.930	0
1	22102504	88	High	1.5	Vague	2	14	16	30	3.6	6.7	0.9	16	30	14	6.7	0.9	3.6	2	0.588	0.001	L	16	6.7	301.433	302.467	303.055	303.058	0
1	22102504	89	High	1.5	Vague	2	10	16	34	5.0	6.7	0.8	10	34	16	5.0	0.8	6.7	1	0.645	0.000	L	10	5.0	303.560	305.074	305.719	305.722	0
1	22102504	90	High	1.5	Precise	1	8	13	7	4.4	5.0	0.5	8	7	13	4.4	0.5	5.0	1	0.869	0.001	L	8	4.4	306.225	307.018	307.887	307.890	0
1	22102504	91	High	1.5	Vague	2	14	13	20	3.6	5.0	0.7	13	20	14	5.0	0.7	3.6	1	0.841	0.001	R	14	3.6	308.393	308.911	309.751	309.754	0
1	22102504	92	High	1.5	Vague	2	14	8	19	3.6	4.4	0.4	14	19	8	3.6	0.4	4.4	1	0.550	0.001	L	14	3.6	310.256	312.865	313.415	313.418	0
1	22102504	93	High	1.5	Precise	1	14	17	4	3.6	9.0	2.9	14	4	17	3.6	2.9	9.0	2	0.597	0.001	R	17	9.0	313.920	314.858	315.455	315.458	0
1	22102504	94	High	1.5	Precise	1	8	16	12	4.4	6.7	0.9	8	12	16	4.4	0.9	6.7	1	0.793	0.001	L	8	4.4	315.961	317.598	318.391	318.394	0
1	22102504	95	High	1.5	Vague	2	8	17	29	4.4	9.0	1.2	8	29	17	4.4	1.2	9.0	2	0.569	0.000	R	17	9.0	318.897	321.150	321.719	321.722	0
1	22102504	96	High	1.5	Vague	2	8	13	20	4.4	5.0	0.7	8	20	13	4.4	0.7	5.0	1	0.954	0.001	L	8	4.4	322.225	323.925	324.879	324.882	0
1	22102504	97	High	1.5	Vague	2	14	10	30	3.6	5.0	0.9	30	14	10	0.9	3.6	5.0	2	0.613	0.000	R	10	5.0	325.384	328.010	328.623	328.626	0
1	22102504	98	High	1.5	Vague	2	13	16	20	5.0	6.7	0.7	20	16	13	0.7	6.7	5.0	1	0.904	0.000	R	13	5.0	329.128	331.871	332.775	332.778	0
1	22102504	99	High	1.5	Precise	1	13	16	11	5.0	6.7	2.0	13	16	11	5.0	6.7	2.0	1	0.665	0.000	L	13	5.0	333.281	335.134	335.799	335.802	0
1	22102504	100	High	1.5	Precise	1	10	16	2	5.0	6.7	0.5	16	2	10	6.7	0.5	5.0	1	0.715	0.000	R	10	5.0	336.305	338.420	339.135	339.138	0
1	22102504	101	High	1.5	Precise	1	8	16	7	4.4	6.7	0.5	16	7	8	6.7	0.5	4.4	2	0.696	0.001	L	16	6.7	339.641	341.888	342.584	342.586	0
1	22102504	102	High	1.5	Precise	1	13	17	12	5.0	9.0	0.9	17	13	12	9.0	5.0	0.9	2	0.659	0.000	L	17	9.0	343.089	344.684	345.343	345.346	0
1	22102504	103	High	1.5	Vague	2	10	16	19	5.0	6.7	0.4	19	16	10	0.4	6.7	5.0	1	1.193	0.000	R	10	5.0	345.848	347.854	349.047	349.050	0
1	22102504	104	High	1.5	Precise	1	10	17	7	5.0	9.0	0.5	17	7	10	9.0	0.5	5.0	2	0.995	0.000	L	17	9.0	349.553	351.837	352.831	352.834	0
1	22102504	105	High	1.5	Precise	1	14	13	2	3.6	5.0	0.5	13	14	2	5.0	3.6	0.5	1	1.174	0.001	D	14	3.6	353.337	354.322	355.495	355.498	0
1	22102504	106	High	1.5	Precise	1	14	16	4	3.6	6.7	2.9	16	4	14	6.7	2.9	3.6	2	1.024	0.000	L	16	6.7	356.000	358.535	359.559	359.562	0
1	22102504	107	High	1.5	Precise	1	14	10	11	3.6	5.0	2.0	10	14	11	5.0	3.6	2.0	2	0.660	0.000	L	10	5.0	360.065	360.563	361.223	361.226	0
1	22102504	108	High	1.5	Precise	1	13	16	5	5.0	6.7	0.5	16	13	5	6.7	5.0	0.5	2	0.545	0.001	L	16	6.7	361.729	362.807	363.351	363.354	0
1	22102504	109	High	1.5	Vague	2	13	16	30	5.0	6.7	0.9	30	13	16	0.9	5.0	6.7	2	0.512	0.001	R	16	6.7	363.856	365.335	365.848	365.851	0
1	22102504	110	High	1.5	Precise	1	14	13	4	3.6	5.0	2.9	14	13	4	3.6	5.0	2.9	3	0.886	0.001	R	4	2.9	366.354	367.474	368.359	368.362	0
1	22102504	111	High	1.5	Vague	2	14	10	20	3.6	5.0	0.7	20	10	14	0.7	5.0	3.6	2	0.856	0.000	D	10	5.0	368.865	370.231	371.087	371.090	0
1	22102504	112	High	1.5	Precise	1	8	10	12	4.4	5.0	0.9	8	12	10	4.4	0.9	5.0	2	0.512	0.001	R	10	5.0	371.593	372.583	373.095	373.098	0
1	22102504	113	High	1.5	Precise	1	16	17	12	6.7	9.0	0.9	17	16	12	9.0	6.7	0.9	2	1.067	0.000	L	17	9.0	373.601	376.044	377.111	377.114	0
1	22102504	114	High	1.5	Vague	2	16	17	19	6.7	9.0	0.4	17	19	16	9.0	0.4	6.7	2	0.584	0.001	L	17	9.0	377.616	380.575	381.159	381.162	0
1	22102504	115	High	1.5	Precise	1	14	13	11	3.6	5.0	2.0	11	14	13	2.0	3.6	5.0	3	0.926	0.001	L	11	2.0	381.665	384.474	385.399	385.403	0
1	22102504	116	High	1.5	Precise	1	14	17	12	3.6	9.0	0.9	17	14	12	9.0	3.6	0.9	2	0.774	0.001	L	17	9.0	385.905	386.609	387.383	387.386	0
1	22102504	117	High	1.5	Precise	1	8	17	11	4.4	9.0	2.0	11	17	8	2.0	9.0	4.4	2	0.793	0.000	D	17	9.0	387.888	388.814	389.607	389.610	0
1	22102504	118	High	1.5	Vague	2	14	8	29	3.6	4.4	1.2	29	14	8	1.2	3.6	4.4	2	1.057	0.000	R	8	4.4	390.112	392.622	393.679	393.682	0
1	22102504	119	High	1.5	Vague	2	8	10	23	4.4	5.0	0.6	8	10	23	4.4	5.0	0.6	1	0.739	0.001	L	8	4.4	394.185	395.477	396.215	396.218	0
1	22102504	120	High	1.5	Vague	2	10	16	30	5.0	6.7	0.9	10	16	30	5.0	6.7	0.9	1	0.480	0.001	L	10	5.0	396.721	397.223	397.703	397.706	0
1	22102504	121	High	1.5	Precise	1	16	17	7	6.7	9.0	0.5	17	7	16	9.0	0.5	6.7	2	0.630	0.000	L	17	9.0	409.504	411.729	412.359	412.362	0
1	22102504	122	High	1.5	Vague	2	14	13	23	3.6	5.0	0.6	13	23	14	5.0	0.6	3.6	1	0.746	0.001	R	14	3.6	412.866	414.797	415.543	415.546	0
1	22102504	123	High	1.5	Vague	2	10	17	20	5.0	9.0	0.7	17	10	20	9.0	5.0	0.7	2	0.666	0.001	L	17	9.0	416.049	416.581	417.247	417.250	0
1	22102504	124	High	1.5	Precise	1	8	13	5	4.4	5.0	0.5	13	8	5	5.0	4.4	0.5	1	0.752	0.001	D	8	4.4	417.753	419.864	420.615	420.618	0
1	22102504	125	High	1.5	Precise	1	13	17	2	5.0	9.0	0.5	17	2	13	9.0	0.5	5.0	2	0.725	0.001	L	17	9.0	421.120	424.018	424.743	424.746	0
1	22102504	126	High	1.5	Precise	1	8	13	11	4.4	5.0	2.0	13	11	8	5.0	2.0	4.4	3	0.720	0.001	D	11	2.0	425.249	427.047	427.767	427.770	0
1	22102504	127	High	1.5	Precise	1	13	16	4	5.0	6.7	2.9	4	13	16	2.9	5.0	6.7	2	1.048	0.001	R	16	6.7	428.273	430.824	431.871	431.874	0
1	22102504	128	High	1.5	Precise	1	10	17	5	5.0	9.0	0.5	10	17	5	5.0	9.0	0.5	1	0.582	0.000	L	10	5.0	432.377	433.808	434.391	434.393	0
1	22102504	129	High	1.5	Precise	1	8	13	4	4.4	5.0	2.9	8	13	4	4.4	5.0	2.9	1	0.918	0.001	L	8	4.4	434.896	437.193	438.111	438.114	0
1	22102504	130	High	1.5	Vague	2	8	13	19	4.4	5.0	0.4	19	8	13	0.4	4.4	5.0	1	0.702	0.000	D	8	4.4	438.617	439.705	440.407	440.410	0
1	22102504	131	High	1.5	Precise	1	13	17	4	5.0	9.0	2.9	4	13	17	2.9	5.0	9.0	2	0.597	0.001	R	17	9.0	440.913	442.906	443.503	443.506	0
1	22102504	132	High	1.5	Vague	2	14	16	19	3.6	6.7	0.4	16	14	19	6.7	3.6	0.4	3	0.830	0.001	R	19	0.4	444.009	445.761	446.591	446.594	0
1	22102504	133	High	1.5	Vague	2	8	10	29	4.4	5.0	1.2	8	10	29	4.4	5.0	1.2	2	0.841	0.001	D	10	5.0	447.097	447.663	448.503	448.506	0
1	22102504	134	High	1.5	Vague	2	10	17	30	5.0	9.0	0.9	30	10	17	0.9	5.0	9.0	1	0.808	0.000	D	10	5.0	449.009	451.735	452.543	452.546	0
1	22102504	135	High	1.5	Precise	1	10	17	12	5.0	9.0	0.9	10	12	17	5.0	0.9	9.0	1	0.897	0.000	L	10	5.0	453.048	455.030	455.927	455.930	0
1	22102504	136	High	1.5	Precise	1	14	8	7	3.6	4.4	0.5	7	14	8	0.5	3.6	4.4	2	0.852	0.001	R	8	4.4	456.432	457.955	458.807	458.810	0
1	22102504	137	High	1.5	Vague	2	10	17	23	5.0	9.0	0.6	23	10	17	0.6	5.0	9.0	1	0.903	0.001	D	10	5.0	459.313	461.112	462.015	462.018	0
1	22102504	138	High	1.5	Precise	1	8	17	2	4.4	9.0	0.5	2	17	8	0.5	9.0	4.4	2	0.759	0.001	D	17	9.0	462.520	464.385	465.143	465.146	0
1	22102504	139	High	1.5	Vague	2	16	17	20	6.7	9.0	0.7	16	17	20	6.7	9.0	0.7	2	0.433	0.001	D	17	9.0	465.648	467.254	467.687	467.690	0
1	22102504	140	High	1.5	Precise	1	14	8	4	3.6	4.4	2.9	4	14	8	2.9	3.6	4.4	2	1.163	0.000	R	8	4.4	468.193	470.292	471.455	471.458	0
1	22102504	141	High	1.5	Vague	2	10	16	20	5.0	6.7	0.7	10	16	20	5.0	6.7	0.7	1	0.664	0.000	L	10	5.0	471.961	473.751	474.415	474.417	0
1	22102504	142	High	1.5	Vague	2	13	16	23	5.0	6.7	0.6	23	16	13	0.6	6.7	5.0	1	0.818	0.000	R	13	5.0	474.920	477.613	478.431	478.433	0
1	22102504	143	High	1.5	Vague	2	13	16	29	5.0	6.7	1.2	13	29	16	5.0	1.2	6.7	1	0.955	0.001	L	13	5.0	478.936	481.684	482.639	482.642	0
1	22102504	144	High	1.5	Vague	2	14	17	20	3.6	9.0	0.7	17	20	14	9.0	0.7	3.6	3	0.654	0.000	D	20	0.7	483.146	485.177	485.831	485.833	0
1	22102504	145	High	1.5	Vague	2	13	17	29	5.0	9.0	1.2	13	17	29	5.0	9.0	1.2	2	0.789	0.001	D	17	9.0	486.336	487.130	487.919	487.922	0
1	22102504	146	High	1.5	Precise	1	14	10	12	3.6	5.0	0.9	12	10	14	0.9	5.0	3.6	2	0.808	0.000	D	10	5.0	488.424	489.183	489.991	489.993	0
1	22102504	147	High	1.5	Precise	1	14	17	2	3.6	9.0	0.5	2	17	14	0.5	9.0	3.6	2	0.597	0.001	D	17	9.0	490.496	492.658	493.255	493.258	0
1	22102504	148	High	1.5	Precise	1	14	8	11	3.6	4.4	2.0	8	11	14	4.4	2.0	3.6	3	0.950	0.001	D	11	2.0	493.761	495.474	496.423	496.426	0
1	22102504	149	High	1.5	Vague	2	10	13	20	5.0	5.0	0.7	10	20	13	5.0	0.7	5.0	1	0.641	0.001	L	10	5.0	496.929	499.494	500.135	500.139	0
1	22102504	150	High	1.5	Vague	2	8	16	20	4.4	6.7	0.7	8	20	16	4.4	0.7	6.7	2	0.741	0.000	R	16	6.7	500.641	503.482	504.223	504.225	0
1	22102504	151	High	1.5	Precise	1	8	16	5	4.4	6.7	0.5	8	16	5	4.4	6.7	0.5	1	0.611	0.000	L	8	4.4	504.729	506.844	507.455	507.457	0
1	22102504	152	High	1.5	Vague	2	10	17	19	5.0	9.0	0.4	19	17	10	0.4	9.0	5.0	2	0.618	0.001	D	17	9.0	507.960	510.221	510.839	510.842	0
1	22102504	153	High	1.5	Precise	1	10	16	4	5.0	6.7	2.9	4	16	10	2.9	6.7	5.0	1	0.728	0.001	R	10	5.0	511.344	511.847	512.575	512.578	0
1	22102504	154	High	1.5	Vague	2	10	13	23	5.0	5.0	0.6	23	10	13	0.6	5.0	5.0	1	0.606	0.001	D	10	5.0	513.081	515.394	515.999	516.002	0
1	22102504	155	High	1.5	Precise	1	14	8	2	3.6	4.4	0.5	14	2	8	3.6	0.5	4.4	2	1.297	0.001	R	8	4.4	516.504	518.206	519.503	519.507	0
1	22102504	156	High	1.5	Precise	1	8	17	4	4.4	9.0	2.9	17	8	4	9.0	4.4	2.9	2	0.494	0.001	L	17	9.0	520.009	522.577	523.071	523.073	0
1	22102504	157	High	1.5	Vague	2	16	17	23	6.7	9.0	0.6	16	17	23	6.7	9.0	0.6	2	0.520	0.001	D	17	9.0	523.576	525.607	526.127	526.130	0
1	22102504	158	High	1.5	Precise	1	8	17	5	4.4	9.0	0.5	8	5	17	4.4	0.5	9.0	2	0.845	0.000	R	17	9.0	526.632	527.642	528.487	528.490	0
1	22102504	159	High	1.5	Precise	1	8	10	11	4.4	5.0	2.0	10	11	8	5.0	2.0	4.4	2	1.475	0.001	L	10	5.0	528.992	529.573	531.047	531.050	0
1	22102504	160	High	1.5	Vague	2	8	13	29	4.4	5.0	1.2	13	29	8	5.0	1.2	4.4	1	1.209	0.001	R	8	4.4	531.553	533.150	534.359	534.362	0
1	22102504	161	High	1.5	Vague	2	10	16	29	5.0	6.7	1.2	10	16	29	5.0	6.7	1.2	1	0.631	0.001	L	10	5.0	534.865	536.409	537.039	537.042	0
1	22102504	162	High	1.5	Vague	2	14	17	30	3.6	9.0	0.9	17	14	30	9.0	3.6	0.9	2	0.783	0.000	L	17	9.0	537.544	540.352	541.135	541.137	0
1	22102504	163	High	1.5	Precise	1	16	17	11	6.7	9.0	2.0	17	11	16	9.0	2.0	6.7	2	0.849	0.001	L	17	9.0	541.640	544.430	545.279	545.281	0
1	22102504	164	High	1.5	Vague	2	14	13	30	3.6	5.0	0.9	30	13	14	0.9	5.0	3.6	1	0.918	0.001	R	14	3.6	545.784	547.050	547.967	547.970	0
1	22102504	165	High	1.5	Precise	1	14	10	4	3.6	5.0	2.9	14	10	4	3.6	5.0	2.9	2	0.612	0.001	D	10	5.0	548.473	549.620	550.231	550.234	0
1	22102504	166	High	1.5	Precise	1	13	16	7	5.0	6.7	0.5	16	7	13	6.7	0.5	5.0	2	0.856	0.001	L	16	6.7	550.736	553.344	554.199	554.202	0
1	22102504	167	High	1.5	Precise	1	14	16	12	3.6	6.7	0.9	12	14	16	0.9	3.6	6.7	2	0.895	0.001	R	16	6.7	554.704	556.664	557.559	557.561	0
1	22102504	168	High	1.5	Vague	2	14	10	23	3.6	5.0	0.6	10	14	23	5.0	3.6	0.6	2	0.780	0.000	L	10	5.0	558.064	560.603	561.383	561.385	0
1	22102504	169	High	1.5	Precise	1	14	13	7	3.6	5.0	0.5	7	13	14	0.5	5.0	3.6	1	1.027	0.001	R	14	3.6	561.889	563.508	564.535	564.537	0
1	22102504	170	High	1.5	Precise	1	14	13	5	3.6	5.0	0.5	13	5	14	5.0	0.5	3.6	1	0.830	0.000	R	14	3.6	565.040	566.633	567.463	567.465	0
1	22102504	171	High	1.5	Vague	2	14	13	34	3.6	5.0	0.8	34	14	13	0.8	3.6	5.0	2	0.774	0.000	R	13	5.0	567.968	569.353	570.127	570.129	0
1	22102504	172	High	1.5	Precise	1	10	16	11	5.0	6.7	2.0	16	10	11	6.7	5.0	2.0	1	0.894	0.001	D	10	5.0	570.632	571.610	572.503	572.505	0
1	22102504	173	High	1.5	Vague	2	8	16	34	4.4	6.7	0.8	8	34	16	4.4	0.8	6.7	1	1.344	0.000	L	8	4.4	573.008	574.575	575.919	575.921	0
1	22102504	174	High	1.5	Vague	2	14	17	23	3.6	9.0	0.6	23	14	17	0.6	3.6	9.0	2	0.880	0.001	R	17	9.0	576.424	579.359	580.239	580.242	0
1	22102504	175	High	1.5	Precise	1	14	17	7	3.6	9.0	0.5	14	17	7	3.6	9.0	0.5	2	0.581	0.001	D	17	9.0	580.744	581.859	582.439	582.442	0
1	22102504	176	High	1.5	Precise	1	10	13	12	5.0	5.0	0.9	13	12	10	5.0	0.9	5.0	1	0.602	0.001	R	10	5.0	582.945	584.589	585.191	585.193	0
1	22102504	177	High	1.5	Precise	1	14	8	12	3.6	4.4	0.9	12	8	14	0.9	4.4	3.6	2	1.269	0.000	D	8	4.4	585.696	588.626	589.895	589.898	0
1	22102504	178	High	1.5	Vague	2	13	17	23	5.0	9.0	0.6	13	17	23	5.0	9.0	0.6	2	0.769	0.000	D	17	9.0	590.400	592.438	593.207	593.209	0
1	22102504	179	High	1.5	Vague	2	10	13	19	5.0	5.0	0.4	19	13	10	0.4	5.0	5.0	1	0.820	0.001	R	10	5.0	593.712	596.179	596.999	597.001	0
1	22102504	180	High	1.5	Precise	1	10	16	7	5.0	6.7	0.5	10	16	7	5.0	6.7	0.5	1	0.725	0.001	L	10	5.0	597.504	599.579	600.303	600.306	0
1	22102504	181	Low	10.0	Precise	1	10	16	18	5.0	6.7	1.8	16	18	10	6.7	1.8	5.0	1	2.980	0.001	R	10	5.0	612.053	613.355	616.335	616.338	0
1	22102504	182	Low	10.0	Vague	2	16	17	31	6.7	9.0	0.8	16	31	17	6.7	0.8	9.0	2	1.046	0.000	R	17	9.0	616.840	619.369	620.415	620.417	0
1	22102504	183	Low	10.0	Vague	2	8	13	31	4.4	5.0	0.8	8	31	13	4.4	0.8	5.0	1	1.311	0.001	L	8	4.4	620.920	623.440	624.751	624.754	0
1	22102504	184	Low	10.0	Vague	2	14	17	22	3.6	9.0	0.7	17	14	22	9.0	3.6	0.7	2	0.743	0.000	L	17	9.0	625.256	626.424	627.167	627.169	0
1	22102504	185	Low	10.0	Vague	2	14	13	31	3.6	5.0	0.8	14	13	31	3.6	5.0	0.8	3	3.257	0.000	R	31	0.8	627.672	628.350	631.607	631.609	0
1	22102504	186	Low	10.0	Precise	1	8	16	15	4.4	6.7	2.3	15	8	16	2.3	4.4	6.7	2	1.317	0.001	R	16	6.7	632.112	634.370	635.687	635.689	0
1	22102504	187	Low	10.0	Precise	1	10	17	1	5.0	9.0	0.5	17	1	10	9.0	0.5	5.0	2	0.707	0.001	L	17	9.0	636.192	638.276	638.983	638.986	0
1	22102504	188	Low	10.0	Precise	1	10	13	6	5.0	5.0	0.5	10	6	13	5.0	0.5	5.0	1	0.710	0.001	L	10	5.0	639.488	640.041	640.751	640.753	0
1	22102504	189	Low	10.0	Vague	2	16	17	21	6.7	9.0	0.2	16	17	21	6.7	9.0	0.2	2	0.791	0.001	D	17	9.0	641.256	641.960	642.751	642.753	0
1	22102504	190	Low	10.0	Precise	1	10	16	1	5.0	6.7	0.5	16	1	10	6.7	0.5	5.0	1	0.849	0.000	R	10	5.0	643.256	644.062	644.911	644.913	0
1	22102504	191	Low	10.0	Vague	2	13	16	28	5.0	6.7	0.6	28	16	13	0.6	6.7	5.0	2	1.668	0.001	D	16	6.7	645.416	646.388	648.055	648.058	0
1	22102504	192	Low	10.0	Precise	1	14	17	3	3.6	9.0	0.5	14	3	17	3.6	0.5	9.0	2	1.301	0.001	R	17	9.0	648.561	649.898	651.199	651.202	0
1	22102504	193	Low	10.0	Vague	2	10	13	22	5.0	5.0	0.7	13	10	22	5.0	5.0	0.7	1	0.890	0.001	D	10	5.0	651.704	653.757	654.647	654.650	0
1	22102504	194	Low	10.0	Precise	1	10	13	18	5.0	5.0	1.8	13	18	10	5.0	1.8	5.0	1	0.937	0.000	R	10	5.0	655.153	656.125	657.063	657.065	0
1	22102504	195	Low	10.0	Vague	2	10	16	24	5.0	6.7	0.4	10	16	24	5.0	6.7	0.4	1	0.610	0.001	L	10	5.0	657.567	660.077	660.687	660.689	0
1	22102504	196	Low	10.0	Vague	2	8	17	21	4.4	9.0	0.2	21	17	8	0.2	9.0	4.4	2	1.096	0.000	D	17	9.0	661.192	661.751	662.847	662.849	0
1	22102504	197	Low	10.0	Vague	2	16	17	22	6.7	9.0	0.7	22	17	16	0.7	9.0	6.7	2	0.527	0.000	D	17	9.0	663.352	665.248	665.775	665.777	0
1	22102504	198	Low	10.0	Precise	1	14	13	9	3.6	5.0	0.8	14	13	9	3.6	5.0	0.8	1	1.349	0.000	L	14	3.6	666.280	667.450	668.799	668.801	0
1	22102504	199	Low	10.0	Vague	2	14	13	21	3.6	5.0	0.2	13	14	21	5.0	3.6	0.2	1	0.940	0.000	D	14	3.6	669.304	671.882	672.823	672.825	0
1	22102504	200	Low	10.0	Precise	1	14	10	9	3.6	5.0	0.8	14	10	9	3.6	5.0	0.8	2	1.017	0.001	D	10	5.0	673.328	675.478	676.495	676.497	0
1	22102504	201	Low	10.0	Vague	2	8	10	21	4.4	5.0	0.2	10	8	21	5.0	4.4	0.2	2	1.208	0.000	L	10	5.0	677.000	677.919	679.127	679.129	0
1	22102504	202	Low	10.0	Vague	2	8	10	31	4.4	5.0	0.8	8	31	10	4.4	0.8	5.0	2	0.897	0.001	R	10	5.0	679.632	682.350	683.247	683.249	0
1	22102504	203	Low	10.0	Precise	1	8	10	15	4.4	5.0	2.3	10	15	8	5.0	2.3	4.4	2	0.793	0.000	L	10	5.0	683.752	685.902	686.695	686.697	0
1	22102504	204	Low	10.0	Precise	1	8	13	9	4.4	5.0	0.8	9	8	13	0.8	4.4	5.0	1	1.360	0.001	D	8	4.4	687.200	690.151	691.511	691.513	0
1	22102504	205	Low	10.0	Precise	1	8	16	6	4.4	6.7	0.5	6	8	16	0.5	4.4	6.7	2	0.917	0.001	R	16	6.7	692.016	692.602	693.519	693.521	0
1	22102504	206	Low	10.0	Vague	2	10	13	21	5.0	5.0	0.2	10	21	13	5.0	0.2	5.0	1	0.813	0.001	L	10	5.0	694.024	696.314	697.127	697.130	0
1	22102504	207	Low	10.0	Precise	1	8	13	15	4.4	5.0	2.3	13	15	8	5.0	2.3	4.4	1	0.957	0.001	R	8	4.4	697.632	699.450	700.407	700.409	0
1	22102504	208	Low	10.0	Vague	2	13	17	21	5.0	9.0	0.2	17	13	21	9.0	5.0	0.2	1	0.635	0.001	D	13	5.0	700.912	703.796	704.431	704.433	0
1	22102504	209	Low	10.0	Vague	2	10	17	21	5.0	9.0	0.2	10	21	17	5.0	0.2	9.0	2	0.598	0.001	R	17	9.0	704.936	707.801	708.399	708.401	0
1	22102504	210	Low	10.0	Vague	2	14	13	24	3.6	5.0	0.4	13	14	24	5.0	3.6	0.4	2	1.386	0.001	L	13	5.0	708.904	711.357	712.743	712.745	0
1	22102504	211	Low	10.0	Precise	1	8	16	3	4.4	6.7	0.5	8	3	16	4.4	0.5	6.7	2	1.019	0.000	R	16	6.7	713.248	715.459	716.479	716.481	0
1	22102504	212	Low	10.0	Precise	1	8	17	18	4.4	9.0	1.8	17	18	8	9.0	1.8	4.4	2	0.770	0.000	L	17	9.0	716.983	719.781	720.551	720.553	0
1	22102504	213	Low	10.0	Precise	1	14	17	15	3.6	9.0	2.3	17	15	14	9.0	2.3	3.6	2	0.628	0.000	L	17	9.0	721.056	721.922	722.551	722.553	0
1	22102504	214	Low	10.0	Vague	2	13	17	22	5.0	9.0	0.7	22	17	13	0.7	9.0	5.0	2	0.799	0.001	D	17	9.0	723.056	723.576	724.375	724.377	0
1	22102504	215	Low	10.0	Vague	2	10	13	31	5.0	5.0	0.8	10	31	13	5.0	0.8	5.0	1	0.968	0.001	L	10	5.0	724.880	727.366	728.335	728.337	0
1	22102504	216	Low	10.0	Precise	1	16	17	15	6.7	9.0	2.3	15	16	17	2.3	6.7	9.0	2	0.504	0.001	R	17	9.0	728.840	730.166	730.671	730.673	0
1	22102504	217	Low	10.0	Precise	1	14	13	1	3.6	5.0	0.5	13	14	1	5.0	3.6	0.5	1	1.165	0.001	D	14	3.6	731.176	733.634	734.799	734.801	0
1	22102504	218	Low	10.0	Precise	1	13	17	1	5.0	9.0	0.5	1	13	17	0.5	5.0	9.0	2	0.648	0.000	R	17	9.0	735.304	736.494	737.143	737.145	0
1	22102504	219	Low	10.0	Vague	2	8	17	28	4.4	9.0	0.6	28	17	8	0.6	9.0	4.4	2	0.671	0.001	D	17	9.0	737.648	739.096	739.767	739.769	0
1	22102504	220	Low	10.0	Vague	2	8	16	28	4.4	6.7	0.6	16	28	8	6.7	0.6	4.4	1	1.407	0.001	R	8	4.4	740.272	742.935	744.343	744.346	0
1	22102504	221	Low	10.0	Vague	2	8	13	28	4.4	5.0	0.6	28	13	8	0.6	5.0	4.4	1	0.671	0.000	R	8	4.4	744.849	747.375	748.046	748.049	0
1	22102504	222	Low	10.0	Vague	2	8	10	28	4.4	5.0	0.6	10	28	8	5.0	0.6	4.4	2	0.746	0.000	L	10	5.0	748.552	749.820	750.567	750.569	0
1	22102504	223	Low	10.0	Precise	1	14	10	3	3.6	5.0	0.5	10	14	3	5.0	3.6	0.5	2	0.714	0.000	L	10	5.0	751.072	752.749	753.463	753.465	0
1	22102504	224	Low	10.0	Precise	1	8	17	15	4.4	9.0	2.3	17	8	15	9.0	4.4	2.3	2	0.755	0.001	L	17	9.0	753.968	755.820	756.575	756.577	0
1	22102504	225	Low	10.0	Precise	1	10	16	6	5.0	6.7	0.5	10	6	16	5.0	0.5	6.7	1	0.864	0.000	L	10	5.0	757.080	759.798	760.663	760.665	0
1	22102504	226	Low	10.0	Vague	2	14	16	32	3.6	6.7	1.0	16	14	32	6.7	3.6	1.0	2	2.011	0.000	L	16	6.7	761.168	762.236	764.247	764.249	0
1	22102504	227	Low	10.0	Vague	2	10	16	21	5.0	6.7	0.2	16	10	21	6.7	5.0	0.2	1	1.016	0.001	D	10	5.0	764.752	765.287	766.303	766.306	0
1	22102504	228	Low	10.0	Precise	1	8	17	1	4.4	9.0	0.5	8	17	1	4.4	9.0	0.5	2	0.539	0.001	D	17	9.0	766.808	768.507	769.047	769.049	0
1	22102504	229	Low	10.0	Vague	2	10	17	31	5.0	9.0	0.8	10	17	31	5.0	9.0	0.8	2	0.725	0.000	D	17	9.0	769.552	772.194	772.919	772.921	0
1	22102504	230	Low	10.0	Vague	2	14	16	21	3.6	6.7	0.2	21	16	14	0.2	6.7	3.6	2	1.353	0.001	D	16	6.7	773.424	775.470	776.823	776.826	0
1	22102504	231	Low	10.0	Vague	2	14	8	32	3.6	4.4	1.0	8	32	14	4.4	1.0	3.6	2	1.206	0.001	L	8	4.4	777.329	779.313	780.519	780.521	0
1	22102504	232	Low	10.0	Precise	1	13	16	6	5.0	6.7	0.5	6	16	13	0.5	6.7	5.0	2	1.016	0.001	D	16	6.7	781.024	783.303	784.319	784.321	0
1	22102504	233	Low	10.0	Vague	2	13	17	28	5.0	9.0	0.6	13	17	28	5.0	9.0	0.6	2	0.752	0.001	D	17	9.0	784.823	785.535	786.287	786.289	0
1	22102504	234	Low	10.0	Vague	2	10	16	28	5.0	6.7	0.6	10	28	16	5.0	0.6	6.7	1	1.002	0.001	L	10	5.0	786.792	788.637	789.639	789.641	0
1	22102504	235	Low	10.0	Vague	2	13	16	21	5.0	6.7	0.2	16	13	21	6.7	5.0	0.2	2	0.689	0.001	L	16	6.7	790.144	792.502	793.191	793.193	0
1	22102504	236	Low	10.0	Vague	2	8	13	32	4.4	5.0	1.0	8	13	32	4.4	5.0	1.0	1	0.872	0.000	L	8	4.4	793.696	796.198	797.071	797.073	0
1	22102504	237	Low	10.0	Precise	1	10	16	9	5.0	6.7	0.8	9	10	16	0.8	5.0	6.7	1	0.664	0.001	D	10	5.0	797.576	799.942	800.607	800.610	0
1	22102504	238	Low	10.0	Precise	1	10	17	3	5.0	9.0	0.5	17	10	3	9.0	5.0	0.5	1	0.792	0.001	D	10	5.0	801.112	803.863	804.655	804.657	0
1	22102504	239	Low	10.0	Precise	1	10	13	1	5.0	5.0	0.5	1	10	13	0.5	5.0	5.0	1	1.047	0.000	D	10	5.0	805.160	806.327	807.375	807.377	0
1	22102504	240	Low	10.0	Precise	1	10	17	18	5.0	9.0	1.8	17	18	10	9.0	1.8	5.0	1	0.798	0.000	R	10	5.0	807.879	808.513	809.310	809.313	0
1	22102504	241	Low	10.0	Vague	2	13	16	22	5.0	6.7	0.7	22	13	16	0.7	5.0	6.7	2	0.940	0.001	R	16	6.7	814.987	817.010	817.951	817.954	0
1	22102504	242	Low	10.0	Vague	2	8	17	31	4.4	9.0	0.8	8	31	17	4.4	0.8	9.0	2	0.869	0.000	R	17	9.0	818.457	821.321	822.190	822.193	0
1	22102504	243	Low	10.0	Precise	1	16	17	6	6.7	9.0	0.5	6	17	16	0.5	9.0	6.7	2	0.696	0.001	D	17	9.0	822.695	823.911	824.607	824.609	0
1	22102504	244	Low	10.0	Vague	2	10	16	22	5.0	6.7	0.7	10	22	16	5.0	0.7	6.7	1	0.902	0.001	L	10	5.0	825.112	825.817	826.719	826.721	0
1	22102504	245	Low	10.0	Precise	1	10	16	15	5.0	6.7	2.3	10	16	15	5.0	6.7	2.3	1	0.761	0.000	L	10	5.0	827.224	830.054	830.814	830.817	0
1	22102504	246	Low	10.0	Vague	2	14	8	28	3.6	4.4	0.6	8	14	28	4.4	3.6	0.6	2	0.878	0.000	L	8	4.4	831.320	832.377	833.254	833.258	0
1	22102504	247	Low	10.0	Vague	2	8	10	24	4.4	5.0	0.4	10	24	8	5.0	0.4	4.4	2	0.608	0.000	L	10	5.0	833.760	835.806	836.414	836.417	0
1	22102504	248	Low	10.0	Precise	1	8	10	3	4.4	5.0	0.5	3	8	10	0.5	4.4	5.0	2	0.623	0.000	R	10	5.0	836.920	837.624	838.247	838.249	0
1	22102504	249	Low	10.0	Precise	1	16	17	1	6.7	9.0	0.5	17	16	1	9.0	6.7	0.5	2	0.733	0.000	L	17	9.0	838.752	840.746	841.479	841.481	0
1	22102504	250	Low	10.0	Vague	2	16	17	32	6.7	9.0	1.0	17	32	16	9.0	1.0	6.7	2	0.694	0.000	L	17	9.0	841.983	842.920	843.614	843.617	0
1	22102504	251	Low	10.0	Precise	1	14	16	9	3.6	6.7	0.8	9	16	14	0.8	6.7	3.6	2	0.747	0.001	D	16	6.7	844.120	846.156	846.903	846.905	0
1	22102504	252	Low	10.0	Precise	1	16	17	3	6.7	9.0	0.5	17	3	16	9.0	0.5	6.7	1	0.985	0.001	R	16	6.7	847.409	848.886	849.871	849.873	0
1	22102504	253	Low	10.0	Vague	2	8	16	32	4.4	6.7	1.0	8	16	32	4.4	6.7	1.0	1	1.643	0.000	L	8	4.4	850.376	853.163	854.807	854.809	0
1	22102504	254	Low	10.0	Precise	1	8	13	1	4.4	5.0	0.5	8	1	13	4.4	0.5	5.0	1	1.018	0.000	L	8	4.4	855.312	857.709	858.726	858.729	0
1	22102504	255	Low	10.0	Precise	1	14	17	9	3.6	9.0	0.8	17	14	9	9.0	3.6	0.8	2	0.808	0.001	L	17	9.0	859.232	859.743	860.551	860.553	0
1	22102504	256	Low	10.0	Precise	1	14	16	3	3.6	6.7	0.5	14	3	16	3.6	0.5	6.7	2	1.727	0.000	R	16	6.7	861.056	862.415	864.142	864.145	0
1	22102504	257	Low	10.0	Precise	1	14	10	6	3.6	5.0	0.5	10	6	14	5.0	0.5	3.6	2	0.778	0.000	L	10	5.0	864.647	865.389	866.166	866.169	0
1	22102504	258	Low	10.0	Precise	1	14	16	15	3.6	6.7	2.3	15	14	16	2.3	3.6	6.7	2	1.092	0.001	R	16	6.7	866.672	868.171	869.263	869.265	0
1	22102504	259	Low	10.0	Vague	2	8	13	21	4.4	5.0	0.2	8	21	13	4.4	0.2	5.0	1	0.931	0.001	L	8	4.4	869.769	872.491	873.423	873.425	0
1	22102504	260	Low	10.0	Vague	2	14	17	28	3.6	9.0	0.6	14	28	17	3.6	0.6	9.0	2	0.740	0.001	R	17	9.0	873.928	875.867	876.607	876.610	0
1	22102504	261	Low	10.0	Vague	2	10	13	32	5.0	5.0	1.0	32	10	13	1.0	5.0	5.0	1	0.850	0.001	D	10	5.0	877.112	877.716	878.567	878.569	0
1	22102504	262	Low	10.0	Vague	2	8	17	24	4.4	9.0	0.4	24	17	8	0.4	9.0	4.4	2	0.732	0.001	D	17	9.0	879.072	880.691	881.423	881.425	0
1	22102504	263	Low	10.0	Precise	1	13	17	18	5.0	9.0	1.8	18	13	17	1.8	5.0	9.0	2	0.649	0.001	R	17	9.0	881.928	884.069	884.719	884.721	0
1	22102504	264	Low	10.0	Precise	1	13	17	9	5.0	9.0	0.8	13	9	17	5.0	0.8	9.0	2	1.218	0.001	R	17	9.0	885.225	886.821	888.039	888.041	0
1	22102504	265	Low	10.0	Vague	2	14	17	32	3.6	9.0	1.0	17	14	32	9.0	3.6	1.0	2	0.896	0.000	L	17	9.0	888.544	890.678	891.575	891.577	0
1	22102504	266	Low	10.0	Vague	2	10	13	24	5.0	5.0	0.4	24	13	10	0.4	5.0	5.0	1	0.963	0.000	R	10	5.0	892.081	893.340	894.303	894.305	0
1	22102504	267	Low	10.0	Precise	1	8	17	9	4.4	9.0	0.8	9	8	17	0.8	4.4	9.0	2	0.517	0.000	R	17	9.0	894.808	897.338	897.854	897.857	0
1	22102504	268	Low	10.0	Vague	2	10	17	22	5.0	9.0	0.7	22	17	10	0.7	9.0	5.0	2	0.790	0.000	D	17	9.0	898.359	899.721	900.510	900.513	0
1	22102504	269	Low	10.0	Precise	1	16	17	9	6.7	9.0	0.8	17	16	9	9.0	6.7	0.8	2	0.728	0.000	L	17	9.0	901.016	902.486	903.214	903.218	0
1	22102504	270	Low	10.0	Vague	2	14	16	28	3.6	6.7	0.6	14	16	28	3.6	6.7	0.6	2	1.285	0.001	D	16	6.7	903.720	904.834	906.119	906.121	0
1	22102504	271	Low	10.0	Precise	1	8	16	18	4.4	6.7	1.8	18	8	16	1.8	4.4	6.7	1	1.436	0.001	D	8	4.4	906.624	908.643	910.079	910.081	0
1	22102504	272	Low	10.0	Precise	1	8	13	6	4.4	5.0	0.5	13	8	6	5.0	4.4	0.5	1	1.036	0.001	D	8	4.4	910.584	912.322	913.359	913.361	0
1	22102504	273	Low	10.0	Vague	2	14	10	24	3.6	5.0	0.4	10	24	14	5.0	0.4	3.6	2	0.656	0.001	L	10	5.0	913.864	916.614	917.271	917.273	0
1	22102504	274	Low	10.0	Precise	1	8	10	1	4.4	5.0	0.5	8	1	10	4.4	0.5	5.0	2	0.645	0.001	R	10	5.0	917.775	920.650	921.295	921.297	0
1	22102504	275	Low	10.0	Vague	2	8	10	22	4.4	5.0	0.7	10	8	22	5.0	4.4	0.7	1	0.825	0.001	D	8	4.4	921.800	923.877	924.703	924.705	0
1	22102504	276	Low	10.0	Precise	1	10	16	3	5.0	6.7	0.5	10	16	3	5.0	6.7	0.5	1	0.592	0.001	L	10	5.0	925.208	927.823	928.415	928.417	0
1	22102504	277	Low	10.0	Vague	2	14	13	28	3.6	5.0	0.6	13	14	28	5.0	3.6	0.6	2	0.947	0.001	L	13	5.0	928.920	931.075	932.023	932.025	0
1	22102504	278	Low	10.0	Vague	2	8	17	32	4.4	9.0	1.0	32	8	17	1.0	4.4	9.0	2	0.613	0.001	R	17	9.0	932.527	934.330	934.943	934.945	0
1	22102504	279	Low	10.0	Vague	2	10	17	28	5.0	9.0	0.6	17	28	10	9.0	0.6	5.0	2	1.076	0.000	L	17	9.0	935.448	937.906	938.982	938.985	0
1	22102504	280	Low	10.0	Precise	1	13	17	15	5.0	9.0	2.3	13	17	15	5.0	9.0	2.3	2	0.689	0.001	D	17	9.0	939.487	942.374	943.063	943.065	0
1	22102504	281	Low	10.0	Precise	1	13	16	9	5.0	6.7	0.8	16	9	13	6.7	0.8	5.0	2	1.123	0.001	L	16	6.7	943.568	945.219	946.343	946.345	0
1	22102504	282	Low	10.0	Precise	1	8	16	9	4.4	6.7	0.8	8	9	16	4.4	0.8	6.7	2	0.932	0.001	R	16	6.7	946.848	947.715	948.647	948.649	0
1	22102504	283	Low	10.0	Vague	2	13	17	32	5.0	9.0	1.0	17	32	13	9.0	1.0	5.0	2	0.605	0.001	L	17	9.0	949.151	951.482	952.087	952.089	0
1	22102504	284	Low	10.0	Vague	2	14	16	24	3.6	6.7	0.4	14	24	16	3.6	0.4	6.7	2	1.360	0.001	R	16	6.7	952.592	953.471	954.831	954.833	0
1	22102504	285	Low	10.0	Vague	2	14	8	31	3.6	4.4	0.8	14	31	8	3.6	0.8	4.4	2	0.870	0.000	R	8	4.4	955.336	957.009	957.878	957.881	0
1	22102504	286	Low	10.0	Vague	2	13	17	31	5.0	9.0	0.8	31	13	17	0.8	5.0	9.0	2	0.924	0.001	R	17	9.0	958.383	960.171	961.095	961.097	0
1	22102504	287	Low	10.0	Vague	2	8	16	24	4.4	6.7	0.4	24	16	8	0.4	6.7	4.4	2	1.779	0.001	D	16	6.7	961.599	963.556	965.335	965.338	0
1	22102504	288	Low	10.0	Vague	2	14	10	32	3.6	5.0	1.0	32	14	10	1.0	3.6	5.0	2	0.783	0.001	R	10	5.0	965.840	968.303	969.087	969.089	0
1	22102504	289	Low	10.0	Precise	1	8	10	9	4.4	5.0	0.8	9	8	10	0.8	4.4	5.0	2	0.533	0.001	R	10	5.0	969.592	971.225	971.759	971.761	0
1	22102504	290	Low	10.0	Vague	2	14	10	28	3.6	5.0	0.6	28	10	14	0.6	5.0	3.6	2	0.580	0.000	D	10	5.0	972.264	973.290	973.870	973.873	0
1	22102504	291	Low	10.0	Vague	2	13	16	31	5.0	6.7	0.8	13	16	31	5.0	6.7	0.8	2	1.545	0.001	D	16	6.7	974.375	975.230	976.775	976.778	0
1	22102504	292	Low	10.0	Vague	2	14	10	21	3.6	5.0	0.2	10	14	21	5.0	3.6	0.2	2	0.631	0.000	L	10	5.0	977.280	979.664	980.294	980.297	0
1	22102504	293	Low	10.0	Vague	2	14	17	31	3.6	9.0	0.8	17	31	14	9.0	0.8	3.6	2	0.724	0.001	L	17	9.0	980.799	981.443	982.166	982.169	0
1	22102504	294	Low	10.0	Precise	1	10	17	15	5.0	9.0	2.3	10	17	15	5.0	9.0	2.3	2	0.533	0.000	D	17	9.0	982.672	983.745	984.279	984.281	0
1	22102504	295	Low	10.0	Vague	2	10	17	32	5.0	9.0	1.0	17	10	32	9.0	5.0	1.0	2	0.489	0.001	L	17	9.0	984.784	985.549	986.039	986.041	0
1	22102504	296	Low	10.0	Precise	1	14	8	18	3.6	4.4	1.8	14	8	18	3.6	4.4	1.8	2	1.036	0.001	D	8	4.4	986.544	988.531	989.567	989.569	0
1	22102504	297	Low	10.0	Vague	2	14	10	22	3.6	5.0	0.7	22	10	14	0.7	5.0	3.6	2	0.784	0.001	D	10	5.0	990.071	991.343	992.127	992.129	0
1	22102504	298	Low	10.0	Vague	2	14	8	24	3.6	4.4	0.4	8	24	14	4.4	0.4	3.6	2	1.153	0.001	L	8	4.4	992.632	995.606	996.759	996.761	0
1	22102504	299	Low	10.0	Precise	1	14	13	15	3.6	5.0	2.3	13	15	14	5.0	2.3	3.6	1	1.538	0.000	R	14	3.6	997.264	998.772	1000.310	1000.313	0
1	22102504	300	Low	10.0	Precise	1	14	16	6	3.6	6.7	0.5	16	6	14	6.7	0.5	3.6	2	0.940	0.000	L	16	6.7	1000.816	1001.450	1002.390	1002.393	0
1	22102504	301	Low	10.0	Precise	1	13	16	18	5.0	6.7	1.8	16	13	18	6.7	5.0	1.8	2	1.214	0.000	L	16	6.7	1008.131	1010.153	1011.366	1011.369	0
1	22102504	302	Low	10.0	Vague	2	8	10	32	4.4	5.0	1.0	32	8	10	1.0	4.4	5.0	1	1.437	0.000	D	8	4.4	1011.872	1014.417	1015.855	1015.857	0
1	22102504	303	Low	10.0	Precise	1	14	17	18	3.6	9.0	1.8	14	18	17	3.6	1.8	9.0	2	0.640	0.001	R	17	9.0	1016.360	1017.583	1018.223	1018.225	0
1	22102504	304	Low	10.0	Precise	1	14	16	1	3.6	6.7	0.5	16	14	1	6.7	3.6	0.5	1	0.758	0.000	D	14	3.6	1018.727	1020.097	1020.854	1020.857	0
1	22102504	305	Low	10.0	Precise	1	14	8	1	3.6	4.4	0.5	1	14	8	0.5	3.6	4.4	1	0.630	0.001	D	14	3.6	1021.359	1022.368	1022.998	1023.001	0
1	22102504	306	Low	10.0	Vague	2	14	10	31	3.6	5.0	0.8	10	14	31	5.0	3.6	0.8	2	0.688	0.000	L	10	5.0	1023.504	1024.966	1025.654	1025.657	0
1	22102504	307	Low	10.0	Vague	2	10	17	24	5.0	9.0	0.4	17	24	10	9.0	0.4	5.0	2	0.899	0.001	L	17	9.0	1026.160	1026.996	1027.894	1027.897	0
1	22102504	308	Low	10.0	Precise	1	14	8	6	3.6	4.4	0.5	6	8	14	0.5	4.4	3.6	2	0.800	0.000	D	8	4.4	1028.399	1029.871	1030.670	1030.673	0
1	22102504	309	Low	10.0	Precise	1	14	8	15	3.6	4.4	2.3	15	8	14	2.3	4.4	3.6	2	0.620	0.000	D	8	4.4	1031.176	1032.035	1032.655	1032.657	0
1	22102504	310	Low	10.0	Precise	1	13	16	1	5.0	6.7	0.5	16	1	13	6.7	0.5	5.0	2	0.835	0.000	L	16	6.7	1033.160	1034.147	1034.982	1034.985	0
1	22102504	311	Low	10.0	Vague	2	13	16	32	5.0	6.7	1.0	16	13	32	6.7	5.0	1.0	2	0.618	0.000	L	16	6.7	1035.488	1036.397	1037.014	1037.017	0
1	22102504	312	Low	10.0	Precise	1	8	13	3	4.4	5.0	0.5	13	3	8	5.0	0.5	4.4	1	1.196	0.001	R	8	4.4	1037.520	1039.650	1040.846	1040.849	0
1	22102504	313	Low	10.0	Precise	1	10	13	3	5.0	5.0	0.5	13	3	10	5.0	0.5	5.0	1	0.823	0.001	R	10	5.0	1041.351	1042.096	1042.919	1042.921	0
1	22102504	314	Low	10.0	Precise	1	13	17	3	5.0	9.0	0.5	3	17	13	0.5	9.0	5.0	2	0.693	0.001	D	17	9.0	1043.424	1046.234	1046.927	1046.929	0
1	22102504	315	Low	10.0	Vague	2	8	16	31	4.4	6.7	0.8	31	8	16	0.8	4.4	6.7	1	0.915	0.001	D	8	4.4	1047.432	1048.644	1049.559	1049.561	0
1	22102504	316	Low	10.0	Precise	1	14	17	1	3.6	9.0	0.5	14	17	1	3.6	9.0	0.5	2	0.570	0.001	D	17	9.0	1050.063	1052.437	1053.007	1053.009	0
1	22102504	317	Low	10.0	Vague	2	8	13	22	4.4	5.0	0.7	22	13	8	0.7	5.0	4.4	1	0.815	0.000	R	8	4.4	1053.512	1055.663	1056.478	1056.481	0
1	22102504	318	Low	10.0	Precise	1	14	16	18	3.6	6.7	1.8	14	16	18	3.6	6.7	1.8	2	0.726	0.000	D	16	6.7	1056.984	1057.896	1058.622	1058.625	0
1	22102504	319	Low	10.0	Precise	1	14	10	18	3.6	5.0	1.8	10	14	18	5.0	3.6	1.8	2	0.582	0.001	L	10	5.0	1059.128	1059.945	1060.527	1060.529	0
1	22102504	320	Low	10.0	Vague	2	14	16	22	3.6	6.7	0.7	22	14	16	0.7	3.6	6.7	2	0.940	0.000	R	16	6.7	1061.031	1062.234	1063.174	1063.177	0
1	22102504	321	Low	10.0	Precise	1	14	10	1	3.6	5.0	0.5	1	14	10	0.5	3.6	5.0	2	0.663	0.000	R	10	5.0	1063.680	1066.087	1066.750	1066.753	0
1	22102504	322	Low	10.0	Vague	2	8	16	22	4.4	6.7	0.7	8	22	16	4.4	0.7	6.7	2	0.592	0.000	R	16	6.7	1067.256	1068.214	1068.806	1068.809	0
1	22102504	323	Low	10.0	Precise	1	14	13	18	3.6	5.0	1.8	14	18	13	3.6	1.8	5.0	2	0.978	0.001	R	13	5.0	1069.311	1070.437	1071.414	1071.417	0
1	22102504	324	Low	10.0	Vague	2	10	16	32	5.0	6.7	1.0	32	10	16	1.0	5.0	6.7	1	0.858	0.000	D	10	5.0	1071.920	1073.253	1074.110	1074.113	0
1	22102504	325	Low	10.0	Vague	2	8	13	24	4.4	5.0	0.4	13	24	8	5.0	0.4	4.4	1	0.857	0.001	R	8	4.4	1074.616	1076.022	1076.878	1076.881	0
1	22102504	326	Low	10.0	Vague	2	13	16	24	5.0	6.7	0.4	13	24	16	5.0	0.4	6.7	2	0.835	0.000	R	16	6.7	1077.383	1079.828	1080.662	1080.664	0
1	22102504	327	Low	10.0	Precise	1	10	13	9	5.0	5.0	0.8	9	10	13	0.8	5.0	5.0	1	0.779	0.001	D	10	5.0	1081.167	1082.564	1083.342	1083.345	0
1	22102504	328	Low	10.0	Precise	1	14	10	15	3.6	5.0	2.3	10	14	15	5.0	3.6	2.3	2	0.582	0.001	L	10	5.0	1083.847	1085.416	1085.999	1086.001	0
1	22102504	329	Low	10.0	Vague	2	8	17	22	4.4	9.0	0.7	22	8	17	0.7	4.4	9.0	2	0.513	0.001	R	17	9.0	1086.503	1088.229	1088.742	1088.745	0
1	22102504	330	Low	10.0	Precise	1	8	17	6	4.4	9.0	0.5	17	6	8	9.0	0.5	4.4	2	0.812	0.000	L	17	9.0	1089.248	1092.106	1092.918	1092.921	0
1	22102504	331	Low	10.0	Vague	2	16	17	28	6.7	9.0	0.6	17	16	28	9.0	6.7	0.6	2	0.774	0.001	L	17	9.0	1093.423	1095.600	1096.375	1096.377	0
1	22102504	332	Low	10.0	Vague	2	10	13	28	5.0	5.0	0.6	13	10	28	5.0	5.0	0.6	1	0.623	0.001	D	10	5.0	1096.879	1097.824	1098.447	1098.449	0
1	22102504	333	Low	10.0	Precise	1	8	13	18	4.4	5.0	1.8	8	18	13	4.4	1.8	5.0	1	0.640	0.001	L	8	4.4	1098.952	1101.431	1102.071	1102.073	0
1	22102504	334	Low	10.0	Precise	1	8	16	1	4.4	6.7	0.5	1	16	8	0.5	6.7	4.4	1	1.129	0.001	R	8	4.4	1102.576	1105.414	1106.543	1106.545	0
1	22102504	335	Low	10.0	Precise	1	16	17	18	6.7	9.0	1.8	17	16	18	9.0	6.7	1.8	2	1.011	0.001	L	17	9.0	1107.048	1108.971	1109.982	1109.985	0
1	22102504	336	Low	10.0	Precise	1	10	13	15	5.0	5.0	2.3	15	10	13	2.3	5.0	5.0	1	0.767	0.001	D	10	5.0	1110.488	1111.592	1112.358	1112.361	0
1	22102504	337	Low	10.0	Precise	1	8	17	3	4.4	9.0	0.5	3	8	17	0.5	4.4	9.0	2	0.682	0.001	R	17	9.0	1112.863	1113.492	1114.174	1114.177	0
1	22102504	338	Low	10.0	Vague	2	14	13	22	3.6	5.0	0.7	13	14	22	5.0	3.6	0.7	1	1.927	0.000	D	14	3.6	1114.680	1115.920	1117.846	1117.849	0
1	22102504	339	Low	10.0	Vague	2	14	16	31	3.6	6.7	0.8	16	31	14	6.7	0.8	3.6	2	1.110	0.001	L	16	6.7	1118.352	1121.153	1122.262	1122.265	0
1	22102504	340	Low	10.0	Precise	1	8	10	18	4.4	5.0	1.8	10	8	18	5.0	4.4	1.8	2	0.675	0.001	L	10	5.0	1122.768	1123.827	1124.502	1124.505	0
1	22102504	341	Low	10.0	Precise	1	14	13	6	3.6	5.0	0.5	6	14	13	0.5	3.6	5.0	1	2.115	0.001	D	14	3.6	1125.007	1127.563	1129.679	1129.681	0
1	22102504	342	Low	10.0	Vague	2	10	16	31	5.0	6.7	0.8	10	31	16	5.0	0.8	6.7	1	0.680	0.000	L	10	5.0	1130.184	1131.582	1132.262	1132.265	0
1	22102504	343	Low	10.0	Precise	1	10	17	6	5.0	9.0	0.5	10	17	6	5.0	9.0	0.5	1	0.601	0.001	L	10	5.0	1132.768	1134.781	1135.382	1135.385	0
1	22102504	344	Low	10.0	Precise	1	14	8	9	3.6	4.4	0.8	8	9	14	4.4	0.8	3.6	2	1.548	0.001	L	8	4.4	1135.888	1137.091	1138.638	1138.641	0
1	22102504	345	Low	10.0	Precise	1	13	16	3	5.0	6.7	0.5	16	13	3	6.7	5.0	0.5	2	0.762	0.000	L	16	6.7	1139.144	1140.348	1141.110	1141.112	0
1	22102504	346	Low	10.0	Vague	2	14	8	22	3.6	4.4	0.7	8	14	22	4.4	3.6	0.7	2	0.699	0.000	L	8	4.4	1141.615	1144.115	1144.814	1144.818	0
1	22102504	347	Low	10.0	Precise	1	14	13	3	3.6	5.0	0.5	3	14	13	0.5	3.6	5.0	1	0.978	0.000	D	14	3.6	1145.320	1146.964	1147.942	1147.945	0
1	22102504	348	Low	10.0	Precise	1	13	17	6	5.0	9.0	0.5	6	17	13	0.5	9.0	5.0	2	0.611	0.001	D	17	9.0	1148.448	1149.404	1150.014	1150.017	0
1	22102504	349	Low	10.0	Vague	2	8	16	21	4.4	6.7	0.2	8	16	21	4.4	6.7	0.2	1	0.645	0.001	L	8	4.4	1150.520	1152.737	1153.382	1153.385	0
1	22102504	350	Low	10.0	Vague	2	14	17	24	3.6	9.0	0.4	17	14	24	9.0	3.6	0.4	2	0.721	0.000	L	17	9.0	1153.887	1154.405	1155.126	1155.128	0
1	22102504	351	Low	10.0	Vague	2	13	17	24	5.0	9.0	0.4	13	24	17	5.0	0.4	9.0	2	0.673	0.001	R	17	9.0	1155.631	1157.253	1157.926	1157.929	0
1	22102504	352	Low	10.0	Precise	1	14	8	3	3.6	4.4	0.5	3	8	14	0.5	4.4	3.6	2	0.795	0.001	D	8	4.4	1158.432	1161.179	1161.974	1161.977	0
1	22102504	353	Low	10.0	Vague	2	14	17	21	3.6	9.0	0.2	21	17	14	0.2	9.0	3.6	2	0.623	0.001	D	17	9.0	1162.480	1162.984	1163.606	1163.609	0
1	22102504	354	Low	10.0	Precise	1	10	17	9	5.0	9.0	0.8	10	9	17	5.0	0.8	9.0	2	0.627	0.000	R	17	9.0	1164.111	1164.811	1165.438	1165.440	0
1	22102504	355	Low	10.0	Precise	1	13	16	15	5.0	6.7	2.3	16	15	13	6.7	2.3	5.0	2	0.980	0.001	L	16	6.7	1165.943	1168.306	1169.286	1169.289	0
1	22102504	356	Low	10.0	Precise	1	8	10	6	4.4	5.0	0.5	10	8	6	5.0	4.4	0.5	2	0.598	0.000	L	10	5.0	1169.791	1172.584	1173.182	1173.184	0
1	22102504	357	Low	10.0	Vague	2	14	13	32	3.6	5.0	1.0	14	13	32	3.6	5.0	1.0	2	0.646	0.001	D	13	5.0	1173.688	1174.905	1175.550	1175.553	0
1	22102504	358	Low	10.0	Vague	2	16	17	24	6.7	9.0	0.4	24	17	16	0.4	9.0	6.7	2	0.641	0.001	D	17	9.0	1176.055	1177.965	1178.606	1178.609	0
1	22102504	359	Low	10.0	Precise	1	14	17	6	3.6	9.0	0.5	14	6	17	3.6	0.5	9.0	2	0.613	0.001	R	17	9.0	1179.111	1180.826	1181.438	1181.441	0
1	22102504	360	Low	10.0	Vague	2	14	8	21	3.6	4.4	0.2	14	8	21	3.6	4.4	0.2	2	0.871	0.001	D	8	4.4	1181.943	1184.399	1185.270	1185.273	0
