Group	subID	trial	TimePressure	TimeConstraint	Vagueness	Vaguenesscode	ID1	ID2	ID3	V1	V2	V3	ID_left	ID_middle	ID_right	Bid_left	Bid_middle	Bid_right	chosenItem	RT	RTvariance	chosenPosition	chosenID	chosenValue	fixation_time	option_time	choice_time	feedback_time	timeout
2	22071902	1	High	1.5	Vague	2	32	27	1	14.2	21.0	1.6	32	1	27	14.2	1.6	21.0	1	0.494	0.001	L	32	14.2	5.958	8.526	9.020	9.024	0
2	22071902	2	High	1.5	Precise	1	32	24	20	14.2	17.6	1.7	20	24	32	1.7	17.6	14.2	3	0.551	0.001	L	20	1.7	9.528	11.797	12.348	12.350	0
2	22071902	3	High	1.5	Vague	2	33	24	1	14.4	17.6	1.6	24	1	33	17.6	1.6	14.4	2	0.509	0.001	L	24	17.6	12.854	13.518	14.028	14.031	0
2	22071902	4	High	1.5	Vague	2	24	35	11	17.6	26.8	3.8	24	11	35	17.6	3.8	26.8	1	0.387	0.001	L	24	17.6	14.535	17.416	17.804	17.807	0
2	22071902	5	High	1.5	Vague	2	32	24	10	14.2	17.6	2.8	24	10	32	17.6	2.8	14.2	2	0.620	0.001	L	24	17.6	18.310	19.152	19.772	19.776	0
2	22071902	6	High	1.5	Precise	1	32	27	30	14.2	21.0	9.2	32	30	27	14.2	9.2	21.0	1	0.637	0.000	L	32	14.2	20.282	22.286	22.923	22.926	0
2	22071902	7	High	1.5	Precise	1	33	27	28	14.4	21.0	4.6	33	27	28	14.4	21.0	4.6	3	1.265	0.001	R	28	4.6	23.429	26.107	27.372	27.374	0
2	22071902	8	High	1.5	Precise	1	26	24	21	14.5	17.6	1.4	24	26	21	17.6	14.5	1.4	1	1.248	0.001	D	26	14.5	27.877	28.956	30.204	30.206	0
2	22071902	9	High	1.5	Vague	2	33	26	6	14.4	14.5	2.5	26	6	33	14.5	2.5	14.4	2	0.658	0.000	L	26	14.5	30.709	32.985	33.643	33.646	0
2	22071902	10	High	1.5	Vague	2	32	33	10	14.2	14.4	2.8	10	33	32	2.8	14.4	14.2	1	1.314	0.000	R	32	14.2	34.149	35.225	36.540	36.542	0
2	22071902	11	High	1.5	Precise	1	32	27	20	14.2	21.0	1.7	20	32	27	1.7	14.2	21.0	NaN	NaN	NaN	NaN	NaN	NaN	37.045	39.124	NaN	40.614	1
2	22071902	12	High	1.5	Precise	1	32	35	34	14.2	26.8	7.5	34	35	32	7.5	26.8	14.2	3	0.641	0.000	L	34	7.5	42.621	43.690	44.331	44.335	0
2	22071902	13	High	1.5	Precise	1	32	35	23	14.2	26.8	1.3	23	35	32	1.3	26.8	14.2	3	0.000	2.281	L	23	1.3	44.839	46.612	46.612	46.624	0
2	22071902	14	High	1.5	Precise	1	32	24	23	14.2	17.6	1.3	24	32	23	17.6	14.2	1.3	2	0.917	0.001	L	24	17.6	47.126	48.598	49.516	49.518	0
2	22071902	15	High	1.5	Vague	2	26	27	6	14.5	21.0	2.5	6	26	27	2.5	14.5	21.0	2	0.997	0.001	R	27	21.0	50.022	51.591	52.588	52.590	0
2	22071902	16	High	1.5	Vague	2	32	35	1	14.2	26.8	1.6	35	1	32	26.8	1.6	14.2	2	0.656	0.001	L	35	26.8	53.093	53.995	54.652	54.654	0
2	22071902	17	High	1.5	Precise	1	33	24	34	14.4	17.6	7.5	34	33	24	7.5	14.4	17.6	2	0.801	0.001	R	24	17.6	55.158	57.739	58.540	58.542	0
2	22071902	18	High	1.5	Precise	1	24	35	30	17.6	26.8	9.2	30	35	24	9.2	26.8	17.6	1	0.714	0.000	R	24	17.6	59.045	60.465	61.179	61.182	0
2	22071902	19	High	1.5	Vague	2	26	24	1	14.5	17.6	1.6	26	24	1	14.5	17.6	1.6	3	0.585	0.000	R	1	1.6	61.684	64.050	64.636	64.638	0
2	22071902	20	High	1.5	Precise	1	26	35	20	14.5	26.8	1.7	20	26	35	1.7	14.5	26.8	2	0.887	0.000	R	35	26.8	65.141	67.013	67.899	67.902	0
2	22071902	21	High	1.5	Vague	2	26	35	1	14.5	26.8	1.6	26	1	35	14.5	1.6	26.8	2	0.668	0.000	R	35	26.8	68.405	70.608	71.275	71.278	0
2	22071902	22	High	1.5	Precise	1	24	27	28	17.6	21.0	4.6	24	28	27	17.6	4.6	21.0	2	0.762	0.001	R	27	21.0	71.780	73.522	74.284	74.286	0
2	22071902	23	High	1.5	Vague	2	27	35	6	21.0	26.8	2.5	6	27	35	2.5	21.0	26.8	2	0.930	0.000	R	35	26.8	74.790	76.937	77.867	77.870	0
2	22071902	24	High	1.5	Precise	1	24	27	21	17.6	21.0	1.4	24	27	21	17.6	21.0	1.4	1	1.241	0.001	L	24	17.6	78.372	79.171	80.412	80.414	0
2	22071902	25	High	1.5	Vague	2	24	27	1	17.6	21.0	1.6	27	1	24	21.0	1.6	17.6	2	0.658	0.001	L	27	21.0	80.917	83.210	83.868	83.870	0
2	22071902	26	High	1.5	Precise	1	32	26	23	14.2	14.5	1.3	26	23	32	14.5	1.3	14.2	2	0.948	0.000	L	26	14.5	84.374	86.775	87.724	87.726	0
2	22071902	27	High	1.5	Precise	1	33	35	23	14.4	26.8	1.3	33	35	23	14.4	26.8	1.3	2	1.357	0.001	D	35	26.8	88.229	90.415	91.772	91.774	0
2	22071902	28	High	1.5	Vague	2	33	35	11	14.4	26.8	3.8	11	33	35	3.8	14.4	26.8	2	0.667	0.000	R	35	26.8	92.277	93.937	94.603	94.606	0
2	22071902	29	High	1.5	Vague	2	33	24	13	14.4	17.6	5.3	13	33	24	5.3	14.4	17.6	3	1.053	0.000	L	13	5.3	95.109	97.166	98.219	98.222	0
2	22071902	30	High	1.5	Precise	1	32	26	21	14.2	14.5	1.4	21	26	32	1.4	14.5	14.2	2	0.942	0.001	D	26	14.5	98.725	99.534	100.476	100.478	0
2	22071902	31	High	1.5	Vague	2	32	26	1	14.2	14.5	1.6	1	26	32	1.6	14.5	14.2	1	0.814	0.000	R	32	14.2	100.982	103.661	104.475	104.478	0
2	22071902	32	High	1.5	Vague	2	26	24	11	14.5	17.6	3.8	24	11	26	17.6	3.8	14.5	2	0.655	0.001	L	24	17.6	104.981	106.717	107.372	107.374	0
2	22071902	33	High	1.5	Precise	1	33	26	23	14.4	14.5	1.3	26	23	33	14.5	1.3	14.4	2	0.675	0.001	L	26	14.5	107.876	109.641	110.316	110.318	0
2	22071902	34	High	1.5	Vague	2	27	35	11	21.0	26.8	3.8	27	11	35	21.0	3.8	26.8	1	0.619	0.001	L	27	21.0	110.821	113.552	114.172	114.174	0
2	22071902	35	High	1.5	Vague	2	24	35	1	17.6	26.8	1.6	1	35	24	1.6	26.8	17.6	1	0.706	0.000	R	24	17.6	114.677	116.377	117.083	117.086	0
2	22071902	36	High	1.5	Precise	1	33	27	34	14.4	21.0	7.5	34	33	27	7.5	14.4	21.0	3	0.558	0.000	L	34	7.5	117.589	118.446	119.004	119.006	0
2	22071902	37	High	1.5	Precise	1	33	24	21	14.4	17.6	1.4	24	33	21	17.6	14.4	1.4	3	0.837	0.001	R	21	1.4	119.509	121.655	122.492	122.494	0
2	22071902	38	High	1.5	Vague	2	33	24	3	14.4	17.6	3.2	24	33	3	17.6	14.4	3.2	2	0.660	0.001	L	24	17.6	122.998	125.080	125.740	125.742	0
2	22071902	39	High	1.5	Precise	1	33	26	21	14.4	14.5	1.4	21	26	33	1.4	14.5	14.4	3	1.003	0.001	L	21	1.4	126.245	127.409	128.412	128.414	0
2	22071902	40	High	1.5	Vague	2	26	35	3	14.5	26.8	3.2	3	35	26	3.2	26.8	14.5	NaN	NaN	NaN	NaN	NaN	NaN	128.916	131.673	NaN	133.160	1
2	22071902	41	High	1.5	Precise	1	33	26	20	14.4	14.5	1.7	33	20	26	14.4	1.7	14.5	2	0.783	0.001	R	26	14.5	135.163	137.197	137.980	137.982	0
2	22071902	42	High	1.5	Vague	2	33	26	3	14.4	14.5	3.2	33	26	3	14.4	14.5	3.2	3	1.018	0.000	R	3	3.2	138.485	141.409	142.427	142.430	0
2	22071902	43	High	1.5	Vague	2	33	26	11	14.4	14.5	3.8	11	33	26	3.8	14.4	14.5	2	0.674	0.000	R	26	14.5	142.933	145.673	146.347	146.350	0
2	22071902	44	High	1.5	Precise	1	33	35	28	14.4	26.8	4.6	33	28	35	14.4	4.6	26.8	2	0.616	0.000	R	35	26.8	146.853	148.611	149.227	149.230	0
2	22071902	45	High	1.5	Vague	2	24	35	10	17.6	26.8	2.8	35	10	24	26.8	2.8	17.6	2	0.711	0.001	L	35	26.8	149.733	151.076	151.788	151.790	0
2	22071902	46	High	1.5	Precise	1	33	24	23	14.4	17.6	1.3	23	24	33	1.3	17.6	14.4	1	0.798	0.000	R	33	14.4	152.293	154.190	154.988	154.990	0
2	22071902	47	High	1.5	Vague	2	32	33	6	14.2	14.4	2.5	33	6	32	14.4	2.5	14.2	1	1.322	0.000	R	32	14.2	155.492	157.442	158.764	158.766	0
2	22071902	48	High	1.5	Vague	2	26	27	1	14.5	21.0	1.6	26	1	27	14.5	1.6	21.0	1	0.776	0.001	L	26	14.5	159.269	161.636	162.412	162.414	0
2	22071902	49	High	1.5	Precise	1	26	35	28	14.5	26.8	4.6	26	28	35	14.5	4.6	26.8	2	0.623	0.001	R	35	26.8	162.917	164.061	164.684	164.686	0
2	22071902	50	High	1.5	Precise	1	24	35	28	17.6	26.8	4.6	35	28	24	26.8	4.6	17.6	2	0.729	0.000	L	35	26.8	165.189	166.131	166.859	166.862	0
2	22071902	51	High	1.5	Precise	1	33	27	23	14.4	21.0	1.3	23	33	27	1.3	14.4	21.0	NaN	NaN	NaN	NaN	NaN	NaN	167.365	168.206	NaN	169.693	1
2	22071902	52	High	1.5	Vague	2	26	35	6	14.5	26.8	2.5	26	6	35	14.5	2.5	26.8	2	0.528	0.000	R	35	26.8	171.696	174.203	174.732	174.734	0
2	22071902	53	High	1.5	Vague	2	32	26	6	14.2	14.5	2.5	6	26	32	2.5	14.5	14.2	3	1.256	0.001	L	6	2.5	175.237	175.796	177.052	177.054	0
2	22071902	54	High	1.5	Precise	1	32	26	20	14.2	14.5	1.7	32	20	26	14.2	1.7	14.5	2	0.723	0.000	R	26	14.5	177.556	179.000	179.724	179.726	0
2	22071902	55	High	1.5	Vague	2	27	35	3	21.0	26.8	3.2	3	35	27	3.2	26.8	21.0	1	0.809	0.001	R	27	21.0	180.229	181.011	181.820	181.822	0
2	22071902	56	High	1.5	Vague	2	32	24	6	14.2	17.6	2.5	6	32	24	2.5	14.2	17.6	2	0.807	0.000	R	24	17.6	182.325	184.964	185.771	185.774	0
2	22071902	57	High	1.5	Vague	2	33	35	10	14.4	26.8	2.8	35	33	10	26.8	14.4	2.8	2	0.649	0.000	L	35	26.8	186.277	187.267	187.916	187.918	0
2	22071902	58	High	1.5	Precise	1	32	26	28	14.2	14.5	4.6	28	26	32	4.6	14.5	14.2	1	0.830	0.001	R	32	14.2	188.421	189.374	190.204	190.206	0
2	22071902	59	High	1.5	Precise	1	26	27	28	14.5	21.0	4.6	26	27	28	14.5	21.0	4.6	3	0.662	0.001	R	28	4.6	190.709	193.686	194.348	194.351	0
2	22071902	60	High	1.5	Precise	1	24	27	34	17.6	21.0	7.5	27	24	34	21.0	17.6	7.5	2	0.832	0.000	L	27	21.0	194.853	197.787	198.619	198.622	0
2	22071902	61	High	1.5	Vague	2	26	35	11	14.5	26.8	3.8	35	26	11	26.8	14.5	3.8	2	0.637	0.001	L	35	26.8	252.393	255.327	255.964	255.966	0
2	22071902	62	High	1.5	Vague	2	27	35	10	21.0	26.8	2.8	35	10	27	26.8	2.8	21.0	2	0.554	0.000	L	35	26.8	256.470	258.577	259.131	259.134	0
2	22071902	63	High	1.5	Vague	2	32	27	10	14.2	21.0	2.8	10	27	32	2.8	21.0	14.2	3	1.200	0.000	L	10	2.8	259.637	260.172	261.371	261.374	0
2	22071902	64	High	1.5	Vague	2	33	24	11	14.4	17.6	3.8	11	33	24	3.8	14.4	17.6	2	0.576	0.001	R	24	17.6	261.878	263.804	264.380	264.383	0
2	22071902	65	High	1.5	Precise	1	33	35	21	14.4	26.8	1.4	35	21	33	26.8	1.4	14.4	2	0.661	0.000	L	35	26.8	264.886	265.863	266.524	266.526	0
2	22071902	66	High	1.5	Precise	1	26	27	34	14.5	21.0	7.5	26	34	27	14.5	7.5	21.0	1	0.742	0.000	L	26	14.5	267.029	269.990	270.732	270.734	0
2	22071902	67	High	1.5	Precise	1	24	35	21	17.6	26.8	1.4	24	35	21	17.6	26.8	1.4	1	0.596	0.000	L	24	17.6	271.237	272.871	273.467	273.471	0
2	22071902	68	High	1.5	Precise	1	26	24	34	14.5	17.6	7.5	34	26	24	7.5	14.5	17.6	2	1.053	0.000	R	24	17.6	273.974	274.783	275.836	275.838	0
2	22071902	69	High	1.5	Precise	1	32	27	34	14.2	21.0	7.5	34	32	27	7.5	14.2	21.0	2	0.750	0.001	R	27	21.0	276.340	277.470	278.220	278.222	0
2	22071902	70	High	1.5	Precise	1	33	26	34	14.4	14.5	7.5	26	34	33	14.5	7.5	14.4	2	0.635	0.001	L	26	14.5	278.724	281.073	281.708	281.710	0
2	22071902	71	High	1.5	Vague	2	33	27	11	14.4	21.0	3.8	11	27	33	3.8	21.0	14.4	2	0.445	0.001	D	27	21.0	282.212	283.999	284.444	284.446	0
2	22071902	72	High	1.5	Vague	2	32	33	1	14.2	14.4	1.6	1	33	32	1.6	14.4	14.2	1	0.703	0.001	R	32	14.2	284.949	286.109	286.812	286.814	0
2	22071902	73	High	1.5	Precise	1	27	35	20	21.0	26.8	1.7	27	20	35	21.0	1.7	26.8	1	0.585	0.001	L	27	21.0	287.317	287.875	288.460	288.462	0
2	22071902	74	High	1.5	Vague	2	32	27	3	14.2	21.0	3.2	32	3	27	14.2	3.2	21.0	2	0.458	0.000	R	27	21.0	288.964	291.282	291.740	291.742	0
2	22071902	75	High	1.5	Vague	2	33	24	10	14.4	17.6	2.8	10	33	24	2.8	14.4	17.6	2	0.467	0.000	R	24	17.6	292.245	293.481	293.947	293.950	0
2	22071902	76	High	1.5	Vague	2	33	27	3	14.4	21.0	3.2	33	27	3	14.4	21.0	3.2	3	0.609	0.001	R	3	3.2	294.452	296.715	297.324	297.327	0
2	22071902	77	High	1.5	Vague	2	33	26	1	14.4	14.5	1.6	33	1	26	14.4	1.6	14.5	2	0.802	0.000	R	26	14.5	297.830	300.601	301.404	301.406	0
2	22071902	78	High	1.5	Precise	1	32	24	30	14.2	17.6	9.2	24	30	32	17.6	9.2	14.2	1	0.540	0.001	R	32	14.2	301.909	303.936	304.476	304.478	0
2	22071902	79	High	1.5	Precise	1	33	26	28	14.4	14.5	4.6	28	33	26	4.6	14.4	14.5	3	0.498	0.001	L	28	4.6	304.982	307.754	308.252	308.254	0
2	22071902	80	High	1.5	Vague	2	32	24	11	14.2	17.6	3.8	24	11	32	17.6	3.8	14.2	1	0.754	0.001	R	32	14.2	308.757	309.818	310.572	310.574	0
2	22071902	81	High	1.5	Vague	2	26	27	10	14.5	21.0	2.8	27	10	26	21.0	2.8	14.5	2	0.629	0.000	L	27	21.0	311.077	311.862	312.491	312.494	0
2	22071902	82	High	1.5	Vague	2	33	27	6	14.4	21.0	2.5	27	33	6	21.0	14.4	2.5	2	0.598	0.001	L	27	21.0	312.996	315.318	315.916	315.918	0
2	22071902	83	High	1.5	Vague	2	24	27	10	17.6	21.0	2.8	10	24	27	2.8	17.6	21.0	2	0.755	0.000	R	27	21.0	316.422	318.537	319.291	319.294	0
2	22071902	84	High	1.5	Precise	1	26	35	23	14.5	26.8	1.3	35	26	23	26.8	14.5	1.3	2	0.783	0.000	L	35	26.8	319.797	320.748	321.532	321.534	0
2	22071902	85	High	1.5	Precise	1	27	35	28	21.0	26.8	4.6	28	35	27	4.6	26.8	21.0	1	0.775	0.000	R	27	21.0	322.037	324.068	324.844	324.846	0
2	22071902	86	High	1.5	Precise	1	26	24	23	14.5	17.6	1.3	26	23	24	14.5	1.3	17.6	2	0.709	0.000	R	24	17.6	325.349	326.759	327.467	327.470	0
2	22071902	87	High	1.5	Vague	2	32	35	6	14.2	26.8	2.5	32	35	6	14.2	26.8	2.5	3	0.780	0.000	R	6	2.5	327.973	330.703	331.483	331.486	0
2	22071902	88	High	1.5	Vague	2	32	33	11	14.2	14.4	3.8	32	11	33	14.2	3.8	14.4	2	0.888	0.000	R	33	14.4	331.989	334.404	335.291	335.294	0
2	22071902	89	High	1.5	Precise	1	32	33	28	14.2	14.4	4.6	32	33	28	14.2	14.4	4.6	1	0.868	0.000	L	32	14.2	335.797	336.760	337.627	337.630	0
2	22071902	90	High	1.5	Vague	2	33	35	3	14.4	26.8	3.2	35	33	3	26.8	14.4	3.2	2	0.553	0.000	L	35	26.8	338.133	340.258	340.811	340.814	0
2	22071902	91	High	1.5	Vague	2	33	35	1	14.4	26.8	1.6	35	1	33	26.8	1.6	14.4	1	0.541	0.001	R	33	14.4	341.316	344.175	344.716	344.719	0
2	22071902	92	High	1.5	Vague	2	24	35	6	17.6	26.8	2.5	6	35	24	2.5	26.8	17.6	1	0.640	0.001	R	24	17.6	345.221	348.044	348.684	348.686	0
2	22071902	93	High	1.5	Vague	2	26	24	3	14.5	17.6	3.2	24	3	26	17.6	3.2	14.5	2	0.748	0.000	L	24	17.6	349.189	349.887	350.635	350.638	0
2	22071902	94	High	1.5	Precise	1	27	35	23	21.0	26.8	1.3	27	23	35	21.0	1.3	26.8	1	0.915	0.001	L	27	21.0	351.141	351.753	352.668	352.670	0
2	22071902	95	High	1.5	Precise	1	33	35	20	14.4	26.8	1.7	20	35	33	1.7	26.8	14.4	3	0.963	0.000	L	20	1.7	353.173	355.833	356.796	356.798	0
2	22071902	96	High	1.5	Precise	1	32	35	30	14.2	26.8	9.2	30	35	32	9.2	26.8	14.2	1	0.835	0.000	R	32	14.2	357.301	359.833	360.668	360.670	0
2	22071902	97	High	1.5	Precise	1	33	27	21	14.4	21.0	1.4	33	21	27	14.4	1.4	21.0	2	0.665	0.001	R	27	21.0	361.173	362.179	362.844	362.846	0
2	22071902	98	High	1.5	Vague	2	32	35	10	14.2	26.8	2.8	35	10	32	26.8	2.8	14.2	2	0.749	0.000	L	35	26.8	363.349	366.302	367.051	367.054	0
2	22071902	99	High	1.5	Precise	1	26	27	23	14.5	21.0	1.3	27	23	26	21.0	1.3	14.5	2	0.799	0.001	L	27	21.0	367.557	368.157	368.956	368.958	0
2	22071902	100	High	1.5	Precise	1	24	35	20	17.6	26.8	1.7	35	24	20	26.8	17.6	1.7	2	0.811	0.001	L	35	26.8	369.462	371.601	372.412	372.414	0
2	22071902	101	High	1.5	Precise	1	32	33	21	14.2	14.4	1.4	21	33	32	1.4	14.4	14.2	1	0.980	0.000	R	32	14.2	372.917	374.168	375.148	375.150	0
2	22071902	102	High	1.5	Precise	1	24	35	23	17.6	26.8	1.3	35	23	24	26.8	1.3	17.6	1	0.571	0.000	R	24	17.6	375.653	376.897	377.468	377.470	0
2	22071902	103	High	1.5	Precise	1	33	35	34	14.4	26.8	7.5	33	35	34	14.4	26.8	7.5	3	0.588	0.001	R	34	7.5	377.973	379.087	379.676	379.678	0
2	22071902	104	High	1.5	Vague	2	33	26	10	14.4	14.5	2.8	33	26	10	14.4	14.5	2.8	3	1.062	0.000	R	10	2.8	380.181	382.454	383.516	383.518	0
2	22071902	105	High	1.5	Vague	2	32	35	13	14.2	26.8	5.3	13	32	35	5.3	14.2	26.8	2	0.905	0.001	R	35	26.8	384.021	385.235	386.140	386.143	0
2	22071902	106	High	1.5	Vague	2	24	35	13	17.6	26.8	5.3	35	24	13	26.8	17.6	5.3	2	0.726	0.000	L	35	26.8	386.646	388.086	388.812	388.814	0
2	22071902	107	High	1.5	Precise	1	32	26	30	14.2	14.5	9.2	30	32	26	9.2	14.2	14.5	2	0.897	0.001	R	26	14.5	389.317	390.875	391.772	391.774	0
2	22071902	108	High	1.5	Precise	1	26	24	20	14.5	17.6	1.7	26	20	24	14.5	1.7	17.6	2	0.761	0.000	R	24	17.6	392.277	395.235	395.996	395.998	0
2	22071902	109	High	1.5	Precise	1	26	27	21	14.5	21.0	1.4	21	26	27	1.4	14.5	21.0	2	0.815	0.000	R	27	21.0	396.501	398.636	399.452	399.454	0
2	22071902	110	High	1.5	Vague	2	32	33	3	14.2	14.4	3.2	3	32	33	3.2	14.2	14.4	2	1.367	0.000	R	33	14.4	399.956	401.733	403.100	403.102	0
2	22071902	111	High	1.5	Vague	2	33	27	13	14.4	21.0	5.3	13	27	33	5.3	21.0	14.4	2	0.837	0.001	D	27	21.0	403.605	405.735	406.572	406.575	0
2	22071902	112	High	1.5	Vague	2	32	26	11	14.2	14.5	3.8	32	26	11	14.2	14.5	3.8	3	0.853	0.001	R	11	3.8	407.078	409.286	410.140	410.142	0
2	22071902	113	High	1.5	Precise	1	32	33	34	14.2	14.4	7.5	32	34	33	14.2	7.5	14.4	2	0.637	0.000	R	33	14.4	410.645	413.311	413.948	413.950	0
2	22071902	114	High	1.5	Vague	2	24	27	6	17.6	21.0	2.5	24	27	6	17.6	21.0	2.5	1	0.651	0.000	L	24	17.6	414.452	416.705	417.355	417.358	0
2	22071902	115	High	1.5	Vague	2	27	35	1	21.0	26.8	1.6	27	35	1	21.0	26.8	1.6	1	0.716	0.001	L	27	21.0	417.861	420.480	421.196	421.198	0
2	22071902	116	High	1.5	Vague	2	33	26	13	14.4	14.5	5.3	13	33	26	5.3	14.4	14.5	2	0.710	0.001	R	26	14.5	421.701	424.694	425.404	425.406	0
2	22071902	117	High	1.5	Vague	2	24	27	11	17.6	21.0	3.8	11	27	24	3.8	21.0	17.6	1	0.550	0.001	R	24	17.6	425.909	428.742	429.292	429.294	0
2	22071902	118	High	1.5	Vague	2	26	24	13	14.5	17.6	5.3	13	24	26	5.3	17.6	14.5	1	0.619	0.001	R	26	14.5	429.797	431.777	432.396	432.398	0
2	22071902	119	High	1.5	Precise	1	27	35	30	21.0	26.8	9.2	27	35	30	21.0	26.8	9.2	1	0.698	0.000	L	27	21.0	432.901	435.841	436.539	436.542	0
2	22071902	120	High	1.5	Precise	1	32	24	34	14.2	17.6	7.5	24	34	32	17.6	7.5	14.2	1	0.639	0.000	R	32	14.2	437.046	439.021	439.660	439.662	0
2	22071902	121	High	1.5	Vague	2	26	35	13	14.5	26.8	5.3	26	35	13	14.5	26.8	5.3	1	1.062	0.000	L	26	14.5	496.835	499.318	500.380	500.382	0
2	22071902	122	High	1.5	Vague	2	26	27	13	14.5	21.0	5.3	27	13	26	21.0	5.3	14.5	2	0.616	0.001	L	27	21.0	500.885	502.596	503.212	503.214	0
2	22071902	123	High	1.5	Precise	1	24	27	30	17.6	21.0	9.2	27	24	30	21.0	17.6	9.2	2	0.546	0.001	L	27	21.0	503.718	505.546	506.092	506.094	0
2	22071902	124	High	1.5	Vague	2	32	35	3	14.2	26.8	3.2	32	35	3	14.2	26.8	3.2	3	0.789	0.001	R	3	3.2	506.597	508.071	508.860	508.862	0
2	22071902	125	High	1.5	Vague	2	32	24	3	14.2	17.6	3.2	3	24	32	3.2	17.6	14.2	2	1.021	0.000	D	24	17.6	509.366	510.191	511.212	511.214	0
2	22071902	126	High	1.5	Precise	1	26	27	20	14.5	21.0	1.7	27	26	20	21.0	14.5	1.7	2	0.665	0.000	L	27	21.0	511.716	514.098	514.764	514.766	0
2	22071902	127	High	1.5	Vague	2	32	27	11	14.2	21.0	3.8	27	32	11	21.0	14.2	3.8	2	0.565	0.001	L	27	21.0	515.270	515.911	516.476	516.478	0
2	22071902	128	High	1.5	Vague	2	26	27	11	14.5	21.0	3.8	26	11	27	14.5	3.8	21.0	2	0.684	0.000	R	27	21.0	516.981	518.607	519.292	519.294	0
2	22071902	129	High	1.5	Precise	1	26	35	21	14.5	26.8	1.4	21	35	26	1.4	26.8	14.5	1	0.789	0.001	R	26	14.5	519.797	521.159	521.948	521.950	0
2	22071902	130	High	1.5	Vague	2	27	35	13	21.0	26.8	5.3	13	27	35	5.3	21.0	26.8	2	0.782	0.000	R	35	26.8	522.453	523.790	524.572	524.574	0
2	22071902	131	High	1.5	Precise	1	32	33	23	14.2	14.4	1.3	32	33	23	14.2	14.4	1.3	3	0.553	0.001	R	23	1.3	525.077	527.331	527.884	527.886	0
2	22071902	132	High	1.5	Precise	1	26	35	34	14.5	26.8	7.5	26	34	35	14.5	7.5	26.8	2	0.828	0.001	R	35	26.8	528.389	529.520	530.348	530.350	0
2	22071902	133	High	1.5	Precise	1	32	26	34	14.2	14.5	7.5	34	32	26	7.5	14.2	14.5	2	0.766	0.000	R	26	14.5	530.853	532.174	532.940	532.942	0
2	22071902	134	High	1.5	Vague	2	32	35	11	14.2	26.8	3.8	35	32	11	26.8	14.2	3.8	2	0.677	0.001	L	35	26.8	533.445	535.287	535.964	535.966	0
2	22071902	135	High	1.5	Vague	2	33	35	13	14.4	26.8	5.3	33	13	35	14.4	5.3	26.8	2	0.705	0.001	R	35	26.8	536.469	537.419	538.124	538.126	0
2	22071902	136	High	1.5	Vague	2	33	27	1	14.4	21.0	1.6	27	33	1	21.0	14.4	1.6	2	0.721	0.000	L	27	21.0	538.629	541.067	541.788	541.790	0
2	22071902	137	High	1.5	Precise	1	26	24	28	14.5	17.6	4.6	26	28	24	14.5	4.6	17.6	2	0.657	0.000	R	24	17.6	542.293	543.947	544.604	544.606	0
2	22071902	138	High	1.5	Precise	1	33	24	30	14.4	17.6	9.2	33	24	30	14.4	17.6	9.2	3	0.622	0.000	R	30	9.2	545.109	547.885	548.508	548.510	0
2	22071902	139	High	1.5	Precise	1	32	33	20	14.2	14.4	1.7	20	33	32	1.7	14.4	14.2	1	0.868	0.000	R	32	14.2	549.013	550.455	551.324	551.326	0
2	22071902	140	High	1.5	Precise	1	26	27	30	14.5	21.0	9.2	30	27	26	9.2	21.0	14.5	1	1.036	0.001	R	26	14.5	551.829	553.520	554.556	554.558	0
2	22071902	141	High	1.5	Vague	2	26	24	6	14.5	17.6	2.5	26	6	24	14.5	2.5	17.6	2	0.867	0.001	R	24	17.6	555.061	557.977	558.844	558.846	0
2	22071902	142	High	1.5	Vague	2	32	26	3	14.2	14.5	3.2	3	26	32	3.2	14.5	14.2	1	0.741	0.000	R	32	14.2	559.349	561.174	561.916	561.918	0
2	22071902	143	High	1.5	Vague	2	24	27	3	17.6	21.0	3.2	3	27	24	3.2	21.0	17.6	1	0.581	0.001	R	24	17.6	562.421	565.319	565.900	565.902	0
2	22071902	144	High	1.5	Precise	1	24	35	34	17.6	26.8	7.5	35	34	24	26.8	7.5	17.6	2	0.633	0.000	L	35	26.8	566.405	568.803	569.436	569.438	0
2	22071902	145	High	1.5	Vague	2	26	24	10	14.5	17.6	2.8	24	26	10	17.6	14.5	2.8	2	0.517	0.000	L	24	17.6	569.941	572.150	572.668	572.670	0
2	22071902	146	High	1.5	Vague	2	26	35	10	14.5	26.8	2.8	35	10	26	26.8	2.8	14.5	1	0.450	0.001	R	26	14.5	573.173	574.810	575.260	575.262	0
2	22071902	147	High	1.5	Vague	2	32	27	6	14.2	21.0	2.5	27	6	32	21.0	2.5	14.2	2	0.477	0.001	L	27	21.0	575.766	578.078	578.556	578.559	0
2	22071902	148	High	1.5	Vague	2	24	27	13	17.6	21.0	5.3	27	24	13	21.0	17.6	5.3	NaN	NaN	NaN	NaN	NaN	NaN	579.062	579.783	NaN	581.273	1
2	22071902	149	High	1.5	Precise	1	32	27	23	14.2	21.0	1.3	32	23	27	14.2	1.3	21.0	1	0.480	0.001	L	32	14.2	583.276	585.740	586.220	586.223	0
2	22071902	150	High	1.5	Vague	2	32	24	13	14.2	17.6	5.3	32	24	13	14.2	17.6	5.3	3	0.541	0.001	R	13	5.3	586.726	588.559	589.100	589.102	0
2	22071902	151	High	1.5	Precise	1	33	27	30	14.4	21.0	9.2	33	27	30	14.4	21.0	9.2	3	0.432	0.000	R	30	9.2	589.605	592.028	592.460	592.462	0
2	22071902	152	High	1.5	Precise	1	32	35	21	14.2	26.8	1.4	32	21	35	14.2	1.4	26.8	2	0.714	0.001	R	35	26.8	592.964	594.435	595.148	595.150	0
2	22071902	153	High	1.5	Precise	1	26	35	30	14.5	26.8	9.2	35	26	30	26.8	14.5	9.2	2	0.640	0.000	L	35	26.8	595.653	598.156	598.796	598.798	0
2	22071902	154	High	1.5	Vague	2	32	33	13	14.2	14.4	5.3	33	13	32	14.4	5.3	14.2	3	0.628	0.000	D	13	5.3	599.301	602.120	602.748	602.750	0
2	22071902	155	High	1.5	Precise	1	24	27	20	17.6	21.0	1.7	27	24	20	21.0	17.6	1.7	2	0.616	0.001	L	27	21.0	603.253	604.676	605.292	605.294	0
2	22071902	156	High	1.5	Precise	1	32	35	28	14.2	26.8	4.6	32	28	35	14.2	4.6	26.8	2	0.669	0.000	R	35	26.8	605.797	606.975	607.644	607.646	0
2	22071902	157	High	1.5	Precise	1	33	24	28	14.4	17.6	4.6	24	28	33	17.6	4.6	14.4	2	0.478	0.000	L	24	17.6	608.149	610.669	611.148	611.150	0
2	22071902	158	High	1.5	Precise	1	27	35	34	21.0	26.8	7.5	27	35	34	21.0	26.8	7.5	1	0.509	0.001	L	27	21.0	611.652	613.583	614.092	614.094	0
2	22071902	159	High	1.5	Precise	1	26	24	30	14.5	17.6	9.2	26	30	24	14.5	9.2	17.6	2	0.617	0.000	R	24	17.6	614.597	615.410	616.028	616.030	0
2	22071902	160	High	1.5	Precise	1	33	27	20	14.4	21.0	1.7	27	20	33	21.0	1.7	14.4	2	0.587	0.001	L	27	21.0	616.533	618.576	619.164	619.166	0
2	22071902	161	High	1.5	Precise	1	33	26	30	14.4	14.5	9.2	30	26	33	9.2	14.5	14.4	1	0.795	0.001	R	33	14.4	619.670	620.497	621.292	621.294	0
2	22071902	162	High	1.5	Precise	1	32	35	20	14.2	26.8	1.7	35	32	20	26.8	14.2	1.7	3	0.490	0.000	R	20	1.7	621.797	624.738	625.228	625.230	0
2	22071902	163	High	1.5	Precise	1	33	35	30	14.4	26.8	9.2	35	33	30	26.8	14.4	9.2	2	0.589	0.001	L	35	26.8	625.733	626.735	627.324	627.326	0
2	22071902	164	High	1.5	Precise	1	24	27	23	17.6	21.0	1.3	24	23	27	17.6	1.3	21.0	1	0.552	0.000	L	24	17.6	627.829	630.483	631.036	631.038	0
2	22071902	165	High	1.5	Vague	2	24	35	3	17.6	26.8	3.2	35	24	3	26.8	17.6	3.2	2	0.630	0.001	L	35	26.8	631.541	634.502	635.132	635.134	0
2	22071902	166	High	1.5	Precise	1	32	27	28	14.2	21.0	4.6	32	28	27	14.2	4.6	21.0	2	0.605	0.000	R	27	21.0	635.638	636.687	637.292	637.294	0
2	22071902	167	High	1.5	Vague	2	33	24	6	14.4	17.6	2.5	33	24	6	14.4	17.6	2.5	3	0.678	0.000	R	6	2.5	637.797	640.726	641.404	641.406	0
2	22071902	168	High	1.5	Vague	2	33	35	6	14.4	26.8	2.5	33	35	6	14.4	26.8	2.5	NaN	NaN	NaN	NaN	NaN	NaN	641.909	643.991	NaN	645.479	1
2	22071902	169	High	1.5	Precise	1	27	35	21	21.0	26.8	1.4	35	27	21	26.8	21.0	1.4	2	0.593	0.001	L	35	26.8	647.482	649.819	650.412	650.414	0
2	22071902	170	High	1.5	Vague	2	33	27	10	14.4	21.0	2.8	10	27	33	2.8	21.0	14.4	1	0.549	0.001	R	33	14.4	650.918	653.799	654.348	654.350	0
2	22071902	171	High	1.5	Vague	2	32	27	13	14.2	21.0	5.3	32	27	13	14.2	21.0	5.3	3	0.611	0.000	R	13	5.3	654.853	656.073	656.684	656.686	0
2	22071902	172	High	1.5	Vague	2	32	24	1	14.2	17.6	1.6	32	1	24	14.2	1.6	17.6	2	0.524	0.000	R	24	17.6	657.189	659.664	660.188	660.190	0
2	22071902	173	High	1.5	Precise	1	33	24	20	14.4	17.6	1.7	20	24	33	1.7	17.6	14.4	1	0.830	0.000	R	33	14.4	660.692	663.614	664.444	664.446	0
2	22071902	174	High	1.5	Precise	1	32	24	28	14.2	17.6	4.6	32	28	24	14.2	4.6	17.6	2	0.949	0.000	R	24	17.6	664.949	666.534	667.484	667.486	0
2	22071902	175	High	1.5	Vague	2	32	26	13	14.2	14.5	5.3	13	26	32	5.3	14.5	14.2	1	0.616	0.000	R	32	14.2	667.989	668.739	669.356	669.358	0
2	22071902	176	High	1.5	Precise	1	32	24	21	14.2	17.6	1.4	32	24	21	14.2	17.6	1.4	2	0.557	0.001	D	24	17.6	669.861	672.255	672.812	672.815	0
2	22071902	177	High	1.5	Precise	1	32	27	21	14.2	21.0	1.4	21	27	32	1.4	21.0	14.2	2	0.465	0.001	D	27	21.0	673.318	675.579	676.044	676.046	0
2	22071902	178	High	1.5	Vague	2	26	27	3	14.5	21.0	3.2	3	27	26	3.2	21.0	14.5	1	0.676	0.000	R	26	14.5	676.549	677.880	678.556	678.558	0
2	22071902	179	High	1.5	Precise	1	32	33	30	14.2	14.4	9.2	30	33	32	9.2	14.4	14.2	1	0.534	0.001	R	32	14.2	679.062	681.189	681.724	681.726	0
2	22071902	180	High	1.5	Vague	2	32	26	10	14.2	14.5	2.8	32	10	26	14.2	2.8	14.5	2	0.561	0.000	R	26	14.5	682.229	683.211	683.772	683.774	0
2	22071902	181	Low	10.0	Vague	2	32	26	17	14.2	14.5	2.6	32	26	17	14.2	14.5	2.6	2	2.243	0.001	D	26	14.5	732.269	733.497	735.740	735.742	0
2	22071902	182	Low	10.0	Precise	1	26	24	25	14.5	17.6	2.6	24	25	26	17.6	2.6	14.5	3	1.693	0.001	D	25	2.6	736.246	737.631	739.324	739.326	0
2	22071902	183	Low	10.0	Vague	2	32	26	8	14.2	14.5	3.1	26	8	32	14.5	3.1	14.2	3	1.906	0.000	D	8	3.1	739.829	742.602	744.508	744.510	0
2	22071902	184	Low	10.0	Vague	2	32	24	5	14.2	17.6	5.1	24	5	32	17.6	5.1	14.2	2	0.658	0.001	L	24	17.6	745.013	746.634	747.292	747.294	0
2	22071902	185	Low	10.0	Precise	1	33	24	31	14.4	17.6	5.2	31	24	33	5.2	17.6	14.4	1	1.358	0.000	R	33	14.4	747.797	748.734	750.092	750.094	0
2	22071902	186	Low	10.0	Precise	1	33	35	19	14.4	26.8	1.3	33	19	35	14.4	1.3	26.8	2	0.907	0.001	R	35	26.8	750.597	751.649	752.556	752.558	0
2	22071902	187	Low	10.0	Vague	2	26	24	2	14.5	17.6	2.4	26	24	2	14.5	17.6	2.4	2	0.627	0.001	D	24	17.6	753.061	754.521	755.148	755.150	0
2	22071902	188	Low	10.0	Vague	2	33	35	7	14.4	26.8	1.5	7	33	35	1.5	14.4	26.8	2	0.706	0.000	R	35	26.8	755.653	757.642	758.348	758.350	0
2	22071902	189	Low	10.0	Vague	2	32	27	8	14.2	21.0	3.1	32	8	27	14.2	3.1	21.0	2	1.294	0.000	R	27	21.0	758.854	759.565	760.860	760.862	0
2	22071902	190	Low	10.0	Vague	2	33	26	5	14.4	14.5	5.1	26	5	33	14.5	5.1	14.4	1	1.120	0.000	R	33	14.4	761.365	762.299	763.420	763.422	0
2	22071902	191	Low	10.0	Vague	2	24	35	17	17.6	26.8	2.6	35	24	17	26.8	17.6	2.6	2	0.648	0.001	L	35	26.8	763.925	765.796	766.444	766.446	0
2	22071902	192	Low	10.0	Precise	1	33	35	36	14.4	26.8	8.1	33	35	36	14.4	26.8	8.1	3	0.635	0.000	R	36	8.1	766.949	768.689	769.324	769.327	0
2	22071902	193	Low	10.0	Vague	2	26	24	7	14.5	17.6	1.5	26	24	7	14.5	17.6	1.5	3	0.723	0.001	R	7	1.5	769.829	770.873	771.596	771.598	0
2	22071902	194	Low	10.0	Vague	2	24	27	5	17.6	21.0	5.1	27	24	5	21.0	17.6	5.1	2	0.890	0.001	L	27	21.0	772.101	773.266	774.156	774.158	0
2	22071902	195	Low	10.0	Precise	1	26	27	29	14.5	21.0	12.1	27	29	26	21.0	12.1	14.5	1	0.677	0.001	R	26	14.5	774.661	777.606	778.284	778.287	0
2	22071902	196	Low	10.0	Precise	1	27	35	22	21.0	26.8	1.6	27	22	35	21.0	1.6	26.8	2	0.677	0.000	R	35	26.8	778.789	780.327	781.004	781.006	0
2	22071902	197	Low	10.0	Vague	2	33	26	8	14.4	14.5	3.1	8	26	33	3.1	14.5	14.4	1	0.651	0.001	R	33	14.4	781.509	783.217	783.868	783.870	0
2	22071902	198	Low	10.0	Precise	1	27	35	25	21.0	26.8	2.6	27	25	35	21.0	2.6	26.8	1	0.650	0.000	L	27	21.0	784.372	786.897	787.548	787.550	0
2	22071902	199	Low	10.0	Precise	1	26	35	36	14.5	26.8	8.1	26	35	36	14.5	26.8	8.1	3	0.632	0.001	R	36	8.1	788.053	790.804	791.436	791.439	0
2	22071902	200	Low	10.0	Vague	2	32	33	12	14.2	14.4	3.4	32	12	33	14.2	3.4	14.4	2	0.734	0.000	R	33	14.4	791.941	794.286	795.020	795.022	0
2	22071902	201	Low	10.0	Vague	2	26	27	2	14.5	21.0	2.4	26	27	2	14.5	21.0	2.4	2	1.143	0.001	D	27	21.0	795.525	797.749	798.892	798.895	0
2	22071902	202	Low	10.0	Vague	2	26	35	17	14.5	26.8	2.6	26	17	35	14.5	2.6	26.8	2	1.679	0.000	R	35	26.8	799.398	800.141	801.820	801.822	0
2	22071902	203	Low	10.0	Precise	1	33	27	29	14.4	21.0	12.1	27	33	29	21.0	14.4	12.1	2	0.636	0.000	L	27	21.0	802.325	805.232	805.868	805.870	0
2	22071902	204	Low	10.0	Vague	2	32	33	17	14.2	14.4	2.6	32	33	17	14.2	14.4	2.6	3	0.734	0.000	R	17	2.6	806.374	807.662	808.396	808.399	0
2	22071902	205	Low	10.0	Precise	1	27	35	29	21.0	26.8	12.1	27	29	35	21.0	12.1	26.8	1	0.543	0.000	L	27	21.0	808.902	810.861	811.404	811.406	0
2	22071902	206	Low	10.0	Precise	1	27	35	19	21.0	26.8	1.3	35	19	27	26.8	1.3	21.0	1	1.138	0.001	R	27	21.0	811.909	814.554	815.692	815.694	0
2	22071902	207	Low	10.0	Vague	2	32	35	2	14.2	26.8	2.4	2	35	32	2.4	26.8	14.2	1	0.825	0.000	R	32	14.2	816.197	818.979	819.804	819.806	0
2	22071902	208	Low	10.0	Precise	1	26	35	31	14.5	26.8	5.2	26	31	35	14.5	5.2	26.8	2	0.710	0.000	R	35	26.8	820.309	823.030	823.740	823.742	0
2	22071902	209	Low	10.0	Precise	1	33	35	22	14.4	26.8	1.6	22	33	35	1.6	14.4	26.8	2	0.588	0.001	R	35	26.8	824.246	826.448	827.036	827.038	0
2	22071902	210	Low	10.0	Vague	2	26	24	5	14.5	17.6	5.1	26	24	5	14.5	17.6	5.1	3	0.719	0.001	R	5	5.1	827.542	829.357	830.076	830.079	0
2	22071902	211	Low	10.0	Vague	2	27	35	12	21.0	26.8	3.4	12	35	27	3.4	26.8	21.0	2	0.949	0.001	D	35	26.8	830.582	832.039	832.988	832.990	0
2	22071902	212	Low	10.0	Precise	1	33	24	36	14.4	17.6	8.1	36	24	33	8.1	17.6	14.4	1	0.846	0.000	R	33	14.4	833.493	835.262	836.108	836.110	0
2	22071902	213	Low	10.0	Precise	1	33	26	22	14.4	14.5	1.6	26	33	22	14.5	14.4	1.6	1	1.491	0.001	D	33	14.4	836.613	838.729	840.220	840.222	0
2	22071902	214	Low	10.0	Vague	2	32	33	2	14.2	14.4	2.4	32	33	2	14.2	14.4	2.4	1	2.509	0.000	L	32	14.2	840.725	843.327	845.836	845.838	0
2	22071902	215	Low	10.0	Precise	1	26	24	19	14.5	17.6	1.3	24	19	26	17.6	1.3	14.5	2	0.704	0.000	L	24	17.6	846.341	848.940	849.644	849.646	0
2	22071902	216	Low	10.0	Precise	1	26	27	22	14.5	21.0	1.6	27	26	22	21.0	14.5	1.6	2	0.624	0.001	L	27	21.0	850.149	851.756	852.380	852.382	0
2	22071902	217	Low	10.0	Precise	1	26	27	36	14.5	21.0	8.1	26	36	27	14.5	8.1	21.0	2	0.598	0.000	R	27	21.0	852.886	854.662	855.260	855.262	0
2	22071902	218	Low	10.0	Precise	1	32	27	31	14.2	21.0	5.2	27	31	32	21.0	5.2	14.2	2	0.812	0.000	L	27	21.0	855.765	856.464	857.276	857.278	0
2	22071902	219	Low	10.0	Vague	2	24	27	8	17.6	21.0	3.1	24	8	27	17.6	3.1	21.0	2	0.691	0.001	R	27	21.0	857.781	859.576	860.268	860.270	0
2	22071902	220	Low	10.0	Precise	1	26	35	22	14.5	26.8	1.6	26	22	35	14.5	1.6	26.8	2	0.567	0.001	R	35	26.8	860.773	863.061	863.628	863.630	0
2	22071902	221	Low	10.0	Vague	2	26	35	2	14.5	26.8	2.4	2	26	35	2.4	14.5	26.8	2	0.560	0.001	R	35	26.8	864.134	865.484	866.044	866.046	0
2	22071902	222	Low	10.0	Vague	2	32	27	17	14.2	21.0	2.6	17	27	32	2.6	21.0	14.2	1	0.620	0.001	R	32	14.2	866.549	868.384	869.004	869.006	0
2	22071902	223	Low	10.0	Vague	2	33	24	8	14.4	17.6	3.1	33	8	24	14.4	3.1	17.6	2	0.749	0.000	R	24	17.6	869.509	872.191	872.940	872.943	0
2	22071902	224	Low	10.0	Vague	2	33	27	17	14.4	21.0	2.6	27	17	33	21.0	2.6	14.4	2	0.697	0.000	L	27	21.0	873.446	875.106	875.804	875.806	0
2	22071902	225	Low	10.0	Precise	1	33	26	36	14.4	14.5	8.1	33	26	36	14.4	14.5	8.1	3	0.601	0.000	R	36	8.1	876.309	879.027	879.628	879.630	0
2	22071902	226	Low	10.0	Vague	2	33	35	12	14.4	26.8	3.4	35	33	12	26.8	14.4	3.4	3	0.592	0.001	R	12	3.4	880.133	881.084	881.676	881.678	0
2	22071902	227	Low	10.0	Precise	1	32	35	22	14.2	26.8	1.6	32	35	22	14.2	26.8	1.6	1	0.679	0.001	L	32	14.2	882.181	882.693	883.372	883.374	0
2	22071902	228	Low	10.0	Precise	1	32	24	19	14.2	17.6	1.3	19	32	24	1.3	14.2	17.6	2	0.555	0.001	R	24	17.6	883.878	886.689	887.244	887.247	0
2	22071902	229	Low	10.0	Precise	1	26	24	36	14.5	17.6	8.1	24	36	26	17.6	8.1	14.5	2	0.718	0.000	L	24	17.6	887.749	889.870	890.588	890.590	0
2	22071902	230	Low	10.0	Precise	1	33	24	25	14.4	17.6	2.6	33	24	25	14.4	17.6	2.6	3	0.644	0.000	R	25	2.6	891.093	892.680	893.324	893.326	0
2	22071902	231	Low	10.0	Vague	2	33	27	8	14.4	21.0	3.1	27	8	33	21.0	3.1	14.4	2	0.692	0.001	L	27	21.0	893.829	894.696	895.388	895.390	0
2	22071902	232	Low	10.0	Precise	1	32	35	19	14.2	26.8	1.3	32	35	19	14.2	26.8	1.3	1	1.248	0.001	L	32	14.2	895.894	896.476	897.724	897.726	0
2	22071902	233	Low	10.0	Vague	2	32	33	8	14.2	14.4	3.1	8	32	33	3.1	14.2	14.4	3	0.780	0.000	L	8	3.1	898.229	901.024	901.804	901.806	0
2	22071902	234	Low	10.0	Vague	2	33	35	17	14.4	26.8	2.6	33	35	17	14.4	26.8	2.6	3	0.665	0.000	R	17	2.6	902.309	905.155	905.820	905.822	0
2	22071902	235	Low	10.0	Precise	1	33	35	25	14.4	26.8	2.6	35	25	33	26.8	2.6	14.4	2	1.040	0.000	L	35	26.8	906.327	908.780	909.820	909.822	0
2	22071902	236	Low	10.0	Precise	1	24	35	19	17.6	26.8	1.3	24	35	19	17.6	26.8	1.3	3	0.641	0.001	R	19	1.3	910.325	912.715	913.356	913.358	0
2	22071902	237	Low	10.0	Precise	1	33	26	31	14.4	14.5	5.2	26	31	33	14.5	5.2	14.4	2	1.249	0.000	L	26	14.5	913.861	914.587	915.836	915.838	0
2	22071902	238	Low	10.0	Vague	2	24	27	12	17.6	21.0	3.4	27	12	24	21.0	3.4	17.6	2	0.665	0.001	L	27	21.0	916.341	918.995	919.660	919.662	0
2	22071902	239	Low	10.0	Vague	2	33	24	17	14.4	17.6	2.6	17	33	24	2.6	14.4	17.6	2	0.708	0.001	R	24	17.6	920.166	921.464	922.172	922.175	0
2	22071902	240	Low	10.0	Precise	1	32	27	25	14.2	21.0	2.6	27	32	25	21.0	14.2	2.6	3	0.493	0.001	R	25	2.6	922.678	924.543	925.036	925.039	0
2	22071902	241	Low	10.0	Precise	1	26	35	29	14.5	26.8	12.1	35	26	29	26.8	14.5	12.1	2	0.617	0.000	L	35	26.8	958.073	959.971	960.588	960.590	0
2	22071902	242	Low	10.0	Precise	1	33	24	29	14.4	17.6	12.1	33	29	24	14.4	12.1	17.6	2	0.721	0.001	R	24	17.6	961.093	962.491	963.212	963.214	0
2	22071902	243	Low	10.0	Precise	1	32	35	36	14.2	26.8	8.1	32	36	35	14.2	8.1	26.8	2	0.656	0.001	R	35	26.8	963.717	965.773	966.428	966.431	0
2	22071902	244	Low	10.0	Vague	2	24	35	12	17.6	26.8	3.4	35	24	12	26.8	17.6	3.4	2	0.760	0.001	L	35	26.8	966.933	968.100	968.860	968.862	0
2	22071902	245	Low	10.0	Vague	2	33	24	12	14.4	17.6	3.4	24	33	12	17.6	14.4	3.4	2	0.663	0.001	L	24	17.6	969.365	970.597	971.260	971.262	0
2	22071902	246	Low	10.0	Precise	1	32	26	36	14.2	14.5	8.1	26	32	36	14.5	14.2	8.1	3	0.555	0.001	R	36	8.1	971.765	973.329	973.884	973.887	0
2	22071902	247	Low	10.0	Precise	1	32	33	31	14.2	14.4	5.2	31	33	32	5.2	14.4	14.2	1	1.230	0.001	R	32	14.2	974.389	975.358	976.588	976.590	0
2	22071902	248	Low	10.0	Precise	1	24	27	36	17.6	21.0	8.1	24	36	27	17.6	8.1	21.0	2	0.539	0.000	R	27	21.0	977.093	978.065	978.604	978.606	0
2	22071902	249	Low	10.0	Precise	1	33	26	19	14.4	14.5	1.3	33	26	19	14.4	14.5	1.3	3	0.453	0.000	R	19	1.3	979.109	980.423	980.876	980.878	0
2	22071902	250	Low	10.0	Precise	1	32	35	29	14.2	26.8	12.1	32	29	35	14.2	12.1	26.8	2	0.832	0.001	R	35	26.8	981.381	984.188	985.020	985.022	0
2	22071902	251	Low	10.0	Vague	2	26	35	5	14.5	26.8	5.1	26	35	5	14.5	26.8	5.1	2	0.916	0.000	D	35	26.8	985.525	987.688	988.604	988.606	0
2	22071902	252	Low	10.0	Precise	1	32	33	22	14.2	14.4	1.6	32	22	33	14.2	1.6	14.4	2	1.008	0.001	R	33	14.4	989.109	991.516	992.524	992.527	0
2	22071902	253	Low	10.0	Vague	2	32	33	7	14.2	14.4	1.5	32	7	33	14.2	1.5	14.4	1	0.589	0.000	L	32	14.2	993.031	995.967	996.556	996.558	0
2	22071902	254	Low	10.0	Vague	2	26	27	7	14.5	21.0	1.5	26	27	7	14.5	21.0	1.5	1	0.518	0.001	L	26	14.5	997.062	998.519	999.036	999.039	0
2	22071902	255	Low	10.0	Vague	2	24	35	2	17.6	26.8	2.4	24	35	2	17.6	26.8	2.4	1	0.597	0.000	L	24	17.6	999.542	1000.726	1001.324	1001.327	0
2	22071902	256	Low	10.0	Vague	2	26	27	12	14.5	21.0	3.4	12	26	27	3.4	14.5	21.0	2	0.899	0.000	R	27	21.0	1001.829	1004.585	1005.484	1005.487	0
2	22071902	257	Low	10.0	Precise	1	32	33	25	14.2	14.4	2.6	32	25	33	14.2	2.6	14.4	2	1.118	0.001	R	33	14.4	1005.990	1006.702	1007.820	1007.823	0
2	22071902	258	Low	10.0	Vague	2	26	35	8	14.5	26.8	3.1	26	8	35	14.5	3.1	26.8	2	0.916	0.000	R	35	26.8	1008.326	1009.399	1010.316	1010.318	0
2	22071902	259	Low	10.0	Precise	1	32	26	19	14.2	14.5	1.3	19	32	26	1.3	14.2	14.5	2	0.672	0.000	R	26	14.5	1010.821	1011.532	1012.204	1012.207	0
2	22071902	260	Low	10.0	Precise	1	33	27	31	14.4	21.0	5.2	27	33	31	21.0	14.4	5.2	2	0.717	0.000	L	27	21.0	1012.710	1015.262	1015.980	1015.982	0
2	22071902	261	Low	10.0	Vague	2	32	24	8	14.2	17.6	3.1	32	24	8	14.2	17.6	3.1	3	0.510	0.000	R	8	3.1	1016.485	1017.806	1018.316	1018.318	0
2	22071902	262	Low	10.0	Precise	1	26	27	31	14.5	21.0	5.2	26	31	27	14.5	5.2	21.0	2	0.446	0.000	R	27	21.0	1018.821	1021.774	1022.220	1022.222	0
2	22071902	263	Low	10.0	Vague	2	33	24	5	14.4	17.6	5.1	24	33	5	17.6	14.4	5.1	2	0.728	0.000	L	24	17.6	1022.725	1023.925	1024.652	1024.654	0
2	22071902	264	Low	10.0	Precise	1	32	24	29	14.2	17.6	12.1	32	24	29	14.2	17.6	12.1	3	0.923	0.000	R	29	12.1	1025.157	1027.713	1028.636	1028.639	0
2	22071902	265	Low	10.0	Precise	1	33	24	19	14.4	17.6	1.3	19	24	33	1.3	17.6	14.4	2	0.555	0.001	D	24	17.6	1029.142	1031.569	1032.124	1032.127	0
2	22071902	266	Low	10.0	Precise	1	32	33	29	14.2	14.4	12.1	33	32	29	14.4	14.2	12.1	3	1.037	0.000	R	29	12.1	1032.629	1033.647	1034.684	1034.686	0
2	22071902	267	Low	10.0	Precise	1	24	27	29	17.6	21.0	12.1	27	24	29	21.0	17.6	12.1	1	0.490	0.001	D	24	17.6	1035.189	1036.434	1036.924	1036.926	0
2	22071902	268	Low	10.0	Precise	1	24	35	22	17.6	26.8	1.6	35	24	22	26.8	17.6	1.6	2	0.713	0.001	L	35	26.8	1037.429	1038.131	1038.844	1038.846	0
2	22071902	269	Low	10.0	Vague	2	32	24	12	14.2	17.6	3.4	12	32	24	3.4	14.2	17.6	2	0.497	0.000	R	24	17.6	1039.349	1041.595	1042.092	1042.094	0
2	22071902	270	Low	10.0	Precise	1	32	33	19	14.2	14.4	1.3	19	32	33	1.3	14.2	14.4	2	0.732	0.001	R	33	14.4	1042.597	1044.208	1044.940	1044.942	0
2	22071902	271	Low	10.0	Vague	2	33	26	12	14.4	14.5	3.4	12	33	26	3.4	14.4	14.5	2	0.544	0.000	R	26	14.5	1045.445	1047.995	1048.540	1048.542	0
2	22071902	272	Low	10.0	Precise	1	32	24	36	14.2	17.6	8.1	32	36	24	14.2	8.1	17.6	2	0.608	0.000	R	24	17.6	1049.045	1049.692	1050.300	1050.302	0
2	22071902	273	Low	10.0	Precise	1	33	35	31	14.4	26.8	5.2	35	33	31	26.8	14.4	5.2	3	0.475	0.001	R	31	5.2	1050.805	1052.657	1053.132	1053.134	0
2	22071902	274	Low	10.0	Vague	2	24	35	7	17.6	26.8	1.5	24	7	35	17.6	1.5	26.8	2	0.555	0.000	R	35	26.8	1053.637	1056.145	1056.700	1056.702	0
2	22071902	275	Low	10.0	Vague	2	32	26	12	14.2	14.5	3.4	26	12	32	14.5	3.4	14.2	1	1.160	0.001	R	32	14.2	1057.205	1058.260	1059.420	1059.423	0
2	22071902	276	Low	10.0	Vague	2	24	27	2	17.6	21.0	2.4	2	27	24	2.4	21.0	17.6	1	0.619	0.001	R	24	17.6	1059.925	1062.353	1062.972	1062.974	0
2	22071902	277	Low	10.0	Vague	2	33	24	2	14.4	17.6	2.4	33	24	2	14.4	17.6	2.4	3	0.727	0.001	R	2	2.4	1063.478	1065.701	1066.428	1066.430	0
2	22071902	278	Low	10.0	Precise	1	24	35	36	17.6	26.8	8.1	24	36	35	17.6	8.1	26.8	1	0.772	0.000	L	24	17.6	1066.933	1068.087	1068.860	1068.862	0
2	22071902	279	Low	10.0	Vague	2	32	33	5	14.2	14.4	5.1	5	32	33	5.1	14.2	14.4	2	2.226	0.000	R	33	14.4	1069.365	1070.842	1073.068	1073.071	0
2	22071902	280	Low	10.0	Vague	2	26	27	8	14.5	21.0	3.1	8	26	27	3.1	14.5	21.0	2	0.633	0.001	R	27	21.0	1073.573	1074.787	1075.420	1075.422	0
2	22071902	281	Low	10.0	Precise	1	26	24	22	14.5	17.6	1.6	22	26	24	1.6	14.5	17.6	2	0.597	0.001	R	24	17.6	1075.925	1076.775	1077.372	1077.375	0
2	22071902	282	Low	10.0	Precise	1	26	24	29	14.5	17.6	12.1	26	29	24	14.5	12.1	17.6	2	0.612	0.001	R	24	17.6	1077.877	1078.488	1079.100	1079.102	0
2	22071902	283	Low	10.0	Vague	2	26	35	12	14.5	26.8	3.4	12	26	35	3.4	14.5	26.8	2	0.545	0.000	R	35	26.8	1079.605	1082.091	1082.636	1082.638	0
2	22071902	284	Low	10.0	Precise	1	32	27	22	14.2	21.0	1.6	32	22	27	14.2	1.6	21.0	2	0.540	0.000	R	27	21.0	1083.142	1085.248	1085.788	1085.791	0
2	22071902	285	Low	10.0	Vague	2	33	26	7	14.4	14.5	1.5	7	33	26	1.5	14.4	14.5	2	0.591	0.001	R	26	14.5	1086.294	1088.925	1089.516	1089.519	0
2	22071902	286	Low	10.0	Vague	2	33	35	2	14.4	26.8	2.4	33	35	2	14.4	26.8	2.4	3	0.606	0.000	R	2	2.4	1090.022	1092.014	1092.620	1092.622	0
2	22071902	287	Low	10.0	Precise	1	33	27	22	14.4	21.0	1.6	33	27	22	14.4	21.0	1.6	2	0.584	0.001	D	27	21.0	1093.125	1095.524	1096.108	1096.111	0
2	22071902	288	Low	10.0	Precise	1	32	33	36	14.2	14.4	8.1	32	33	36	14.2	14.4	8.1	3	0.618	0.001	R	36	8.1	1096.613	1097.666	1098.284	1098.286	0
2	22071902	289	Low	10.0	Vague	2	27	35	17	21.0	26.8	2.6	35	17	27	26.8	2.6	21.0	1	0.566	0.000	R	27	21.0	1098.790	1101.046	1101.612	1101.614	0
2	22071902	290	Low	10.0	Vague	2	32	35	17	14.2	26.8	2.6	32	35	17	14.2	26.8	2.6	3	0.509	0.001	R	17	2.6	1102.117	1104.415	1104.924	1104.927	0
2	22071902	291	Low	10.0	Vague	2	24	35	5	17.6	26.8	5.1	35	24	5	26.8	17.6	5.1	1	0.898	0.000	D	24	17.6	1105.429	1107.770	1108.668	1108.671	0
2	22071902	292	Low	10.0	Vague	2	33	24	7	14.4	17.6	1.5	7	33	24	1.5	14.4	17.6	2	0.538	0.000	R	24	17.6	1109.174	1112.050	1112.588	1112.590	0
2	22071902	293	Low	10.0	Vague	2	32	26	5	14.2	14.5	5.1	26	5	32	14.5	5.1	14.2	1	0.662	0.001	R	32	14.2	1113.093	1113.654	1114.316	1114.319	0
2	22071902	294	Low	10.0	Vague	2	26	27	17	14.5	21.0	2.6	17	26	27	2.6	14.5	21.0	2	0.647	0.001	R	27	21.0	1114.821	1117.365	1118.012	1118.015	0
2	22071902	295	Low	10.0	Vague	2	24	35	8	17.6	26.8	3.1	24	35	8	17.6	26.8	3.1	1	0.633	0.000	L	24	17.6	1118.517	1120.483	1121.116	1121.119	0
2	22071902	296	Low	10.0	Precise	1	26	35	25	14.5	26.8	2.6	35	25	26	26.8	2.6	14.5	2	0.733	0.000	L	35	26.8	1121.621	1122.847	1123.580	1123.582	0
2	22071902	297	Low	10.0	Vague	2	32	35	7	14.2	26.8	1.5	32	7	35	14.2	1.5	26.8	2	0.529	0.000	R	35	26.8	1124.085	1125.563	1126.092	1126.094	0
2	22071902	298	Low	10.0	Precise	1	32	35	31	14.2	26.8	5.2	31	32	35	5.2	14.2	26.8	2	0.522	0.001	R	35	26.8	1126.597	1127.362	1127.884	1127.888	0
2	22071902	299	Low	10.0	Precise	1	24	27	31	17.6	21.0	5.2	31	24	27	5.2	17.6	21.0	2	0.422	0.001	R	27	21.0	1128.390	1130.566	1130.988	1130.991	0
2	22071902	300	Low	10.0	Precise	1	27	35	31	21.0	26.8	5.2	35	31	27	26.8	5.2	21.0	1	0.433	0.000	R	27	21.0	1131.494	1133.211	1133.644	1133.646	0
2	22071902	301	Low	10.0	Vague	2	32	24	2	14.2	17.6	2.4	24	2	32	17.6	2.4	14.2	2	0.829	0.000	L	24	17.6	1156.135	1156.639	1157.468	1157.470	0
2	22071902	302	Low	10.0	Precise	1	26	24	31	14.5	17.6	5.2	26	31	24	14.5	5.2	17.6	2	0.539	0.000	R	24	17.6	1157.973	1159.889	1160.428	1160.430	0
2	22071902	303	Low	10.0	Precise	1	33	24	22	14.4	17.6	1.6	24	33	22	17.6	14.4	1.6	2	0.845	0.000	L	24	17.6	1160.933	1161.551	1162.396	1162.398	0
2	22071902	304	Low	10.0	Vague	2	24	27	17	17.6	21.0	2.6	24	27	17	17.6	21.0	2.6	1	0.504	0.001	L	24	17.6	1162.901	1164.932	1165.436	1165.438	0
2	22071902	305	Low	10.0	Vague	2	33	26	17	14.4	14.5	2.6	17	33	26	2.6	14.4	14.5	2	0.657	0.001	R	26	14.5	1165.941	1168.139	1168.796	1168.798	0
2	22071902	306	Low	10.0	Precise	1	33	26	25	14.4	14.5	2.6	33	25	26	14.4	2.6	14.5	2	0.628	0.000	R	26	14.5	1169.301	1170.040	1170.668	1170.671	0
2	22071902	307	Low	10.0	Vague	2	26	24	17	14.5	17.6	2.6	24	26	17	17.6	14.5	2.6	2	0.679	0.000	L	24	17.6	1171.173	1172.325	1173.004	1173.006	0
2	22071902	308	Low	10.0	Precise	1	24	27	22	17.6	21.0	1.6	27	24	22	21.0	17.6	1.6	2	0.630	0.000	L	27	21.0	1173.510	1174.278	1174.908	1174.910	0
2	22071902	309	Low	10.0	Vague	2	32	27	5	14.2	21.0	5.1	5	32	27	5.1	14.2	21.0	2	0.531	0.000	R	27	21.0	1175.414	1177.017	1177.548	1177.550	0
2	22071902	310	Low	10.0	Precise	1	32	24	25	14.2	17.6	2.6	25	32	24	2.6	14.2	17.6	2	0.528	0.000	R	24	17.6	1178.053	1179.340	1179.868	1179.870	0
2	22071902	311	Low	10.0	Precise	1	32	27	19	14.2	21.0	1.3	32	19	27	14.2	1.3	21.0	2	0.454	0.001	R	27	21.0	1180.373	1182.678	1183.132	1183.134	0
2	22071902	312	Low	10.0	Vague	2	32	26	7	14.2	14.5	1.5	7	26	32	1.5	14.5	14.2	1	0.486	0.001	R	32	14.2	1183.638	1186.550	1187.036	1187.038	0
2	22071902	313	Low	10.0	Precise	1	32	24	22	14.2	17.6	1.6	32	24	22	14.2	17.6	1.6	3	0.625	0.001	R	22	1.6	1187.541	1188.380	1189.004	1189.007	0
2	22071902	314	Low	10.0	Vague	2	33	35	5	14.4	26.8	5.1	33	35	5	14.4	26.8	5.1	2	0.474	0.001	D	35	26.8	1189.509	1191.586	1192.060	1192.063	0
2	22071902	315	Low	10.0	Precise	1	24	35	31	17.6	26.8	5.2	24	35	31	17.6	26.8	5.2	2	0.563	0.001	D	35	26.8	1192.565	1195.369	1195.932	1195.935	0
2	22071902	316	Low	10.0	Precise	1	24	35	25	17.6	26.8	2.6	24	35	25	17.6	26.8	2.6	1	0.687	0.000	L	24	17.6	1196.438	1198.381	1199.068	1199.071	0
2	22071902	317	Low	10.0	Precise	1	32	27	29	14.2	21.0	12.1	27	29	32	21.0	12.1	14.2	1	0.603	0.001	R	32	14.2	1199.573	1201.905	1202.508	1202.510	0
2	22071902	318	Low	10.0	Precise	1	32	24	31	14.2	17.6	5.2	24	32	31	17.6	14.2	5.2	2	0.534	0.001	L	24	17.6	1203.013	1204.502	1205.036	1205.039	0
2	22071902	319	Low	10.0	Vague	2	32	35	12	14.2	26.8	3.4	12	35	32	3.4	26.8	14.2	1	0.565	0.000	R	32	14.2	1205.541	1208.264	1208.828	1208.830	0
2	22071902	320	Low	10.0	Vague	2	27	35	8	21.0	26.8	3.1	35	8	27	26.8	3.1	21.0	1	0.646	0.000	R	27	21.0	1209.333	1209.925	1210.572	1210.575	0
2	22071902	321	Low	10.0	Precise	1	33	27	19	14.4	21.0	1.3	19	27	33	1.3	21.0	14.4	1	0.610	0.001	R	33	14.4	1211.077	1212.986	1213.596	1213.598	0
2	22071902	322	Low	10.0	Vague	2	24	27	7	17.6	21.0	1.5	24	27	7	17.6	21.0	1.5	3	0.692	0.001	R	7	1.5	1214.101	1216.872	1217.564	1217.567	0
2	22071902	323	Low	10.0	Vague	2	32	27	12	14.2	21.0	3.4	27	12	32	21.0	3.4	14.2	1	1.363	0.000	R	32	14.2	1218.070	1219.545	1220.908	1220.910	0
2	22071902	324	Low	10.0	Precise	1	26	35	19	14.5	26.8	1.3	19	35	26	1.3	26.8	14.5	2	2.816	0.001	D	35	26.8	1221.413	1223.100	1225.916	1225.919	0
2	22071902	325	Low	10.0	Vague	2	27	35	7	21.0	26.8	1.5	27	7	35	21.0	1.5	26.8	2	0.818	0.000	R	35	26.8	1226.422	1227.226	1228.044	1228.046	0
2	22071902	326	Low	10.0	Precise	1	33	35	29	14.4	26.8	12.1	29	35	33	12.1	26.8	14.4	1	0.583	0.001	R	33	14.4	1228.549	1230.085	1230.668	1230.670	0
2	22071902	327	Low	10.0	Vague	2	32	24	7	14.2	17.6	1.5	24	7	32	17.6	1.5	14.2	2	0.721	0.000	L	24	17.6	1231.173	1233.755	1234.476	1234.478	0
2	22071902	328	Low	10.0	Precise	1	24	35	29	17.6	26.8	12.1	35	29	24	26.8	12.1	17.6	2	0.797	0.000	L	35	26.8	1234.982	1237.326	1238.124	1238.126	0
2	22071902	329	Low	10.0	Precise	1	24	27	19	17.6	21.0	1.3	27	19	24	21.0	1.3	17.6	2	0.595	0.000	L	27	21.0	1238.630	1239.577	1240.172	1240.175	0
2	22071902	330	Low	10.0	Vague	2	26	24	8	14.5	17.6	3.1	24	26	8	17.6	14.5	3.1	2	0.496	0.001	L	24	17.6	1240.678	1242.348	1242.844	1242.847	0
2	22071902	331	Low	10.0	Vague	2	32	26	2	14.2	14.5	2.4	26	2	32	14.5	2.4	14.2	1	0.764	0.001	R	32	14.2	1243.350	1246.272	1247.036	1247.039	0
2	22071902	332	Low	10.0	Vague	2	27	35	5	21.0	26.8	5.1	5	27	35	5.1	21.0	26.8	2	0.591	0.001	R	35	26.8	1247.542	1248.958	1249.548	1249.551	0
2	22071902	333	Low	10.0	Vague	2	32	35	8	14.2	26.8	3.1	8	35	32	3.1	26.8	14.2	1	0.585	0.000	R	32	14.2	1250.053	1252.803	1253.388	1253.391	0
2	22071902	334	Low	10.0	Precise	1	32	26	29	14.2	14.5	12.1	32	29	26	14.2	12.1	14.5	2	0.582	0.001	R	26	14.5	1253.894	1255.303	1255.884	1255.887	0
2	22071902	335	Low	10.0	Vague	2	33	35	8	14.4	26.8	3.1	33	8	35	14.4	3.1	26.8	2	0.450	0.001	R	35	26.8	1256.390	1258.042	1258.492	1258.494	0
2	22071902	336	Low	10.0	Vague	2	27	35	2	21.0	26.8	2.4	27	35	2	21.0	26.8	2.4	3	1.560	0.001	R	2	2.4	1258.998	1259.524	1261.084	1261.087	0
2	22071902	337	Low	10.0	Precise	1	33	26	29	14.4	14.5	12.1	29	26	33	12.1	14.5	14.4	3	0.425	0.001	L	29	12.1	1261.589	1263.363	1263.788	1263.790	0
2	22071902	338	Low	10.0	Vague	2	32	35	5	14.2	26.8	5.1	32	5	35	14.2	5.1	26.8	2	0.437	0.001	R	35	26.8	1264.293	1266.935	1267.372	1267.375	0
2	22071902	339	Low	10.0	Precise	1	33	27	25	14.4	21.0	2.6	33	25	27	14.4	2.6	21.0	2	0.521	0.000	R	27	21.0	1267.878	1269.939	1270.460	1270.463	0
2	22071902	340	Low	10.0	Precise	1	32	35	25	14.2	26.8	2.6	25	35	32	2.6	26.8	14.2	1	0.476	0.000	R	32	14.2	1270.965	1272.848	1273.324	1273.327	0
2	22071902	341	Low	10.0	Vague	2	26	24	12	14.5	17.6	3.4	26	24	12	14.5	17.6	3.4	3	0.541	0.000	R	12	3.4	1273.829	1275.119	1275.660	1275.662	0
2	22071902	342	Low	10.0	Precise	1	32	26	31	14.2	14.5	5.2	26	32	31	14.5	14.2	5.2	3	0.476	0.000	R	31	5.2	1276.165	1278.016	1278.492	1278.494	0
2	22071902	343	Low	10.0	Vague	2	32	27	2	14.2	21.0	2.4	32	27	2	14.2	21.0	2.4	2	1.064	0.000	D	27	21.0	1278.997	1279.556	1280.620	1280.622	0
2	22071902	344	Low	10.0	Vague	2	33	26	2	14.4	14.5	2.4	33	26	2	14.4	14.5	2.4	2	0.544	0.001	D	26	14.5	1281.126	1282.364	1282.908	1282.911	0
2	22071902	345	Low	10.0	Precise	1	24	27	25	17.6	21.0	2.6	27	25	24	21.0	2.6	17.6	2	1.064	0.001	L	27	21.0	1283.413	1284.196	1285.260	1285.262	0
2	22071902	346	Low	10.0	Vague	2	33	27	12	14.4	21.0	3.4	33	12	27	14.4	3.4	21.0	2	0.482	0.001	R	27	21.0	1285.765	1288.459	1288.940	1288.943	0
2	22071902	347	Low	10.0	Precise	1	32	26	22	14.2	14.5	1.6	26	32	22	14.5	14.2	1.6	3	0.513	0.000	R	22	1.6	1289.446	1290.571	1291.084	1291.086	0
2	22071902	348	Low	10.0	Precise	1	27	35	36	21.0	26.8	8.1	27	35	36	21.0	26.8	8.1	3	0.406	0.001	R	36	8.1	1291.589	1293.158	1293.564	1293.567	0
2	22071902	349	Low	10.0	Precise	1	32	26	25	14.2	14.5	2.6	26	32	25	14.5	14.2	2.6	3	0.754	0.000	R	25	2.6	1294.071	1295.162	1295.916	1295.918	0
2	22071902	350	Low	10.0	Precise	1	26	27	19	14.5	21.0	1.3	26	19	27	14.5	1.3	21.0	2	1.343	0.001	R	27	21.0	1296.421	1297.005	1298.348	1298.351	0
2	22071902	351	Low	10.0	Vague	2	32	24	17	14.2	17.6	2.6	32	24	17	14.2	17.6	2.6	2	0.877	0.001	D	24	17.6	1298.853	1301.327	1302.204	1302.207	0
2	22071902	352	Low	10.0	Precise	1	33	27	36	14.4	21.0	8.1	33	36	27	14.4	8.1	21.0	2	0.826	0.001	R	27	21.0	1302.709	1304.850	1305.676	1305.679	0
2	22071902	353	Low	10.0	Vague	2	33	27	7	14.4	21.0	1.5	7	27	33	1.5	21.0	14.4	1	2.501	0.001	R	33	14.4	1306.181	1306.712	1309.212	1309.215	0
2	22071902	354	Low	10.0	Precise	1	26	27	25	14.5	21.0	2.6	27	25	26	21.0	2.6	14.5	1	0.729	0.000	R	26	14.5	1309.717	1310.386	1311.116	1311.118	0
2	22071902	355	Low	10.0	Vague	2	32	27	7	14.2	21.0	1.5	7	27	32	1.5	21.0	14.2	2	0.761	0.000	D	27	21.0	1311.621	1312.291	1313.052	1313.055	0
2	22071902	356	Low	10.0	Vague	2	33	27	5	14.4	21.0	5.1	27	33	5	21.0	14.4	5.1	3	0.506	0.000	R	5	5.1	1313.558	1314.641	1315.148	1315.150	0
2	22071902	357	Low	10.0	Precise	1	32	27	36	14.2	21.0	8.1	36	27	32	8.1	21.0	14.2	3	0.508	0.000	L	36	8.1	1315.653	1317.520	1318.028	1318.030	0
2	22071902	358	Low	10.0	Vague	2	26	35	7	14.5	26.8	1.5	7	26	35	1.5	14.5	26.8	2	0.671	0.000	R	35	26.8	1318.533	1320.301	1320.972	1320.975	0
2	22071902	359	Low	10.0	Vague	2	33	27	2	14.4	21.0	2.4	27	33	2	21.0	14.4	2.4	3	0.572	0.001	R	2	2.4	1321.478	1322.080	1322.652	1322.655	0
2	22071902	360	Low	10.0	Vague	2	26	27	5	14.5	21.0	5.1	26	5	27	14.5	5.1	21.0	1	0.534	0.001	L	26	14.5	1323.158	1325.254	1325.788	1325.791	0
