Group	subID	trial	TimePressure	TimeConstraint	Vagueness	Vaguenesscode	ID1	ID2	ID3	V1	V2	V3	ID_left	ID_middle	ID_right	Bid_left	Bid_middle	Bid_right	chosenItem	RT	RTvariance	chosenPosition	chosenID	chosenValue	fixation_time	option_time	choice_time	feedback_time	timeout
1	22102408	1	High	1.5	Precise	1	13	17	3	5.0	5.0	0.0	17	3	13	5.0	0.0	5.0	2	1.276	0.000	L	17	5.0	5.580	8.538	9.813	9.817	0
1	22102408	2	High	1.5	Precise	1	9	18	3	2.7	10.0	0.0	3	18	9	0.0	10.0	2.7	NaN	NaN	NaN	NaN	NaN	NaN	10.321	13.310	NaN	14.799	1
1	22102408	3	High	1.5	Precise	1	4	17	6	1.7	5.0	0.0	17	6	4	5.0	0.0	1.7	NaN	NaN	NaN	NaN	NaN	NaN	16.806	19.503	NaN	20.991	1
1	22102408	4	High	1.5	Vague	2	14	17	30	3.5	5.0	0.0	14	30	17	3.5	0.0	5.0	1	0.949	0.001	L	14	3.5	22.994	25.641	26.589	26.593	0
1	22102408	5	High	1.5	Precise	1	13	18	1	5.0	10.0	0.0	1	18	13	0.0	10.0	5.0	1	0.976	0.000	R	13	5.0	27.097	28.662	29.637	29.642	0
1	22102408	6	High	1.5	Precise	1	4	13	3	1.7	5.0	0.0	4	3	13	1.7	0.0	5.0	2	1.137	0.000	R	13	5.0	30.147	30.780	31.917	31.920	0
1	22102408	7	High	1.5	Precise	1	13	17	12	5.0	5.0	0.0	13	12	17	5.0	0.0	5.0	2	1.248	0.001	R	17	5.0	32.422	34.709	35.958	35.960	0
1	22102408	8	High	1.5	Precise	1	4	13	16	1.7	5.0	0.0	16	13	4	0.0	5.0	1.7	2	1.312	0.000	D	13	5.0	36.463	37.533	38.845	38.848	0
1	22102408	9	High	1.5	Precise	1	4	18	8	1.7	10.0	0.0	8	18	4	0.0	10.0	1.7	2	0.925	0.000	D	18	10.0	39.351	41.680	42.605	42.608	0
1	22102408	10	High	1.5	Precise	1	4	18	16	1.7	10.0	0.0	4	16	18	1.7	0.0	10.0	2	0.942	0.001	R	18	10.0	43.111	44.240	45.182	45.184	0
1	22102408	11	High	1.5	Precise	1	4	17	1	1.7	5.0	0.0	4	17	1	1.7	5.0	0.0	2	1.378	0.001	D	17	5.0	45.687	48.571	49.950	49.952	0
1	22102408	12	High	1.5	Precise	1	4	14	1	1.7	3.5	0.0	14	1	4	3.5	0.0	1.7	2	1.313	0.001	L	14	3.5	50.455	51.732	53.046	53.048	0
1	22102408	13	High	1.5	Precise	1	9	18	8	2.7	10.0	0.0	18	8	9	10.0	0.0	2.7	2	1.040	0.000	L	18	10.0	53.552	54.301	55.341	55.344	0
1	22102408	14	High	1.5	Precise	1	4	13	12	1.7	5.0	0.0	13	4	12	5.0	1.7	0.0	2	1.415	0.000	L	13	5.0	55.847	57.799	59.213	59.216	0
1	22102408	15	High	1.5	Vague	2	9	17	30	2.7	5.0	0.0	30	17	9	0.0	5.0	2.7	1	1.245	0.000	R	9	2.7	59.718	60.368	61.614	61.616	0
1	22102408	16	High	1.5	Vague	2	9	14	30	2.7	3.5	0.0	14	9	30	3.5	2.7	0.0	NaN	NaN	NaN	NaN	NaN	NaN	62.119	62.706	NaN	64.192	1
1	22102408	17	High	1.5	Vague	2	4	14	23	1.7	3.5	0.0	14	4	23	3.5	1.7	0.0	2	1.388	0.000	L	14	3.5	66.197	66.730	68.117	68.121	0
1	22102408	18	High	1.5	Vague	2	9	18	21	2.7	10.0	0.0	9	18	21	2.7	10.0	0.0	1	1.042	0.001	L	9	2.7	68.624	71.043	72.086	72.088	0
1	22102408	19	High	1.5	Vague	2	4	14	21	1.7	3.5	0.0	14	21	4	3.5	0.0	1.7	2	1.159	0.000	L	14	3.5	72.591	74.742	75.901	75.904	0
1	22102408	20	High	1.5	Precise	1	17	18	12	5.0	10.0	0.0	12	18	17	0.0	10.0	5.0	NaN	NaN	NaN	NaN	NaN	NaN	76.407	77.360	NaN	78.846	1
1	22102408	21	High	1.5	Precise	1	4	14	6	1.7	3.5	0.0	4	6	14	1.7	0.0	3.5	NaN	NaN	NaN	NaN	NaN	NaN	80.849	83.032	NaN	84.519	1
1	22102408	22	High	1.5	Vague	2	9	18	33	2.7	10.0	0.0	33	18	9	0.0	10.0	2.7	1	0.845	0.001	R	9	2.7	86.523	87.617	88.462	88.464	0
1	22102408	23	High	1.5	Precise	1	9	14	6	2.7	3.5	0.0	14	9	6	3.5	2.7	0.0	1	1.355	0.000	D	9	2.7	88.966	91.386	92.742	92.744	0
1	22102408	24	High	1.5	Vague	2	14	18	27	3.5	10.0	0.0	27	18	14	0.0	10.0	3.5	2	0.941	0.001	D	18	10.0	93.247	93.953	94.894	94.896	0
1	22102408	25	High	1.5	Vague	2	9	17	33	2.7	5.0	0.0	33	17	9	0.0	5.0	2.7	1	0.955	0.000	R	9	2.7	95.399	97.043	97.998	98.000	0
1	22102408	26	High	1.5	Vague	2	13	17	23	5.0	5.0	0.0	13	23	17	5.0	0.0	5.0	1	1.084	0.000	L	13	5.0	98.503	99.986	101.070	101.072	0
1	22102408	27	High	1.5	Precise	1	9	13	12	2.7	5.0	0.0	13	12	9	5.0	0.0	2.7	2	1.242	0.000	L	13	5.0	101.574	102.499	103.742	103.744	0
1	22102408	28	High	1.5	Precise	1	4	9	16	1.7	2.7	0.0	16	9	4	0.0	2.7	1.7	2	1.108	0.000	D	9	2.7	104.247	105.522	106.629	106.632	0
1	22102408	29	High	1.5	Vague	2	17	18	21	5.0	10.0	0.0	21	17	18	0.0	5.0	10.0	1	1.310	0.000	D	17	5.0	107.134	108.415	109.725	109.728	0
1	22102408	30	High	1.5	Vague	2	4	17	33	1.7	5.0	0.0	4	33	17	1.7	0.0	5.0	2	1.219	0.001	R	17	5.0	110.231	113.123	114.342	114.344	0
1	22102408	31	High	1.5	Precise	1	9	14	16	2.7	3.5	0.0	14	9	16	3.5	2.7	0.0	NaN	NaN	NaN	NaN	NaN	NaN	114.846	115.531	NaN	117.018	1
1	22102408	32	High	1.5	Vague	2	14	13	30	3.5	5.0	0.0	13	30	14	5.0	0.0	3.5	1	0.992	0.000	R	14	3.5	119.021	121.606	122.598	122.600	0
1	22102408	33	High	1.5	Vague	2	4	14	19	1.7	3.5	0.0	4	14	19	1.7	3.5	0.0	2	1.178	0.001	D	14	3.5	123.103	125.164	126.342	126.344	0
1	22102408	34	High	1.5	Vague	2	9	17	19	2.7	5.0	0.0	9	19	17	2.7	0.0	5.0	1	1.086	0.000	L	9	2.7	126.847	127.856	128.942	128.944	0
1	22102408	35	High	1.5	Precise	1	14	13	3	3.5	5.0	0.0	13	3	14	5.0	0.0	3.5	2	0.828	0.000	L	13	5.0	129.446	130.969	131.797	131.800	0
1	22102408	36	High	1.5	Vague	2	4	18	21	1.7	10.0	0.0	21	18	4	0.0	10.0	1.7	2	0.692	0.001	D	18	10.0	132.302	133.682	134.374	134.376	0
1	22102408	37	High	1.5	Vague	2	9	13	33	2.7	5.0	0.0	13	9	33	5.0	2.7	0.0	2	1.090	0.001	L	13	5.0	134.878	135.451	136.542	136.544	0
1	22102408	38	High	1.5	Vague	2	14	17	21	3.5	5.0	0.0	14	21	17	3.5	0.0	5.0	1	1.104	0.001	L	14	3.5	137.048	138.982	140.086	140.088	0
1	22102408	39	High	1.5	Precise	1	4	17	3	1.7	5.0	0.0	3	4	17	0.0	1.7	5.0	2	1.184	0.000	R	17	5.0	140.592	142.934	144.117	144.120	0
1	22102408	40	High	1.5	Precise	1	4	14	8	1.7	3.5	0.0	14	4	8	3.5	1.7	0.0	NaN	NaN	NaN	NaN	NaN	NaN	144.623	146.186	NaN	147.672	1
1	22102408	41	High	1.5	Vague	2	13	17	19	5.0	5.0	0.0	19	13	17	0.0	5.0	5.0	2	0.923	0.001	R	17	5.0	149.675	151.619	152.542	152.544	0
1	22102408	42	High	1.5	Precise	1	9	14	12	2.7	3.5	0.0	14	12	9	3.5	0.0	2.7	1	1.120	0.000	R	9	2.7	153.047	154.981	156.102	156.104	0
1	22102408	43	High	1.5	Vague	2	4	14	27	1.7	3.5	0.0	4	14	27	1.7	3.5	0.0	2	1.124	0.000	D	14	3.5	156.606	157.209	158.333	158.336	0
1	22102408	44	High	1.5	Precise	1	4	9	1	1.7	2.7	0.0	1	9	4	0.0	2.7	1.7	2	1.109	0.000	D	9	2.7	158.838	161.425	162.533	162.536	0
1	22102408	45	High	1.5	Precise	1	14	18	12	3.5	10.0	0.0	12	14	18	0.0	3.5	10.0	2	0.897	0.000	R	18	10.0	163.039	164.148	165.045	165.048	0
1	22102408	46	High	1.5	Precise	1	9	18	6	2.7	10.0	0.0	18	6	9	10.0	0.0	2.7	2	0.720	0.000	L	18	10.0	165.551	168.190	168.909	168.912	0
1	22102408	47	High	1.5	Precise	1	17	18	3	5.0	10.0	0.0	3	18	17	0.0	10.0	5.0	1	0.938	0.000	R	17	5.0	169.415	170.947	171.885	171.888	0
1	22102408	48	High	1.5	Vague	2	4	18	30	1.7	10.0	0.0	30	18	4	0.0	10.0	1.7	2	0.630	0.001	D	18	10.0	172.390	174.952	175.582	175.584	0
1	22102408	49	High	1.5	Precise	1	9	13	1	2.7	5.0	0.0	13	9	1	5.0	2.7	0.0	1	1.040	0.001	D	9	2.7	176.088	178.158	179.198	179.200	0
1	22102408	50	High	1.5	Vague	2	4	18	19	1.7	10.0	0.0	18	19	4	10.0	0.0	1.7	2	0.907	0.000	L	18	10.0	179.703	180.394	181.301	181.304	0
1	22102408	51	High	1.5	Vague	2	4	9	19	1.7	2.7	0.0	4	19	9	1.7	0.0	2.7	1	1.271	0.001	L	4	1.7	181.807	183.975	185.246	185.249	0
1	22102408	52	High	1.5	Vague	2	9	13	19	2.7	5.0	0.0	13	9	19	5.0	2.7	0.0	2	0.806	0.000	L	13	5.0	185.752	187.591	188.397	188.400	0
1	22102408	53	High	1.5	Precise	1	4	14	12	1.7	3.5	0.0	4	14	12	1.7	3.5	0.0	2	1.239	0.000	D	14	3.5	188.902	190.318	191.558	191.560	0
1	22102408	54	High	1.5	Vague	2	17	18	33	5.0	10.0	0.0	18	17	33	10.0	5.0	0.0	2	0.840	0.001	L	18	10.0	192.062	194.414	195.254	195.256	0
1	22102408	55	High	1.5	Precise	1	4	17	8	1.7	5.0	0.0	8	17	4	0.0	5.0	1.7	2	0.976	0.001	D	17	5.0	195.759	198.726	199.702	199.704	0
1	22102408	56	High	1.5	Vague	2	14	13	33	3.5	5.0	0.0	14	13	33	3.5	5.0	0.0	1	0.968	0.000	L	14	3.5	200.207	201.565	202.533	202.536	0
1	22102408	57	High	1.5	Vague	2	17	18	19	5.0	10.0	0.0	18	19	17	10.0	0.0	5.0	2	0.833	0.000	L	18	10.0	203.039	204.653	205.486	205.488	0
1	22102408	58	High	1.5	Vague	2	9	14	27	2.7	3.5	0.0	9	27	14	2.7	0.0	3.5	1	1.036	0.000	L	9	2.7	205.990	208.945	209.981	209.984	0
1	22102408	59	High	1.5	Precise	1	9	13	8	2.7	5.0	0.0	9	13	8	2.7	5.0	0.0	2	1.076	0.000	D	13	5.0	210.487	212.194	213.270	213.272	0
1	22102408	60	High	1.5	Precise	1	17	18	8	5.0	10.0	0.0	17	18	8	5.0	10.0	0.0	2	1.289	0.000	D	18	10.0	213.775	216.261	217.550	217.552	0
1	22102408	61	High	1.5	Vague	2	9	17	23	2.7	5.0	0.0	23	17	9	0.0	5.0	2.7	NaN	NaN	NaN	NaN	NaN	NaN	250.416	253.042	NaN	254.531	1
1	22102408	62	High	1.5	Vague	2	13	17	21	5.0	5.0	0.0	13	21	17	5.0	0.0	5.0	1	1.005	0.000	L	13	5.0	256.533	259.296	260.302	260.304	0
1	22102408	63	High	1.5	Precise	1	4	13	6	1.7	5.0	0.0	13	6	4	5.0	0.0	1.7	2	0.922	0.000	L	13	5.0	260.808	262.483	263.406	263.408	0
1	22102408	64	High	1.5	Precise	1	13	17	6	5.0	5.0	0.0	17	13	6	5.0	5.0	0.0	1	0.959	0.000	D	13	5.0	263.912	266.551	267.510	267.512	0
1	22102408	65	High	1.5	Vague	2	4	9	33	1.7	2.7	0.0	33	9	4	0.0	2.7	1.7	NaN	NaN	NaN	NaN	NaN	NaN	268.015	270.138	NaN	271.624	1
1	22102408	66	High	1.5	Precise	1	14	17	12	3.5	5.0	0.0	12	17	14	0.0	5.0	3.5	2	1.147	0.000	D	17	5.0	273.626	275.931	277.078	277.080	0
1	22102408	67	High	1.5	Vague	2	13	18	30	5.0	10.0	0.0	13	30	18	5.0	0.0	10.0	1	0.997	0.000	L	13	5.0	277.583	278.593	279.590	279.592	0
1	22102408	68	High	1.5	Precise	1	9	14	1	2.7	3.5	0.0	1	14	9	0.0	3.5	2.7	1	0.912	0.001	R	9	2.7	280.094	282.998	283.910	283.912	0
1	22102408	69	High	1.5	Precise	1	17	18	16	5.0	10.0	0.0	16	17	18	0.0	5.0	10.0	2	0.798	0.000	R	18	10.0	284.415	286.264	287.062	287.064	0
1	22102408	70	High	1.5	Precise	1	14	13	12	3.5	5.0	0.0	12	14	13	0.0	3.5	5.0	2	1.311	0.001	R	13	5.0	287.567	289.071	290.382	290.384	0
1	22102408	71	High	1.5	Precise	1	13	18	16	5.0	10.0	0.0	13	18	16	5.0	10.0	0.0	2	1.249	0.000	D	18	10.0	290.888	292.797	294.045	294.048	0
1	22102408	72	High	1.5	Vague	2	9	14	19	2.7	3.5	0.0	14	9	19	3.5	2.7	0.0	1	1.212	0.001	D	9	2.7	294.550	295.954	297.166	297.168	0
1	22102408	73	High	1.5	Precise	1	9	18	12	2.7	10.0	0.0	12	18	9	0.0	10.0	2.7	2	1.312	0.000	D	18	10.0	297.670	298.254	299.566	299.568	0
1	22102408	74	High	1.5	Precise	1	4	13	8	1.7	5.0	0.0	8	4	13	0.0	1.7	5.0	2	0.904	0.001	R	13	5.0	300.071	301.317	302.222	302.224	0
1	22102408	75	High	1.5	Vague	2	14	13	19	3.5	5.0	0.0	14	13	19	3.5	5.0	0.0	2	1.197	0.000	D	13	5.0	302.727	305.120	306.317	306.320	0
1	22102408	76	High	1.5	Precise	1	4	9	3	1.7	2.7	0.0	3	9	4	0.0	2.7	1.7	2	1.051	0.001	D	9	2.7	306.822	307.371	308.422	308.424	0
1	22102408	77	High	1.5	Precise	1	17	18	6	5.0	10.0	0.0	17	6	18	5.0	0.0	10.0	2	0.866	0.000	R	18	10.0	308.927	311.483	312.349	312.352	0
1	22102408	78	High	1.5	Precise	1	4	9	12	1.7	2.7	0.0	4	12	9	1.7	0.0	2.7	2	0.895	0.001	R	9	2.7	312.854	315.511	316.406	316.409	0
1	22102408	79	High	1.5	Precise	1	14	13	1	3.5	5.0	0.0	14	13	1	3.5	5.0	0.0	2	1.147	0.000	D	13	5.0	316.912	317.834	318.981	318.985	0
1	22102408	80	High	1.5	Precise	1	4	13	1	1.7	5.0	0.0	13	4	1	5.0	1.7	0.0	NaN	NaN	NaN	NaN	NaN	NaN	319.488	321.116	NaN	322.603	1
1	22102408	81	High	1.5	Precise	1	14	18	16	3.5	10.0	0.0	18	14	16	10.0	3.5	0.0	2	1.011	0.000	L	18	10.0	324.605	326.874	327.886	327.888	0
1	22102408	82	High	1.5	Vague	2	4	17	21	1.7	5.0	0.0	21	17	4	0.0	5.0	1.7	2	1.070	0.001	D	17	5.0	328.390	331.271	332.342	332.344	0
1	22102408	83	High	1.5	Vague	2	4	17	30	1.7	5.0	0.0	30	4	17	0.0	1.7	5.0	2	1.178	0.000	R	17	5.0	332.847	334.260	335.437	335.440	0
1	22102408	84	High	1.5	Precise	1	9	17	16	2.7	5.0	0.0	9	17	16	2.7	5.0	0.0	2	1.261	0.001	D	17	5.0	335.942	336.737	337.998	338.000	0
1	22102408	85	High	1.5	Precise	1	9	13	3	2.7	5.0	0.0	9	13	3	2.7	5.0	0.0	1	0.936	0.000	L	9	2.7	338.503	341.117	342.053	342.056	0
1	22102408	86	High	1.5	Precise	1	13	18	8	5.0	10.0	0.0	13	18	8	5.0	10.0	0.0	NaN	NaN	NaN	NaN	NaN	NaN	342.558	344.581	NaN	346.068	1
1	22102408	87	High	1.5	Vague	2	14	18	33	3.5	10.0	0.0	18	14	33	10.0	3.5	0.0	2	0.874	0.000	L	18	10.0	348.071	348.876	349.750	349.752	0
1	22102408	88	High	1.5	Vague	2	13	17	33	5.0	5.0	0.0	17	33	13	5.0	0.0	5.0	1	0.863	0.001	R	13	5.0	350.255	351.527	352.390	352.392	0
1	22102408	89	High	1.5	Precise	1	4	18	6	1.7	10.0	0.0	18	4	6	10.0	1.7	0.0	2	1.272	0.000	L	18	10.0	352.895	354.670	355.942	355.944	0
1	22102408	90	High	1.5	Precise	1	13	17	16	5.0	5.0	0.0	13	17	16	5.0	5.0	0.0	1	1.326	0.000	L	13	5.0	356.447	358.480	359.806	359.808	0
1	22102408	91	High	1.5	Vague	2	13	18	33	5.0	10.0	0.0	13	18	33	5.0	10.0	0.0	2	1.339	0.000	D	18	10.0	360.311	361.587	362.926	362.928	0
1	22102408	92	High	1.5	Vague	2	4	13	27	1.7	5.0	0.0	27	4	13	0.0	1.7	5.0	2	0.999	0.000	R	13	5.0	363.431	366.326	367.325	367.328	0
1	22102408	93	High	1.5	Vague	2	17	18	30	5.0	10.0	0.0	30	17	18	0.0	5.0	10.0	2	1.073	0.000	R	18	10.0	367.830	368.685	369.757	369.760	0
1	22102408	94	High	1.5	Precise	1	9	13	16	2.7	5.0	0.0	9	13	16	2.7	5.0	0.0	2	1.182	0.000	D	13	5.0	370.263	372.768	373.950	373.952	0
1	22102408	95	High	1.5	Vague	2	9	18	27	2.7	10.0	0.0	18	9	27	10.0	2.7	0.0	2	0.921	0.001	L	18	10.0	374.455	377.101	378.022	378.024	0
1	22102408	96	High	1.5	Precise	1	9	17	3	2.7	5.0	0.0	9	3	17	2.7	0.0	5.0	1	1.182	0.000	L	9	2.7	378.527	381.200	382.381	382.384	0
1	22102408	97	High	1.5	Vague	2	4	14	33	1.7	3.5	0.0	14	4	33	3.5	1.7	0.0	2	1.230	0.001	L	14	3.5	382.886	383.504	384.734	384.736	0
1	22102408	98	High	1.5	Vague	2	9	13	21	2.7	5.0	0.0	13	9	21	5.0	2.7	0.0	2	1.146	0.000	L	13	5.0	385.239	386.747	387.894	387.896	0
1	22102408	99	High	1.5	Precise	1	13	18	3	5.0	10.0	0.0	13	18	3	5.0	10.0	0.0	2	0.904	0.000	D	18	10.0	388.398	390.902	391.806	391.808	0
1	22102408	100	High	1.5	Vague	2	9	18	23	2.7	10.0	0.0	23	9	18	0.0	2.7	10.0	2	1.353	0.000	R	18	10.0	392.311	393.652	395.005	395.008	0
1	22102408	101	High	1.5	Precise	1	14	17	1	3.5	5.0	0.0	14	1	17	3.5	0.0	5.0	NaN	NaN	NaN	NaN	NaN	NaN	395.511	397.046	NaN	398.532	1
1	22102408	102	High	1.5	Precise	1	9	17	12	2.7	5.0	0.0	12	9	17	0.0	2.7	5.0	2	1.226	0.000	R	17	5.0	400.535	403.283	404.510	404.512	0
1	22102408	103	High	1.5	Vague	2	4	13	30	1.7	5.0	0.0	4	30	13	1.7	0.0	5.0	2	1.056	0.001	R	13	5.0	405.015	406.469	407.526	407.529	0
1	22102408	104	High	1.5	Precise	1	14	13	16	3.5	5.0	0.0	13	16	14	5.0	0.0	3.5	2	1.018	0.000	L	13	5.0	408.032	408.772	409.789	409.792	0
1	22102408	105	High	1.5	Precise	1	4	14	3	1.7	3.5	0.0	14	3	4	3.5	0.0	1.7	NaN	NaN	NaN	NaN	NaN	NaN	410.295	411.244	NaN	412.731	1
1	22102408	106	High	1.5	Vague	2	14	13	23	3.5	5.0	0.0	23	13	14	0.0	5.0	3.5	2	1.252	0.000	D	13	5.0	414.734	417.553	418.805	418.808	0
1	22102408	107	High	1.5	Vague	2	4	9	21	1.7	2.7	0.0	21	9	4	0.0	2.7	1.7	2	1.133	0.000	D	9	2.7	419.310	420.137	421.270	421.272	0
1	22102408	108	High	1.5	Vague	2	4	18	27	1.7	10.0	0.0	4	27	18	1.7	0.0	10.0	2	1.301	0.000	R	18	10.0	421.775	423.552	424.853	424.857	0
1	22102408	109	High	1.5	Precise	1	4	18	12	1.7	10.0	0.0	18	4	12	10.0	1.7	0.0	2	0.909	0.000	L	18	10.0	425.359	426.129	427.038	427.040	0
1	22102408	110	High	1.5	Precise	1	14	17	8	3.5	5.0	0.0	8	14	17	0.0	3.5	5.0	2	1.352	0.001	R	17	5.0	427.543	428.054	429.406	429.408	0
1	22102408	111	High	1.5	Vague	2	17	18	27	5.0	10.0	0.0	18	27	17	10.0	0.0	5.0	1	0.998	0.001	R	17	5.0	429.911	431.480	432.478	432.480	0
1	22102408	112	High	1.5	Vague	2	4	18	33	1.7	10.0	0.0	33	4	18	0.0	1.7	10.0	2	0.997	0.000	R	18	10.0	432.984	435.600	436.598	436.600	0
1	22102408	113	High	1.5	Vague	2	13	17	30	5.0	5.0	0.0	17	30	13	5.0	0.0	5.0	1	1.061	0.000	R	13	5.0	437.103	439.424	440.486	440.488	0
1	22102408	114	High	1.5	Vague	2	4	17	27	1.7	5.0	0.0	17	27	4	5.0	0.0	1.7	2	1.036	0.001	L	17	5.0	440.991	443.450	444.486	444.488	0
1	22102408	115	High	1.5	Precise	1	17	18	1	5.0	10.0	0.0	17	18	1	5.0	10.0	0.0	2	0.855	0.001	D	18	10.0	444.991	447.319	448.174	448.176	0
1	22102408	116	High	1.5	Vague	2	4	13	23	1.7	5.0	0.0	23	4	13	0.0	1.7	5.0	2	0.924	0.000	R	13	5.0	448.679	449.665	450.589	450.592	0
1	22102408	117	High	1.5	Vague	2	4	13	33	1.7	5.0	0.0	4	13	33	1.7	5.0	0.0	2	1.032	0.001	D	13	5.0	451.095	453.286	454.318	454.320	0
1	22102408	118	High	1.5	Precise	1	4	14	16	1.7	3.5	0.0	14	16	4	3.5	0.0	1.7	NaN	NaN	NaN	NaN	NaN	NaN	454.822	455.895	NaN	457.381	1
1	22102408	119	High	1.5	Precise	1	13	18	6	5.0	10.0	0.0	13	18	6	5.0	10.0	0.0	2	1.189	0.000	D	18	10.0	459.385	461.497	462.685	462.688	0
1	22102408	120	High	1.5	Vague	2	4	13	19	1.7	5.0	0.0	13	4	19	5.0	1.7	0.0	2	0.820	0.001	L	13	5.0	463.191	464.626	465.446	465.449	0
1	22102408	121	High	1.5	Precise	1	14	17	6	3.5	5.0	0.0	6	14	17	0.0	3.5	5.0	2	0.913	0.000	R	17	5.0	487.431	489.036	489.949	489.952	0
1	22102408	122	High	1.5	Precise	1	9	17	6	2.7	5.0	0.0	17	6	9	5.0	0.0	2.7	2	1.270	0.000	L	17	5.0	490.456	492.160	493.429	493.432	0
1	22102408	123	High	1.5	Vague	2	13	18	27	5.0	10.0	0.0	27	18	13	0.0	10.0	5.0	1	0.726	0.001	R	13	5.0	493.935	496.488	497.214	497.216	0
1	22102408	124	High	1.5	Precise	1	9	18	16	2.7	10.0	0.0	9	16	18	2.7	0.0	10.0	2	0.990	0.000	R	18	10.0	497.719	500.271	501.261	501.264	0
1	22102408	125	High	1.5	Vague	2	17	18	23	5.0	10.0	0.0	23	18	17	0.0	10.0	5.0	2	0.746	0.000	D	18	10.0	501.767	503.323	504.070	504.072	0
1	22102408	126	High	1.5	Precise	1	4	9	8	1.7	2.7	0.0	4	8	9	1.7	0.0	2.7	2	1.166	0.000	R	9	2.7	504.575	505.328	506.493	506.496	0
1	22102408	127	High	1.5	Vague	2	9	14	23	2.7	3.5	0.0	9	14	23	2.7	3.5	0.0	1	1.217	0.000	L	9	2.7	506.999	509.324	510.542	510.544	0
1	22102408	128	High	1.5	Vague	2	9	14	21	2.7	3.5	0.0	9	14	21	2.7	3.5	0.0	1	1.002	0.000	L	9	2.7	511.047	513.084	514.086	514.088	0
1	22102408	129	High	1.5	Vague	2	13	18	19	5.0	10.0	0.0	18	19	13	10.0	0.0	5.0	2	0.918	0.001	L	18	10.0	514.591	516.432	517.350	517.352	0
1	22102408	130	High	1.5	Precise	1	14	18	3	3.5	10.0	0.0	3	18	14	0.0	10.0	3.5	2	1.126	0.000	D	18	10.0	517.855	520.703	521.829	521.832	0
1	22102408	131	High	1.5	Vague	2	4	14	30	1.7	3.5	0.0	30	4	14	0.0	1.7	3.5	NaN	NaN	NaN	NaN	NaN	NaN	522.335	523.528	NaN	525.017	1
1	22102408	132	High	1.5	Precise	1	4	17	16	1.7	5.0	0.0	17	4	16	5.0	1.7	0.0	2	0.926	0.000	L	17	5.0	527.021	527.887	528.814	528.816	0
1	22102408	133	High	1.5	Vague	2	14	17	33	3.5	5.0	0.0	14	17	33	3.5	5.0	0.0	1	0.985	0.000	L	14	3.5	529.319	532.029	533.013	533.016	0
1	22102408	134	High	1.5	Vague	2	4	17	23	1.7	5.0	0.0	17	4	23	5.0	1.7	0.0	2	1.007	0.000	L	17	5.0	533.519	534.782	535.790	535.792	0
1	22102408	135	High	1.5	Precise	1	14	13	8	3.5	5.0	0.0	14	13	8	3.5	5.0	0.0	2	0.953	0.001	D	13	5.0	536.294	537.765	538.718	538.720	0
1	22102408	136	High	1.5	Precise	1	9	13	6	2.7	5.0	0.0	6	9	13	0.0	2.7	5.0	2	0.898	0.000	R	13	5.0	539.224	541.060	541.958	541.960	0
1	22102408	137	High	1.5	Vague	2	9	18	19	2.7	10.0	0.0	18	19	9	10.0	0.0	2.7	2	0.727	0.001	L	18	10.0	542.464	543.975	544.702	544.704	0
1	22102408	138	High	1.5	Precise	1	4	18	1	1.7	10.0	0.0	18	1	4	10.0	0.0	1.7	2	0.567	0.000	L	18	10.0	545.206	548.183	548.749	548.752	0
1	22102408	139	High	1.5	Precise	1	9	17	8	2.7	5.0	0.0	9	8	17	2.7	0.0	5.0	1	0.814	0.000	L	9	2.7	549.254	551.400	552.214	552.216	0
1	22102408	140	High	1.5	Vague	2	13	18	21	5.0	10.0	0.0	21	18	13	0.0	10.0	5.0	1	0.894	0.000	R	13	5.0	552.718	553.687	554.581	554.584	0
1	22102408	141	High	1.5	Precise	1	9	14	8	2.7	3.5	0.0	8	14	9	0.0	3.5	2.7	1	1.134	0.001	R	9	2.7	555.086	556.088	557.222	557.224	0
1	22102408	142	High	1.5	Vague	2	13	18	23	5.0	10.0	0.0	23	13	18	0.0	5.0	10.0	2	0.741	0.001	R	18	10.0	557.727	558.528	559.270	559.272	0
1	22102408	143	High	1.5	Vague	2	9	17	27	2.7	5.0	0.0	27	9	17	0.0	2.7	5.0	1	1.080	0.000	D	9	2.7	559.775	560.822	561.902	561.904	0
1	22102408	144	High	1.5	Precise	1	13	17	1	5.0	5.0	0.0	1	13	17	0.0	5.0	5.0	2	0.959	0.000	R	17	5.0	562.407	565.126	566.086	566.088	0
1	22102408	145	High	1.5	Precise	1	14	13	6	3.5	5.0	0.0	13	14	6	5.0	3.5	0.0	2	1.099	0.001	L	13	5.0	566.591	569.147	570.246	570.248	0
1	22102408	146	High	1.5	Vague	2	14	17	23	3.5	5.0	0.0	14	17	23	3.5	5.0	0.0	2	1.143	0.001	D	17	5.0	570.752	573.431	574.574	574.576	0
1	22102408	147	High	1.5	Vague	2	14	13	27	3.5	5.0	0.0	14	27	13	3.5	0.0	5.0	2	1.024	0.001	R	13	5.0	575.079	577.870	578.894	578.896	0
1	22102408	148	High	1.5	Vague	2	4	17	19	1.7	5.0	0.0	19	17	4	0.0	5.0	1.7	NaN	NaN	NaN	NaN	NaN	NaN	579.399	580.642	NaN	582.129	1
1	22102408	149	High	1.5	Vague	2	14	17	27	3.5	5.0	0.0	27	17	14	0.0	5.0	3.5	2	0.839	0.000	D	17	5.0	584.133	586.199	587.037	587.040	0
1	22102408	150	High	1.5	Vague	2	9	13	30	2.7	5.0	0.0	9	30	13	2.7	0.0	5.0	1	0.788	0.000	L	9	2.7	587.543	589.514	590.302	590.304	0
1	22102408	151	High	1.5	Vague	2	4	13	21	1.7	5.0	0.0	13	21	4	5.0	0.0	1.7	2	0.847	0.001	L	13	5.0	590.808	593.671	594.518	594.520	0
1	22102408	152	High	1.5	Vague	2	14	18	23	3.5	10.0	0.0	23	18	14	0.0	10.0	3.5	2	1.040	0.000	D	18	10.0	595.023	597.078	598.118	598.120	0
1	22102408	153	High	1.5	Precise	1	14	17	16	3.5	5.0	0.0	14	17	16	3.5	5.0	0.0	1	1.018	0.000	L	14	3.5	598.623	599.244	600.262	600.264	0
1	22102408	154	High	1.5	Vague	2	4	9	30	1.7	2.7	0.0	30	4	9	0.0	1.7	2.7	2	1.086	0.001	R	9	2.7	600.766	602.856	603.942	603.944	0
1	22102408	155	High	1.5	Vague	2	14	18	19	3.5	10.0	0.0	14	18	19	3.5	10.0	0.0	2	0.758	0.000	D	18	10.0	604.447	606.152	606.910	606.912	0
1	22102408	156	High	1.5	Precise	1	4	17	12	1.7	5.0	0.0	4	12	17	1.7	0.0	5.0	2	0.939	0.000	R	17	5.0	607.416	609.522	610.461	610.464	0
1	22102408	157	High	1.5	Vague	2	14	17	19	3.5	5.0	0.0	14	17	19	3.5	5.0	0.0	1	0.716	0.001	L	14	3.5	610.967	612.954	613.670	613.672	0
1	22102408	158	High	1.5	Vague	2	14	18	21	3.5	10.0	0.0	18	21	14	10.0	0.0	3.5	2	0.628	0.000	L	18	10.0	614.175	615.666	616.294	616.296	0
1	22102408	159	High	1.5	Precise	1	14	17	3	3.5	5.0	0.0	17	3	14	5.0	0.0	3.5	2	1.324	0.000	L	17	5.0	616.799	618.978	620.301	620.304	0
1	22102408	160	High	1.5	Vague	2	9	18	30	2.7	10.0	0.0	9	30	18	2.7	0.0	10.0	2	0.853	0.001	R	18	10.0	620.806	622.441	623.294	623.296	0
1	22102408	161	High	1.5	Precise	1	13	18	12	5.0	10.0	0.0	18	13	12	10.0	5.0	0.0	2	0.810	0.000	L	18	10.0	623.798	625.347	626.157	626.160	0
1	22102408	162	High	1.5	Precise	1	14	18	8	3.5	10.0	0.0	18	8	14	10.0	0.0	3.5	2	0.725	0.001	L	18	10.0	626.662	628.401	629.126	629.128	0
1	22102408	163	High	1.5	Vague	2	9	13	23	2.7	5.0	0.0	23	13	9	0.0	5.0	2.7	2	1.008	0.000	D	13	5.0	629.631	631.270	632.278	632.280	0
1	22102408	164	High	1.5	Precise	1	4	9	6	1.7	2.7	0.0	6	9	4	0.0	2.7	1.7	2	1.173	0.000	D	9	2.7	632.783	635.489	636.662	636.664	0
1	22102408	165	High	1.5	Vague	2	9	13	27	2.7	5.0	0.0	13	27	9	5.0	0.0	2.7	2	0.766	0.000	L	13	5.0	637.167	638.783	639.549	639.552	0
1	22102408	166	High	1.5	Vague	2	4	18	23	1.7	10.0	0.0	18	23	4	10.0	0.0	1.7	2	0.626	0.000	L	18	10.0	640.054	642.203	642.829	642.832	0
1	22102408	167	High	1.5	Vague	2	4	9	23	1.7	2.7	0.0	23	4	9	0.0	1.7	2.7	NaN	NaN	NaN	NaN	NaN	NaN	643.334	644.182	NaN	645.668	1
1	22102408	168	High	1.5	Precise	1	9	18	1	2.7	10.0	0.0	1	18	9	0.0	10.0	2.7	2	0.979	0.000	D	18	10.0	647.671	649.523	650.502	650.504	0
1	22102408	169	High	1.5	Vague	2	13	17	27	5.0	5.0	0.0	17	27	13	5.0	0.0	5.0	2	0.960	0.000	L	17	5.0	651.007	653.478	654.438	654.440	0
1	22102408	170	High	1.5	Precise	1	14	18	6	3.5	10.0	0.0	14	18	6	3.5	10.0	0.0	2	0.907	0.000	D	18	10.0	654.943	655.819	656.726	656.728	0
1	22102408	171	High	1.5	Vague	2	14	13	21	3.5	5.0	0.0	21	13	14	0.0	5.0	3.5	2	0.821	0.001	D	13	5.0	657.230	657.841	658.662	658.664	0
1	22102408	172	High	1.5	Precise	1	9	17	1	2.7	5.0	0.0	9	1	17	2.7	0.0	5.0	2	1.033	0.001	R	17	5.0	659.167	661.973	663.006	663.009	0
1	22102408	173	High	1.5	Precise	1	13	17	8	5.0	5.0	0.0	17	8	13	5.0	0.0	5.0	1	0.712	0.001	R	13	5.0	663.512	665.317	666.030	666.032	0
1	22102408	174	High	1.5	Precise	1	4	18	3	1.7	10.0	0.0	4	3	18	1.7	0.0	10.0	2	0.824	0.001	R	18	10.0	666.535	669.342	670.166	670.168	0
1	22102408	175	High	1.5	Precise	1	9	14	3	2.7	3.5	0.0	3	14	9	0.0	3.5	2.7	NaN	NaN	NaN	NaN	NaN	NaN	670.670	671.227	NaN	672.713	1
1	22102408	176	High	1.5	Vague	2	14	18	30	3.5	10.0	0.0	14	30	18	3.5	0.0	10.0	3	0.641	0.000	D	30	0.0	674.716	677.573	678.214	678.216	0
1	22102408	177	High	1.5	Precise	1	14	18	1	3.5	10.0	0.0	1	18	14	0.0	10.0	3.5	2	0.804	0.001	D	18	10.0	678.719	681.274	682.078	682.080	0
1	22102408	178	High	1.5	Vague	2	4	9	27	1.7	2.7	0.0	4	27	9	1.7	0.0	2.7	2	1.341	0.000	R	9	2.7	682.583	684.353	685.694	685.696	0
1	22102408	179	High	1.5	Vague	2	9	17	21	2.7	5.0	0.0	21	9	17	0.0	2.7	5.0	2	1.037	0.000	R	17	5.0	686.199	687.240	688.278	688.280	0
1	22102408	180	High	1.5	Vague	2	9	14	33	2.7	3.5	0.0	14	33	9	3.5	0.0	2.7	1	1.426	0.001	R	9	2.7	688.783	689.940	691.366	691.368	0
1	22102408	181	Low	10.0	Vague	2	17	18	34	5.0	10.0	0.0	34	18	17	0.0	10.0	5.0	2	0.983	0.000	D	18	10.0	699.879	700.615	701.598	701.601	0
1	22102408	182	Low	10.0	Vague	2	4	9	28	1.7	2.7	0.0	4	9	28	1.7	2.7	0.0	2	1.163	0.001	D	9	2.7	702.104	704.011	705.174	705.176	0
1	22102408	183	Low	10.0	Precise	1	13	18	11	5.0	10.0	0.5	13	18	11	5.0	10.0	0.5	2	1.209	0.000	D	18	10.0	705.679	707.157	708.366	708.369	0
1	22102408	184	Low	10.0	Vague	2	17	18	20	5.0	10.0	0.0	20	18	17	0.0	10.0	5.0	2	1.342	0.001	D	18	10.0	708.872	709.448	710.790	710.793	0
1	22102408	185	Low	10.0	Precise	1	4	9	5	1.7	2.7	0.0	4	9	5	1.7	2.7	0.0	2	1.085	0.000	D	9	2.7	711.295	712.696	713.782	713.784	0
1	22102408	186	Low	10.0	Precise	1	14	13	2	3.5	5.0	0.0	13	14	2	5.0	3.5	0.0	2	1.144	0.001	L	13	5.0	714.287	716.582	717.726	717.728	0
1	22102408	187	Low	10.0	Vague	2	14	18	25	3.5	10.0	0.0	14	25	18	3.5	0.0	10.0	2	1.034	0.000	R	18	10.0	718.231	720.956	721.990	721.992	0
1	22102408	188	Low	10.0	Vague	2	14	18	32	3.5	10.0	0.0	32	18	14	0.0	10.0	3.5	2	0.922	0.000	D	18	10.0	722.496	723.875	724.798	724.800	0
1	22102408	189	Low	10.0	Vague	2	9	13	34	2.7	5.0	0.0	34	13	9	0.0	5.0	2.7	2	1.220	0.000	D	13	5.0	725.303	726.834	728.054	728.056	0
1	22102408	190	Low	10.0	Vague	2	4	13	28	1.7	5.0	0.0	13	4	28	5.0	1.7	0.0	2	1.230	0.000	L	13	5.0	728.559	731.400	732.630	732.632	0
1	22102408	191	Low	10.0	Vague	2	9	14	34	2.7	3.5	0.0	34	9	14	0.0	2.7	3.5	1	1.350	0.001	D	9	2.7	733.135	735.319	736.670	736.672	0
1	22102408	192	Low	10.0	Precise	1	4	13	7	1.7	5.0	0.0	13	7	4	5.0	0.0	1.7	2	1.027	0.001	L	13	5.0	737.175	737.939	738.966	738.968	0
1	22102408	193	Low	10.0	Vague	2	13	18	20	5.0	10.0	0.0	13	20	18	5.0	0.0	10.0	2	0.863	0.000	R	18	10.0	739.471	740.503	741.366	741.368	0
1	22102408	194	Low	10.0	Precise	1	9	17	7	2.7	5.0	0.0	7	9	17	0.0	2.7	5.0	1	3.119	0.000	D	9	2.7	741.870	744.543	747.662	747.664	0
1	22102408	195	Low	10.0	Precise	1	9	17	10	2.7	5.0	0.0	10	17	9	0.0	5.0	2.7	2	1.894	0.000	D	17	5.0	748.168	750.784	752.678	752.680	0
1	22102408	196	Low	10.0	Precise	1	14	17	5	3.5	5.0	0.0	14	17	5	3.5	5.0	0.0	2	1.377	0.000	D	17	5.0	753.183	754.469	755.846	755.848	0
1	22102408	197	Low	10.0	Vague	2	4	9	32	1.7	2.7	0.0	9	32	4	2.7	0.0	1.7	2	1.698	0.000	L	9	2.7	756.350	757.348	759.046	759.048	0
1	22102408	198	Low	10.0	Precise	1	14	13	11	3.5	5.0	0.5	14	13	11	3.5	5.0	0.5	2	0.964	0.000	D	13	5.0	759.551	761.970	762.934	762.936	0
1	22102408	199	Low	10.0	Vague	2	13	18	25	5.0	10.0	0.0	13	25	18	5.0	0.0	10.0	1	0.782	0.000	L	13	5.0	763.438	765.431	766.213	766.216	0
1	22102408	200	Low	10.0	Vague	2	9	17	20	2.7	5.0	0.0	9	20	17	2.7	0.0	5.0	2	1.559	0.000	R	17	5.0	766.718	768.735	770.294	770.296	0
1	22102408	201	Low	10.0	Precise	1	14	17	15	3.5	5.0	0.0	15	14	17	0.0	3.5	5.0	2	1.190	0.000	R	17	5.0	770.799	772.759	773.950	773.952	0
1	22102408	202	Low	10.0	Vague	2	9	17	34	2.7	5.0	0.0	17	9	34	5.0	2.7	0.0	2	1.450	0.000	L	17	5.0	774.455	776.515	777.966	777.968	0
1	22102408	203	Low	10.0	Vague	2	14	18	20	3.5	10.0	0.0	14	20	18	3.5	0.0	10.0	2	0.817	0.000	R	18	10.0	778.471	780.348	781.165	781.168	0
1	22102408	204	Low	10.0	Vague	2	13	17	34	5.0	5.0	0.0	34	13	17	0.0	5.0	5.0	1	1.871	0.001	D	13	5.0	781.670	782.807	784.678	784.681	0
1	22102408	205	Low	10.0	Vague	2	4	17	32	1.7	5.0	0.0	32	17	4	0.0	5.0	1.7	2	1.306	0.000	D	17	5.0	785.184	786.324	787.630	787.632	0
1	22102408	206	Low	10.0	Vague	2	4	9	22	1.7	2.7	0.0	9	22	4	2.7	0.0	1.7	2	1.227	0.000	L	9	2.7	788.135	789.675	790.902	790.904	0
1	22102408	207	Low	10.0	Precise	1	13	18	5	5.0	10.0	0.0	13	5	18	5.0	0.0	10.0	2	1.381	0.001	R	18	10.0	791.407	792.985	794.366	794.369	0
1	22102408	208	Low	10.0	Vague	2	4	9	20	1.7	2.7	0.0	4	20	9	1.7	0.0	2.7	2	1.389	0.000	R	9	2.7	794.871	796.272	797.662	797.664	0
1	22102408	209	Low	10.0	Vague	2	4	18	32	1.7	10.0	0.0	32	4	18	0.0	1.7	10.0	2	1.249	0.001	R	18	10.0	798.167	799.597	800.846	800.848	0
1	22102408	210	Low	10.0	Precise	1	4	18	11	1.7	10.0	0.5	11	4	18	0.5	1.7	10.0	2	0.724	0.000	R	18	10.0	801.351	804.018	804.742	804.744	0
1	22102408	211	Low	10.0	Precise	1	4	13	11	1.7	5.0	0.5	11	4	13	0.5	1.7	5.0	2	0.736	0.000	R	13	5.0	805.247	807.038	807.773	807.776	0
1	22102408	212	Low	10.0	Precise	1	14	18	10	3.5	10.0	0.0	14	18	10	3.5	10.0	0.0	2	0.979	0.001	D	18	10.0	808.278	810.019	810.998	811.001	0
1	22102408	213	Low	10.0	Vague	2	17	18	28	5.0	10.0	0.0	28	17	18	0.0	5.0	10.0	2	0.824	0.000	R	18	10.0	811.503	814.445	815.270	815.272	0
1	22102408	214	Low	10.0	Precise	1	14	17	11	3.5	5.0	0.5	11	17	14	0.5	5.0	3.5	2	1.268	0.000	D	17	5.0	815.775	818.762	820.030	820.032	0
1	22102408	215	Low	10.0	Vague	2	17	18	25	5.0	10.0	0.0	25	17	18	0.0	5.0	10.0	2	0.588	0.000	R	18	10.0	820.535	821.385	821.973	821.976	0
1	22102408	216	Low	10.0	Vague	2	9	17	32	2.7	5.0	0.0	17	9	32	5.0	2.7	0.0	1	1.527	0.001	D	9	2.7	822.479	825.223	826.750	826.752	0
1	22102408	217	Low	10.0	Precise	1	17	18	15	5.0	10.0	0.0	17	18	15	5.0	10.0	0.0	2	0.923	0.001	D	18	10.0	827.255	829.163	830.086	830.088	0
1	22102408	218	Low	10.0	Precise	1	9	14	5	2.7	3.5	0.0	9	14	5	2.7	3.5	0.0	1	1.494	0.001	L	9	2.7	830.591	832.656	834.150	834.152	0
1	22102408	219	Low	10.0	Precise	1	14	13	10	3.5	5.0	0.0	13	10	14	5.0	0.0	3.5	2	1.229	0.000	L	13	5.0	834.656	835.761	836.990	836.992	0
1	22102408	220	Low	10.0	Vague	2	4	18	34	1.7	10.0	0.0	18	4	34	10.0	1.7	0.0	2	0.922	0.000	L	18	10.0	837.494	838.596	839.518	839.520	0
1	22102408	221	Low	10.0	Vague	2	14	13	34	3.5	5.0	0.0	14	13	34	3.5	5.0	0.0	2	0.906	0.000	D	13	5.0	840.023	842.588	843.494	843.496	0
1	22102408	222	Low	10.0	Vague	2	14	17	20	3.5	5.0	0.0	14	17	20	3.5	5.0	0.0	2	1.359	0.001	D	17	5.0	843.999	846.215	847.574	847.576	0
1	22102408	223	Low	10.0	Precise	1	9	17	11	2.7	5.0	0.5	17	11	9	5.0	0.5	2.7	2	1.223	0.000	L	17	5.0	848.079	849.694	850.917	850.920	0
1	22102408	224	Low	10.0	Precise	1	4	17	11	1.7	5.0	0.5	4	17	11	1.7	5.0	0.5	2	0.880	0.000	D	17	5.0	851.423	852.414	853.294	853.296	0
1	22102408	225	Low	10.0	Precise	1	14	18	2	3.5	10.0	0.0	14	2	18	3.5	0.0	10.0	2	0.902	0.000	R	18	10.0	853.798	854.551	855.454	855.456	0
1	22102408	226	Low	10.0	Vague	2	4	18	25	1.7	10.0	0.0	18	4	25	10.0	1.7	0.0	2	0.685	0.000	L	18	10.0	855.959	856.609	857.294	857.296	0
1	22102408	227	Low	10.0	Vague	2	9	18	28	2.7	10.0	0.0	18	9	28	10.0	2.7	0.0	2	0.846	0.000	L	18	10.0	857.798	860.303	861.150	861.152	0
1	22102408	228	Low	10.0	Vague	2	9	13	25	2.7	5.0	0.0	9	13	25	2.7	5.0	0.0	1	0.685	0.000	L	9	2.7	861.655	862.641	863.326	863.328	0
1	22102408	229	Low	10.0	Precise	1	4	13	2	1.7	5.0	0.0	4	13	2	1.7	5.0	0.0	2	0.868	0.000	D	13	5.0	863.831	864.762	865.630	865.632	0
1	22102408	230	Low	10.0	Precise	1	4	17	15	1.7	5.0	0.0	15	17	4	0.0	5.0	1.7	2	1.383	0.000	D	17	5.0	866.135	867.215	868.598	868.600	0
1	22102408	231	Low	10.0	Precise	1	4	14	5	1.7	3.5	0.0	14	5	4	3.5	0.0	1.7	2	2.187	0.001	L	14	3.5	869.103	871.099	873.286	873.288	0
1	22102408	232	Low	10.0	Precise	1	14	18	15	3.5	10.0	0.0	18	15	14	10.0	0.0	3.5	2	0.808	0.000	L	18	10.0	873.792	876.694	877.502	877.504	0
1	22102408	233	Low	10.0	Precise	1	13	17	11	5.0	5.0	0.5	11	17	13	0.5	5.0	5.0	1	0.813	0.001	R	13	5.0	878.007	879.737	880.550	880.552	0
1	22102408	234	Low	10.0	Precise	1	13	17	5	5.0	5.0	0.0	17	13	5	5.0	5.0	0.0	2	1.195	0.001	L	17	5.0	881.055	882.387	883.582	883.584	0
1	22102408	235	Low	10.0	Vague	2	14	17	34	3.5	5.0	0.0	34	17	14	0.0	5.0	3.5	2	1.418	0.000	D	17	5.0	884.088	886.956	888.374	888.376	0
1	22102408	236	Low	10.0	Vague	2	17	18	32	5.0	10.0	0.0	18	17	32	10.0	5.0	0.0	2	2.006	0.000	L	18	10.0	888.879	890.864	892.870	892.872	0
1	22102408	237	Low	10.0	Vague	2	13	17	20	5.0	5.0	0.0	17	20	13	5.0	0.0	5.0	2	1.566	0.000	L	17	5.0	893.375	895.959	897.526	897.528	0
1	22102408	238	Low	10.0	Precise	1	4	17	7	1.7	5.0	0.0	4	7	17	1.7	0.0	5.0	2	0.926	0.001	R	17	5.0	898.031	899.120	900.046	900.048	0
1	22102408	239	Low	10.0	Precise	1	9	14	15	2.7	3.5	0.0	9	14	15	2.7	3.5	0.0	2	1.558	0.001	D	14	3.5	900.551	901.600	903.158	903.160	0
1	22102408	240	Low	10.0	Vague	2	9	18	20	2.7	10.0	0.0	20	18	9	0.0	10.0	2.7	2	0.915	0.001	D	18	10.0	903.663	904.619	905.534	905.536	0
1	22102408	241	Low	10.0	Vague	2	4	9	25	1.7	2.7	0.0	25	9	4	0.0	2.7	1.7	2	0.872	0.001	D	9	2.7	911.709	912.718	913.590	913.592	0
1	22102408	242	Low	10.0	Vague	2	13	17	22	5.0	5.0	0.0	13	22	17	5.0	0.0	5.0	1	1.375	0.000	L	13	5.0	914.096	916.894	918.270	918.272	0
1	22102408	243	Low	10.0	Precise	1	9	18	15	2.7	10.0	0.0	15	18	9	0.0	10.0	2.7	2	1.193	0.000	D	18	10.0	918.775	920.893	922.086	922.088	0
1	22102408	244	Low	10.0	Precise	1	9	17	15	2.7	5.0	0.0	15	17	9	0.0	5.0	2.7	2	1.472	0.000	D	17	5.0	922.591	923.158	924.630	924.632	0
1	22102408	245	Low	10.0	Vague	2	13	17	32	5.0	5.0	0.0	17	32	13	5.0	0.0	5.0	2	1.330	0.000	L	17	5.0	925.135	927.572	928.902	928.904	0
1	22102408	246	Low	10.0	Vague	2	13	18	34	5.0	10.0	0.0	13	18	34	5.0	10.0	0.0	2	1.212	0.001	D	18	10.0	929.407	930.226	931.438	931.441	0
1	22102408	247	Low	10.0	Vague	2	13	18	22	5.0	10.0	0.0	18	13	22	10.0	5.0	0.0	2	0.822	0.001	L	18	10.0	931.943	934.232	935.054	935.056	0
1	22102408	248	Low	10.0	Precise	1	4	18	15	1.7	10.0	0.0	15	4	18	0.0	1.7	10.0	2	0.817	0.000	R	18	10.0	935.559	936.117	936.934	936.936	0
1	22102408	249	Low	10.0	Vague	2	14	13	28	3.5	5.0	0.0	14	28	13	3.5	0.0	5.0	2	1.327	0.001	R	13	5.0	937.439	939.871	941.198	941.200	0
1	22102408	250	Low	10.0	Vague	2	4	13	34	1.7	5.0	0.0	34	4	13	0.0	1.7	5.0	2	1.026	0.000	R	13	5.0	941.703	943.467	944.494	944.496	0
1	22102408	251	Low	10.0	Vague	2	9	13	32	2.7	5.0	0.0	32	9	13	0.0	2.7	5.0	2	0.935	0.000	R	13	5.0	944.999	947.038	947.974	947.977	0
1	22102408	252	Low	10.0	Precise	1	4	17	10	1.7	5.0	0.0	4	10	17	1.7	0.0	5.0	2	1.628	0.001	R	17	5.0	948.480	949.218	950.846	950.849	0
1	22102408	253	Low	10.0	Precise	1	4	14	7	1.7	3.5	0.0	14	7	4	3.5	0.0	1.7	2	1.537	0.001	L	14	3.5	951.351	952.453	953.990	953.992	0
1	22102408	254	Low	10.0	Vague	2	4	17	25	1.7	5.0	0.0	17	4	25	5.0	1.7	0.0	2	0.887	0.001	L	17	5.0	954.495	956.016	956.902	956.904	0
1	22102408	255	Low	10.0	Vague	2	9	14	20	2.7	3.5	0.0	20	14	9	0.0	3.5	2.7	1	0.852	0.000	R	9	2.7	957.408	960.226	961.078	961.080	0
1	22102408	256	Low	10.0	Precise	1	17	18	5	5.0	10.0	0.0	5	17	18	0.0	5.0	10.0	2	0.646	0.001	R	18	10.0	961.583	964.152	964.798	964.800	0
1	22102408	257	Low	10.0	Vague	2	4	17	22	1.7	5.0	0.0	17	4	22	5.0	1.7	0.0	2	0.661	0.000	L	17	5.0	965.303	967.873	968.534	968.536	0
1	22102408	258	Low	10.0	Precise	1	17	18	10	5.0	10.0	0.0	18	10	17	10.0	0.0	5.0	2	0.685	0.000	L	18	10.0	969.039	970.649	971.334	971.336	0
1	22102408	259	Low	10.0	Precise	1	4	9	15	1.7	2.7	0.0	15	4	9	0.0	1.7	2.7	2	0.976	0.001	R	9	2.7	971.839	972.470	973.446	973.449	0
1	22102408	260	Low	10.0	Precise	1	9	13	7	2.7	5.0	0.0	7	13	9	0.0	5.0	2.7	2	1.278	0.000	D	13	5.0	973.952	976.744	978.022	978.024	0
1	22102408	261	Low	10.0	Precise	1	4	14	2	1.7	3.5	0.0	14	2	4	3.5	0.0	1.7	2	1.351	0.000	L	14	3.5	978.527	979.927	981.278	981.280	0
1	22102408	262	Low	10.0	Precise	1	14	18	5	3.5	10.0	0.0	18	14	5	10.0	3.5	0.0	2	1.318	0.000	L	18	10.0	981.783	984.343	985.662	985.664	0
1	22102408	263	Low	10.0	Vague	2	9	18	22	2.7	10.0	0.0	18	22	9	10.0	0.0	2.7	2	0.855	0.000	L	18	10.0	986.167	986.847	987.702	987.704	0
1	22102408	264	Low	10.0	Vague	2	14	13	22	3.5	5.0	0.0	14	13	22	3.5	5.0	0.0	2	1.288	0.001	D	13	5.0	988.207	989.654	990.942	990.944	0
1	22102408	265	Low	10.0	Precise	1	4	17	5	1.7	5.0	0.0	5	4	17	0.0	1.7	5.0	2	1.194	0.001	R	17	5.0	991.447	994.020	995.214	995.216	0
1	22102408	266	Low	10.0	Vague	2	4	14	28	1.7	3.5	0.0	28	4	14	0.0	1.7	3.5	2	1.217	0.000	R	14	3.5	995.720	997.308	998.526	998.528	0
1	22102408	267	Low	10.0	Precise	1	9	14	11	2.7	3.5	0.5	11	9	14	0.5	2.7	3.5	1	1.293	0.001	D	9	2.7	999.031	1001.137	1002.430	1002.432	0
1	22102408	268	Low	10.0	Vague	2	14	17	28	3.5	5.0	0.0	28	14	17	0.0	3.5	5.0	2	0.729	0.000	R	17	5.0	1002.935	1005.341	1006.070	1006.072	0
1	22102408	269	Low	10.0	Precise	1	17	18	11	5.0	10.0	0.5	11	17	18	0.5	5.0	10.0	2	1.063	0.000	R	18	10.0	1006.575	1008.606	1009.670	1009.672	0
1	22102408	270	Low	10.0	Vague	2	4	13	20	1.7	5.0	0.0	20	13	4	0.0	5.0	1.7	2	1.289	0.000	D	13	5.0	1010.175	1011.781	1013.070	1013.072	0
1	22102408	271	Low	10.0	Precise	1	9	14	10	2.7	3.5	0.0	9	14	10	2.7	3.5	0.0	1	2.343	0.000	L	9	2.7	1013.575	1014.094	1016.438	1016.440	0
1	22102408	272	Low	10.0	Precise	1	13	17	10	5.0	5.0	0.0	17	10	13	5.0	0.0	5.0	2	0.879	0.001	L	17	5.0	1016.943	1019.215	1020.094	1020.097	0
1	22102408	273	Low	10.0	Precise	1	4	14	10	1.7	3.5	0.0	4	10	14	1.7	0.0	3.5	3	2.255	0.001	D	10	0.0	1020.599	1021.743	1023.998	1024.000	0
1	22102408	274	Low	10.0	Precise	1	9	13	5	2.7	5.0	0.0	5	9	13	0.0	2.7	5.0	2	1.349	0.000	R	13	5.0	1024.503	1025.145	1026.494	1026.496	0
1	22102408	275	Low	10.0	Vague	2	9	14	32	2.7	3.5	0.0	14	9	32	3.5	2.7	0.0	1	1.250	0.000	D	9	2.7	1026.999	1027.724	1028.974	1028.976	0
1	22102408	276	Low	10.0	Precise	1	13	17	2	5.0	5.0	0.0	2	13	17	0.0	5.0	5.0	1	1.105	0.000	D	13	5.0	1029.479	1032.213	1033.318	1033.320	0
1	22102408	277	Low	10.0	Precise	1	13	17	15	5.0	5.0	0.0	13	17	15	5.0	5.0	0.0	1	1.225	0.001	L	13	5.0	1033.824	1034.581	1035.806	1035.808	0
1	22102408	278	Low	10.0	Vague	2	4	18	20	1.7	10.0	0.0	18	20	4	10.0	0.0	1.7	2	1.560	0.000	L	18	10.0	1036.311	1037.998	1039.558	1039.560	0
1	22102408	279	Low	10.0	Precise	1	13	17	7	5.0	5.0	0.0	17	13	7	5.0	5.0	0.0	2	1.667	0.000	L	17	5.0	1040.063	1042.395	1044.062	1044.064	0
1	22102408	280	Low	10.0	Precise	1	14	18	11	3.5	10.0	0.5	18	11	14	10.0	0.5	3.5	2	1.111	0.000	L	18	10.0	1044.567	1045.847	1046.958	1046.960	0
1	22102408	281	Low	10.0	Precise	1	14	17	7	3.5	5.0	0.0	17	7	14	5.0	0.0	3.5	2	2.043	0.000	L	17	5.0	1047.462	1048.555	1050.598	1050.600	0
1	22102408	282	Low	10.0	Vague	2	4	14	32	1.7	3.5	0.0	14	4	32	3.5	1.7	0.0	2	1.648	0.000	L	14	3.5	1051.103	1053.597	1055.246	1055.248	0
1	22102408	283	Low	10.0	Vague	2	4	14	22	1.7	3.5	0.0	4	14	22	1.7	3.5	0.0	2	1.349	0.000	D	14	3.5	1055.751	1056.625	1057.974	1057.976	0
1	22102408	284	Low	10.0	Precise	1	9	18	5	2.7	10.0	0.0	18	5	9	10.0	0.0	2.7	2	0.647	0.000	L	18	10.0	1058.479	1059.975	1060.622	1060.624	0
1	22102408	285	Low	10.0	Precise	1	13	18	15	5.0	10.0	0.0	13	15	18	5.0	0.0	10.0	1	1.040	0.000	L	13	5.0	1061.128	1061.798	1062.838	1062.840	0
1	22102408	286	Low	10.0	Precise	1	4	14	15	1.7	3.5	0.0	14	15	4	3.5	0.0	1.7	2	2.639	0.000	L	14	3.5	1063.343	1065.415	1068.054	1068.057	0
1	22102408	287	Low	10.0	Vague	2	9	17	25	2.7	5.0	0.0	9	17	25	2.7	5.0	0.0	2	1.131	0.000	D	17	5.0	1068.559	1070.915	1072.046	1072.048	0
1	22102408	288	Low	10.0	Vague	2	9	17	22	2.7	5.0	0.0	17	9	22	5.0	2.7	0.0	2	0.828	0.001	L	17	5.0	1072.552	1073.321	1074.150	1074.153	0
1	22102408	289	Low	10.0	Vague	2	14	13	20	3.5	5.0	0.0	13	14	20	5.0	3.5	0.0	2	0.919	0.000	L	13	5.0	1074.655	1075.559	1076.478	1076.480	0
1	22102408	290	Low	10.0	Precise	1	4	17	2	1.7	5.0	0.0	4	2	17	1.7	0.0	5.0	2	0.884	0.001	R	17	5.0	1076.983	1077.930	1078.814	1078.816	0
1	22102408	291	Low	10.0	Vague	2	14	18	22	3.5	10.0	0.0	14	22	18	3.5	0.0	10.0	2	0.842	0.001	R	18	10.0	1079.319	1080.005	1080.846	1080.849	0
1	22102408	292	Low	10.0	Vague	2	4	13	22	1.7	5.0	0.0	13	22	4	5.0	0.0	1.7	2	0.740	0.001	L	13	5.0	1081.351	1082.618	1083.358	1083.360	0
1	22102408	293	Low	10.0	Precise	1	17	18	2	5.0	10.0	0.0	18	2	17	10.0	0.0	5.0	1	0.962	0.000	R	17	5.0	1083.863	1086.436	1087.398	1087.400	0
1	22102408	294	Low	10.0	Vague	2	14	13	32	3.5	5.0	0.0	14	13	32	3.5	5.0	0.0	2	1.311	0.001	D	13	5.0	1087.903	1090.423	1091.734	1091.736	0
1	22102408	295	Low	10.0	Precise	1	9	17	2	2.7	5.0	0.0	2	9	17	0.0	2.7	5.0	2	0.925	0.001	R	17	5.0	1092.239	1094.865	1095.790	1095.792	0
1	22102408	296	Low	10.0	Vague	2	14	17	25	3.5	5.0	0.0	17	25	14	5.0	0.0	3.5	2	0.925	0.000	L	17	5.0	1096.296	1098.784	1099.710	1099.712	0
1	22102408	297	Low	10.0	Precise	1	13	18	10	5.0	10.0	0.0	13	18	10	5.0	10.0	0.0	1	0.876	0.000	L	13	5.0	1100.215	1102.161	1103.038	1103.040	0
1	22102408	298	Low	10.0	Precise	1	9	17	5	2.7	5.0	0.0	9	17	5	2.7	5.0	0.0	2	1.524	0.000	D	17	5.0	1103.543	1105.634	1107.158	1107.160	0
1	22102408	299	Low	10.0	Vague	2	4	18	22	1.7	10.0	0.0	18	22	4	10.0	0.0	1.7	2	1.007	0.000	L	18	10.0	1107.664	1109.479	1110.486	1110.488	0
1	22102408	300	Low	10.0	Vague	2	9	18	34	2.7	10.0	0.0	18	9	34	10.0	2.7	0.0	2	0.633	0.001	L	18	10.0	1110.990	1113.133	1113.766	1113.768	0
1	22102408	301	Low	10.0	Precise	1	9	14	7	2.7	3.5	0.0	9	14	7	2.7	3.5	0.0	1	4.268	0.001	L	9	2.7	1118.983	1119.898	1124.166	1124.169	0
1	22102408	302	Low	10.0	Vague	2	13	18	28	5.0	10.0	0.0	18	28	13	10.0	0.0	5.0	2	1.411	0.001	L	18	10.0	1124.671	1125.379	1126.790	1126.792	0
1	22102408	303	Low	10.0	Precise	1	4	13	15	1.7	5.0	0.0	15	4	13	0.0	1.7	5.0	2	1.672	0.000	R	13	5.0	1127.295	1128.565	1130.238	1130.240	0
1	22102408	304	Low	10.0	Precise	1	4	14	11	1.7	3.5	0.5	11	4	14	0.5	1.7	3.5	2	0.858	0.000	R	14	3.5	1130.744	1132.252	1133.110	1133.112	0
1	22102408	305	Low	10.0	Precise	1	4	9	11	1.7	2.7	0.5	9	11	4	2.7	0.5	1.7	2	0.697	0.000	L	9	2.7	1133.615	1135.508	1136.206	1136.209	0
1	22102408	306	Low	10.0	Precise	1	14	18	7	3.5	10.0	0.0	7	14	18	0.0	3.5	10.0	2	0.710	0.001	R	18	10.0	1136.712	1137.856	1138.566	1138.568	0
1	22102408	307	Low	10.0	Vague	2	14	17	22	3.5	5.0	0.0	17	14	22	5.0	3.5	0.0	2	0.809	0.000	L	17	5.0	1139.071	1139.932	1140.742	1140.744	0
1	22102408	308	Low	10.0	Vague	2	4	18	28	1.7	10.0	0.0	28	4	18	0.0	1.7	10.0	2	0.943	0.001	R	18	10.0	1141.247	1143.695	1144.638	1144.641	0
1	22102408	309	Low	10.0	Vague	2	14	18	28	3.5	10.0	0.0	18	14	28	10.0	3.5	0.0	2	0.638	0.001	L	18	10.0	1145.144	1146.080	1146.718	1146.720	0
1	22102408	310	Low	10.0	Precise	1	9	18	10	2.7	10.0	0.0	10	18	9	0.0	10.0	2.7	1	1.609	0.001	R	9	2.7	1147.224	1149.901	1151.510	1151.512	0
1	22102408	311	Low	10.0	Vague	2	14	18	34	3.5	10.0	0.0	18	34	14	10.0	0.0	3.5	2	1.295	0.001	L	18	10.0	1152.015	1153.231	1154.526	1154.528	0
1	22102408	312	Low	10.0	Precise	1	9	18	2	2.7	10.0	0.0	2	18	9	0.0	10.0	2.7	2	0.823	0.001	D	18	10.0	1155.032	1156.887	1157.710	1157.713	0
1	22102408	313	Low	10.0	Precise	1	13	18	7	5.0	10.0	0.0	7	13	18	0.0	5.0	10.0	2	0.631	0.000	R	18	10.0	1158.215	1159.231	1159.862	1159.864	0
1	22102408	314	Low	10.0	Precise	1	4	9	10	1.7	2.7	0.0	10	9	4	0.0	2.7	1.7	2	1.001	0.001	D	9	2.7	1160.367	1163.357	1164.358	1164.360	0
1	22102408	315	Low	10.0	Precise	1	9	13	15	2.7	5.0	0.0	15	13	9	0.0	5.0	2.7	1	0.999	0.000	R	9	2.7	1164.864	1166.559	1167.558	1167.560	0
1	22102408	316	Low	10.0	Vague	2	4	14	20	1.7	3.5	0.0	20	14	4	0.0	3.5	1.7	2	0.937	0.001	D	14	3.5	1168.063	1168.741	1169.678	1169.680	0
1	22102408	317	Low	10.0	Precise	1	14	13	5	3.5	5.0	0.0	14	5	13	3.5	0.0	5.0	2	0.647	0.000	R	13	5.0	1170.183	1171.799	1172.446	1172.448	0
1	22102408	318	Low	10.0	Vague	2	13	17	28	5.0	5.0	0.0	17	28	13	5.0	0.0	5.0	1	0.727	0.000	R	13	5.0	1172.950	1174.271	1174.998	1175.000	0
1	22102408	319	Low	10.0	Vague	2	9	14	28	2.7	3.5	0.0	9	28	14	2.7	0.0	3.5	1	1.382	0.001	L	9	2.7	1175.503	1178.232	1179.614	1179.616	0
1	22102408	320	Low	10.0	Precise	1	4	18	2	1.7	10.0	0.0	2	4	18	0.0	1.7	10.0	2	0.658	0.001	R	18	10.0	1180.119	1181.884	1182.542	1182.544	0
1	22102408	321	Low	10.0	Vague	2	9	13	22	2.7	5.0	0.0	9	22	13	2.7	0.0	5.0	2	1.409	0.001	R	13	5.0	1183.048	1184.773	1186.182	1186.184	0
1	22102408	322	Low	10.0	Precise	1	4	13	10	1.7	5.0	0.0	4	10	13	1.7	0.0	5.0	2	0.792	0.000	R	13	5.0	1186.688	1187.654	1188.446	1188.448	0
1	22102408	323	Low	10.0	Precise	1	13	18	2	5.0	10.0	0.0	18	13	2	10.0	5.0	0.0	2	0.790	0.001	L	18	10.0	1188.951	1191.880	1192.670	1192.672	0
1	22102408	324	Low	10.0	Precise	1	4	13	5	1.7	5.0	0.0	5	13	4	0.0	5.0	1.7	3	0.590	0.000	L	5	0.0	1193.176	1195.527	1196.118	1196.120	0
1	22102408	325	Low	10.0	Precise	1	4	18	10	1.7	10.0	0.0	4	18	10	1.7	10.0	0.0	2	1.041	0.001	D	18	10.0	1196.623	1197.565	1198.606	1198.608	0
1	22102408	326	Low	10.0	Precise	1	14	13	15	3.5	5.0	0.0	15	13	14	0.0	5.0	3.5	2	1.004	0.000	D	13	5.0	1199.111	1201.298	1202.302	1202.304	0
1	22102408	327	Low	10.0	Vague	2	9	14	25	2.7	3.5	0.0	9	14	25	2.7	3.5	0.0	1	1.273	0.000	L	9	2.7	1202.807	1205.468	1206.742	1206.744	0
1	22102408	328	Low	10.0	Vague	2	4	13	25	1.7	5.0	0.0	4	25	13	1.7	0.0	5.0	2	0.634	0.000	R	13	5.0	1207.246	1209.476	1210.110	1210.113	0
1	22102408	329	Low	10.0	Vague	2	13	18	32	5.0	10.0	0.0	32	13	18	0.0	5.0	10.0	2	0.657	0.000	R	18	10.0	1210.616	1212.309	1212.966	1212.968	0
1	22102408	330	Low	10.0	Precise	1	14	13	7	3.5	5.0	0.0	14	7	13	3.5	0.0	5.0	2	1.092	0.000	R	13	5.0	1213.471	1216.018	1217.110	1217.112	0
1	22102408	331	Low	10.0	Precise	1	4	9	7	1.7	2.7	0.0	4	9	7	1.7	2.7	0.0	2	0.916	0.000	D	9	2.7	1217.615	1219.338	1220.254	1220.256	0
1	22102408	332	Low	10.0	Precise	1	9	13	11	2.7	5.0	0.5	11	13	9	0.5	5.0	2.7	1	0.689	0.000	R	9	2.7	1220.759	1222.829	1223.518	1223.520	0
1	22102408	333	Low	10.0	Vague	2	9	18	32	2.7	10.0	0.0	32	18	9	0.0	10.0	2.7	2	0.959	0.001	D	18	10.0	1224.023	1226.943	1227.902	1227.905	0
1	22102408	334	Low	10.0	Vague	2	14	17	32	3.5	5.0	0.0	32	14	17	0.0	3.5	5.0	2	1.769	0.000	R	17	5.0	1228.407	1228.965	1230.734	1230.736	0
1	22102408	335	Low	10.0	Vague	2	9	13	20	2.7	5.0	0.0	9	13	20	2.7	5.0	0.0	2	0.901	0.000	D	13	5.0	1231.239	1232.097	1232.998	1233.000	0
1	22102408	336	Low	10.0	Precise	1	9	18	11	2.7	10.0	0.5	11	18	9	0.5	10.0	2.7	2	0.991	0.001	D	18	10.0	1233.503	1235.935	1236.926	1236.928	0
1	22102408	337	Low	10.0	Precise	1	14	17	10	3.5	5.0	0.0	10	14	17	0.0	3.5	5.0	2	1.021	0.000	R	17	5.0	1237.431	1239.017	1240.038	1240.040	0
1	22102408	338	Low	10.0	Vague	2	17	18	22	5.0	10.0	0.0	18	17	22	10.0	5.0	0.0	2	0.874	0.000	L	18	10.0	1240.543	1241.844	1242.718	1242.720	0
1	22102408	339	Low	10.0	Vague	2	4	13	32	1.7	5.0	0.0	13	32	4	5.0	0.0	1.7	2	1.311	0.000	L	13	5.0	1243.223	1246.095	1247.406	1247.408	0
1	22102408	340	Low	10.0	Precise	1	9	13	2	2.7	5.0	0.0	2	13	9	0.0	5.0	2.7	2	0.902	0.000	D	13	5.0	1247.911	1249.896	1250.798	1250.800	0
1	22102408	341	Low	10.0	Precise	1	17	18	7	5.0	10.0	0.0	7	18	17	0.0	10.0	5.0	2	0.846	0.000	D	18	10.0	1251.304	1253.352	1254.198	1254.200	0
1	22102408	342	Low	10.0	Vague	2	4	17	28	1.7	5.0	0.0	28	17	4	0.0	5.0	1.7	2	0.817	0.000	D	17	5.0	1254.704	1256.013	1256.830	1256.832	0
1	22102408	343	Low	10.0	Precise	1	4	9	2	1.7	2.7	0.0	9	4	2	2.7	1.7	0.0	2	1.665	0.000	L	9	2.7	1257.334	1258.533	1260.198	1260.200	0
1	22102408	344	Low	10.0	Vague	2	4	14	25	1.7	3.5	0.0	4	14	25	1.7	3.5	0.0	2	1.597	0.000	D	14	3.5	1260.703	1263.545	1265.142	1265.145	0
1	22102408	345	Low	10.0	Precise	1	14	17	2	3.5	5.0	0.0	14	2	17	3.5	0.0	5.0	2	2.173	0.001	R	17	5.0	1265.647	1268.065	1270.238	1270.240	0
1	22102408	346	Low	10.0	Vague	2	9	17	28	2.7	5.0	0.0	9	28	17	2.7	0.0	5.0	3	1.410	0.001	D	28	0.0	1270.743	1272.092	1273.502	1273.505	0
1	22102408	347	Low	10.0	Vague	2	4	17	20	1.7	5.0	0.0	20	17	4	0.0	5.0	1.7	2	1.428	0.000	D	17	5.0	1274.008	1275.826	1277.254	1277.256	0
1	22102408	348	Low	10.0	Precise	1	9	13	10	2.7	5.0	0.0	10	13	9	0.0	5.0	2.7	1	0.667	0.000	R	9	2.7	1277.759	1279.123	1279.790	1279.792	0
1	22102408	349	Low	10.0	Vague	2	9	13	28	2.7	5.0	0.0	9	13	28	2.7	5.0	0.0	2	0.479	0.000	D	13	5.0	1280.295	1281.142	1281.622	1281.624	0
1	22102408	350	Low	10.0	Precise	1	4	18	7	1.7	10.0	0.0	18	4	7	10.0	1.7	0.0	2	1.166	0.001	L	18	10.0	1282.127	1284.832	1285.998	1286.001	0
1	22102408	351	Low	10.0	Vague	2	4	9	34	1.7	2.7	0.0	9	34	4	2.7	0.0	1.7	2	1.189	0.001	L	9	2.7	1286.503	1287.241	1288.430	1288.433	0
1	22102408	352	Low	10.0	Precise	1	9	18	7	2.7	10.0	0.0	18	9	7	10.0	2.7	0.0	2	0.647	0.001	L	18	10.0	1288.936	1290.424	1291.070	1291.073	0
1	22102408	353	Low	10.0	Vague	2	4	14	34	1.7	3.5	0.0	14	4	34	3.5	1.7	0.0	2	1.664	0.001	L	14	3.5	1291.576	1292.175	1293.838	1293.841	0
1	22102408	354	Low	10.0	Vague	2	9	18	25	2.7	10.0	0.0	18	25	9	10.0	0.0	2.7	2	0.609	0.001	L	18	10.0	1294.344	1296.501	1297.110	1297.112	0
1	22102408	355	Low	10.0	Vague	2	13	17	25	5.0	5.0	0.0	13	17	25	5.0	5.0	0.0	1	0.675	0.000	L	13	5.0	1297.615	1299.051	1299.726	1299.728	0
1	22102408	356	Low	10.0	Vague	2	9	14	22	2.7	3.5	0.0	9	22	14	2.7	0.0	3.5	1	1.257	0.001	L	9	2.7	1300.231	1301.165	1302.422	1302.425	0
1	22102408	357	Low	10.0	Vague	2	14	13	25	3.5	5.0	0.0	14	25	13	3.5	0.0	5.0	2	0.921	0.000	R	13	5.0	1302.928	1305.813	1306.734	1306.736	0
1	22102408	358	Low	10.0	Precise	1	9	14	2	2.7	3.5	0.0	9	2	14	2.7	0.0	3.5	1	0.737	0.000	L	9	2.7	1307.240	1309.853	1310.590	1310.592	0
1	22102408	359	Low	10.0	Vague	2	4	17	34	1.7	5.0	0.0	34	17	4	0.0	5.0	1.7	2	0.774	0.000	D	17	5.0	1311.095	1313.880	1314.654	1314.656	0
1	22102408	360	Low	10.0	Precise	1	4	18	5	1.7	10.0	0.0	18	4	5	10.0	1.7	0.0	2	0.660	0.000	L	18	10.0	1315.160	1316.354	1317.014	1317.016	0
