Group	subID	trial	TimePressure	TimeConstraint	Vagueness	Vaguenesscode	ID1	ID2	ID3	V1	V2	V3	ID_left	ID_middle	ID_right	Bid_left	Bid_middle	Bid_right	chosenItem	RT	RTvariance	chosenPosition	chosenID	chosenValue	fixation_time	option_time	choice_time	feedback_time	timeout
2	22102705	1	Low	10.0	Vague	2	31	34	4	0.0	5.0	0.0	34	31	4	5.0	0.0	0.0	2	0.847	0.000	L	34	5.0	4.978	6.263	7.110	7.113	0
2	22102705	2	Low	10.0	Precise	1	31	35	25	0.0	0.0	0.0	35	31	25	0.0	0.0	0.0	2	3.068	0.001	L	35	0.0	7.616	10.530	13.598	13.601	0
2	22102705	3	Low	10.0	Precise	1	31	35	21	0.0	0.0	0.0	31	21	35	0.0	0.0	0.0	2	1.044	0.001	R	35	0.0	14.106	15.698	16.742	16.745	0
2	22102705	4	Low	10.0	Precise	1	32	35	23	0.0	0.0	0.0	23	32	35	0.0	0.0	0.0	2	1.285	0.000	R	35	0.0	17.248	20.017	21.302	21.305	0
2	22102705	5	Low	10.0	Vague	2	32	36	2	0.0	0.0	0.0	32	36	2	0.0	0.0	0.0	2	3.401	0.001	D	36	0.0	21.808	22.525	25.926	25.931	0
2	22102705	6	Low	10.0	Vague	2	31	35	6	0.0	0.0	0.0	31	35	6	0.0	0.0	0.0	2	3.291	0.001	D	35	0.0	26.436	27.315	30.606	30.609	0
2	22102705	7	Low	10.0	Precise	1	33	34	29	0.0	5.0	0.0	34	29	33	5.0	0.0	0.0	2	0.667	0.001	L	34	5.0	31.111	32.483	33.150	33.153	0
2	22102705	8	Low	10.0	Vague	2	31	35	10	0.0	0.0	0.0	10	35	31	0.0	0.0	0.0	2	1.372	0.000	D	35	0.0	33.655	35.138	36.510	36.513	0
2	22102705	9	Low	10.0	Precise	1	32	34	21	0.0	5.0	0.0	32	21	34	0.0	0.0	5.0	2	0.650	0.000	R	34	5.0	37.015	38.731	39.382	39.384	0
2	22102705	10	Low	10.0	Vague	2	31	32	4	0.0	0.0	0.0	31	32	4	0.0	0.0	0.0	3	3.772	0.000	R	4	0.0	39.888	42.106	45.878	45.880	0
2	22102705	11	Low	10.0	Precise	1	32	36	27	0.0	0.0	0.0	36	27	32	0.0	0.0	0.0	3	2.956	0.000	D	27	0.0	46.383	48.266	51.222	51.224	0
2	22102705	12	Low	10.0	Vague	2	31	34	8	0.0	5.0	0.0	34	31	8	5.0	0.0	0.0	2	0.654	0.000	L	34	5.0	51.727	53.503	54.158	54.160	0
2	22102705	13	Low	10.0	Vague	2	35	36	12	0.0	0.0	0.0	36	35	12	0.0	0.0	0.0	1	1.751	0.000	D	35	0.0	54.663	56.310	58.062	58.064	0
2	22102705	14	Low	10.0	Vague	2	33	36	10	0.0	0.0	0.0	36	10	33	0.0	0.0	0.0	3	3.511	0.001	D	10	0.0	58.566	59.119	62.630	62.632	0
2	22102705	15	Low	10.0	Vague	2	31	32	2	0.0	0.0	0.0	2	32	31	0.0	0.0	0.0	2	3.374	0.000	D	32	0.0	63.135	64.232	67.606	67.608	0
2	22102705	16	Low	10.0	Vague	2	32	33	2	0.0	0.0	0.0	2	33	32	0.0	0.0	0.0	1	1.958	0.000	R	32	0.0	68.111	70.712	72.670	72.672	0
2	22102705	17	Low	10.0	Vague	2	36	34	10	0.0	5.0	0.0	34	36	10	5.0	0.0	0.0	2	0.694	0.001	L	34	5.0	73.175	75.168	75.862	75.865	0
2	22102705	18	Low	10.0	Vague	2	35	34	6	0.0	5.0	0.0	35	6	34	0.0	0.0	5.0	2	0.650	0.000	R	34	5.0	76.368	77.275	77.926	77.928	0
2	22102705	19	Low	10.0	Vague	2	35	36	10	0.0	0.0	0.0	36	10	35	0.0	0.0	0.0	3	1.257	0.000	D	10	0.0	78.432	80.940	82.198	82.200	0
2	22102705	20	Low	10.0	Precise	1	35	36	21	0.0	0.0	0.0	35	36	21	0.0	0.0	0.0	1	1.065	0.000	L	35	0.0	82.703	85.028	86.094	86.096	0
2	22102705	21	Low	10.0	Vague	2	31	34	2	0.0	5.0	0.0	34	31	2	5.0	0.0	0.0	2	0.607	0.000	L	34	5.0	86.599	88.935	89.542	89.544	0
2	22102705	22	Low	10.0	Vague	2	35	34	8	0.0	5.0	0.0	8	35	34	0.0	0.0	5.0	2	0.503	0.001	R	34	5.0	90.048	92.687	93.190	93.192	0
2	22102705	23	Low	10.0	Precise	1	31	36	19	0.0	0.0	0.0	19	31	36	0.0	0.0	0.0	2	6.165	0.001	R	36	0.0	93.695	95.665	101.830	101.833	0
2	22102705	24	Low	10.0	Precise	1	33	35	29	0.0	0.0	0.0	33	29	35	0.0	0.0	0.0	3	2.870	0.001	D	29	0.0	102.335	105.256	108.126	108.129	0
2	22102705	25	Low	10.0	Precise	1	36	34	25	0.0	5.0	0.0	34	25	36	5.0	0.0	0.0	2	0.645	0.000	L	34	5.0	108.632	110.321	110.966	110.968	0
2	22102705	26	Low	10.0	Vague	2	36	34	4	0.0	5.0	0.0	4	34	36	0.0	5.0	0.0	2	1.258	0.000	D	34	5.0	111.471	114.308	115.566	115.568	0
2	22102705	27	Low	10.0	Vague	2	33	36	6	0.0	0.0	0.0	6	33	36	0.0	0.0	0.0	2	2.449	0.001	R	36	0.0	116.071	117.774	120.222	120.225	0
2	22102705	28	Low	10.0	Vague	2	32	35	12	0.0	0.0	0.0	12	35	32	0.0	0.0	0.0	2	1.851	0.001	D	35	0.0	120.727	122.187	124.038	124.040	0
2	22102705	29	Low	10.0	Precise	1	36	34	27	0.0	5.0	0.0	36	34	27	0.0	5.0	0.0	2	1.041	0.001	D	34	5.0	124.544	127.365	128.406	128.408	0
2	22102705	30	Low	10.0	Precise	1	32	34	29	0.0	5.0	0.0	34	29	32	5.0	0.0	0.0	2	0.543	0.000	L	34	5.0	128.911	130.935	131.478	131.480	0
2	22102705	31	Low	10.0	Vague	2	31	35	8	0.0	0.0	0.0	35	31	8	0.0	0.0	0.0	2	2.910	0.001	L	35	0.0	131.983	132.887	135.798	135.800	0
2	22102705	32	Low	10.0	Precise	1	31	32	27	0.0	0.0	0.0	31	32	27	0.0	0.0	0.0	3	1.933	0.000	R	27	0.0	136.303	138.896	140.830	140.832	0
2	22102705	33	Low	10.0	Vague	2	32	36	12	0.0	0.0	0.0	36	32	12	0.0	0.0	0.0	2	1.513	0.001	L	36	0.0	141.336	144.045	145.558	145.560	0
2	22102705	34	Low	10.0	Vague	2	31	32	6	0.0	0.0	0.0	31	6	32	0.0	0.0	0.0	3	1.506	0.001	D	6	0.0	146.063	148.396	149.902	149.904	0
2	22102705	35	Low	10.0	Precise	1	32	33	23	0.0	0.0	0.0	33	23	32	0.0	0.0	0.0	1	1.455	0.000	R	32	0.0	150.407	151.047	152.502	152.504	0
2	22102705	36	Low	10.0	Vague	2	33	34	8	0.0	5.0	0.0	33	8	34	0.0	0.0	5.0	2	0.657	0.001	R	34	5.0	153.007	154.293	154.950	154.952	0
2	22102705	37	Low	10.0	Precise	1	31	36	21	0.0	0.0	0.0	21	31	36	0.0	0.0	0.0	2	1.674	0.000	R	36	0.0	155.454	157.076	158.750	158.752	0
2	22102705	38	Low	10.0	Precise	1	31	36	23	0.0	0.0	0.0	31	23	36	0.0	0.0	0.0	2	0.753	0.000	R	36	0.0	159.255	161.109	161.862	161.864	0
2	22102705	39	Low	10.0	Precise	1	32	33	21	0.0	0.0	0.0	33	32	21	0.0	0.0	0.0	1	1.562	0.000	D	32	0.0	162.368	164.116	165.678	165.680	0
2	22102705	40	Low	10.0	Vague	2	31	34	6	0.0	5.0	0.0	6	31	34	0.0	0.0	5.0	2	0.775	0.000	R	34	5.0	166.183	167.062	167.838	167.840	0
2	22102705	41	Low	10.0	Vague	2	33	35	4	0.0	0.0	0.0	35	33	4	0.0	0.0	0.0	2	0.998	0.001	L	35	0.0	168.342	170.752	171.750	171.752	0
2	22102705	42	Low	10.0	Precise	1	35	36	19	0.0	0.0	0.0	36	19	35	0.0	0.0	0.0	1	0.990	0.000	R	35	0.0	172.255	175.240	176.230	176.232	0
2	22102705	43	Low	10.0	Precise	1	31	34	19	0.0	5.0	0.0	19	31	34	0.0	0.0	5.0	2	0.527	0.000	R	34	5.0	176.735	177.703	178.230	178.232	0
2	22102705	44	Low	10.0	Precise	1	33	34	27	0.0	5.0	0.0	33	34	27	0.0	5.0	0.0	2	0.661	0.001	D	34	5.0	178.735	180.281	180.942	180.944	0
2	22102705	45	Low	10.0	Precise	1	33	36	27	0.0	0.0	0.0	27	33	36	0.0	0.0	0.0	3	1.182	0.000	L	27	0.0	181.447	182.776	183.958	183.960	0
2	22102705	46	Low	10.0	Vague	2	35	36	8	0.0	0.0	0.0	8	35	36	0.0	0.0	0.0	1	1.968	0.001	D	35	0.0	184.464	187.102	189.070	189.072	0
2	22102705	47	Low	10.0	Vague	2	31	33	6	0.0	0.0	0.0	33	31	6	0.0	0.0	0.0	3	2.237	0.000	R	6	0.0	189.575	190.601	192.838	192.840	0
2	22102705	48	Low	10.0	Vague	2	35	36	6	0.0	0.0	0.0	36	35	6	0.0	0.0	0.0	2	0.954	0.000	L	36	0.0	193.343	195.115	196.070	196.072	0
2	22102705	49	Low	10.0	Precise	1	35	36	27	0.0	0.0	0.0	27	35	36	0.0	0.0	0.0	1	1.770	0.001	D	35	0.0	196.575	198.060	199.830	199.832	0
2	22102705	50	Low	10.0	Precise	1	35	34	25	0.0	5.0	0.0	25	35	34	0.0	0.0	5.0	2	0.692	0.000	R	34	5.0	200.335	200.882	201.574	201.576	0
2	22102705	51	Low	10.0	Vague	2	31	36	6	0.0	0.0	0.0	6	36	31	0.0	0.0	0.0	2	1.732	0.000	D	36	0.0	202.080	203.186	204.918	204.920	0
2	22102705	52	Low	10.0	Vague	2	32	34	6	0.0	5.0	0.0	32	34	6	0.0	5.0	0.0	2	0.819	0.000	D	34	5.0	205.424	208.354	209.174	209.176	0
2	22102705	53	Low	10.0	Vague	2	32	35	4	0.0	0.0	0.0	35	4	32	0.0	0.0	0.0	2	1.679	0.000	L	35	0.0	209.679	211.327	213.006	213.008	0
2	22102705	54	Low	10.0	Precise	1	32	34	25	0.0	5.0	0.0	25	32	34	0.0	0.0	5.0	2	0.604	0.000	R	34	5.0	213.511	214.434	215.038	215.040	0
2	22102705	55	Low	10.0	Vague	2	35	34	12	0.0	5.0	0.0	12	35	34	0.0	0.0	5.0	2	0.570	0.000	R	34	5.0	215.544	217.860	218.430	218.432	0
2	22102705	56	Low	10.0	Precise	1	33	35	23	0.0	0.0	0.0	33	23	35	0.0	0.0	0.0	2	0.794	0.000	R	35	0.0	218.935	220.228	221.022	221.024	0
2	22102705	57	Low	10.0	Precise	1	32	35	21	0.0	0.0	0.0	35	32	21	0.0	0.0	0.0	2	1.392	0.000	L	35	0.0	221.527	224.437	225.830	225.833	0
2	22102705	58	Low	10.0	Precise	1	31	33	21	0.0	0.0	0.0	33	21	31	0.0	0.0	0.0	2	3.856	0.000	L	33	0.0	226.335	228.174	232.030	232.033	0
2	22102705	59	Low	10.0	Precise	1	33	36	25	0.0	0.0	0.0	25	33	36	0.0	0.0	0.0	2	1.090	0.001	R	36	0.0	232.536	233.804	234.894	234.896	0
2	22102705	60	Low	10.0	Precise	1	31	33	27	0.0	0.0	0.0	27	31	33	0.0	0.0	0.0	3	1.761	0.000	L	27	0.0	235.399	236.453	238.214	238.216	0
2	22102705	61	Low	10.0	Precise	1	31	32	23	0.0	0.0	0.0	31	32	23	0.0	0.0	0.0	2	1.726	0.000	D	32	0.0	251.508	253.664	255.390	255.392	0
2	22102705	62	Low	10.0	Vague	2	36	34	2	0.0	5.0	0.0	36	34	2	0.0	5.0	0.0	2	0.989	0.001	D	34	5.0	255.895	258.249	259.238	259.240	0
2	22102705	63	Low	10.0	Vague	2	33	36	4	0.0	0.0	0.0	4	33	36	0.0	0.0	0.0	2	1.751	0.000	R	36	0.0	259.743	262.310	264.062	264.064	0
2	22102705	64	Low	10.0	Precise	1	32	36	21	0.0	0.0	0.0	21	36	32	0.0	0.0	0.0	2	0.932	0.001	D	36	0.0	264.567	265.882	266.814	266.816	0
2	22102705	65	Low	10.0	Precise	1	35	34	29	0.0	5.0	0.0	29	34	35	0.0	5.0	0.0	2	0.580	0.000	D	34	5.0	267.320	269.778	270.358	270.360	0
2	22102705	66	Low	10.0	Vague	2	31	36	10	0.0	0.0	0.0	10	36	31	0.0	0.0	0.0	3	1.183	0.000	L	10	0.0	270.863	272.598	273.782	273.784	0
2	22102705	67	Low	10.0	Precise	1	36	34	21	0.0	5.0	0.0	34	21	36	5.0	0.0	0.0	2	0.707	0.000	L	34	5.0	274.287	276.723	277.430	277.432	0
2	22102705	68	Low	10.0	Vague	2	33	35	6	0.0	0.0	0.0	35	33	6	0.0	0.0	0.0	2	1.050	0.001	L	35	0.0	277.936	280.917	281.966	281.969	0
2	22102705	69	Low	10.0	Vague	2	35	34	2	0.0	5.0	0.0	2	35	34	0.0	0.0	5.0	2	0.739	0.001	R	34	5.0	282.471	284.267	285.006	285.008	0
2	22102705	70	Low	10.0	Vague	2	32	34	10	0.0	5.0	0.0	34	10	32	5.0	0.0	0.0	2	0.536	0.000	L	34	5.0	285.511	288.213	288.750	288.752	0
2	22102705	71	Low	10.0	Precise	1	33	36	29	0.0	0.0	0.0	36	33	29	0.0	0.0	0.0	2	1.182	0.001	L	36	0.0	289.256	290.056	291.238	291.240	0
2	22102705	72	Low	10.0	Precise	1	33	34	19	0.0	5.0	0.0	34	19	33	5.0	0.0	0.0	2	0.537	0.000	L	34	5.0	291.743	294.388	294.926	294.928	0
2	22102705	73	Low	10.0	Vague	2	35	36	4	0.0	0.0	0.0	35	36	4	0.0	0.0	0.0	1	1.292	0.001	L	35	0.0	295.431	297.961	299.254	299.257	0
2	22102705	74	Low	10.0	Vague	2	32	36	4	0.0	0.0	0.0	36	32	4	0.0	0.0	0.0	2	1.151	0.000	L	36	0.0	299.760	302.359	303.510	303.512	0
2	22102705	75	Low	10.0	Vague	2	31	35	12	0.0	0.0	0.0	35	12	31	0.0	0.0	0.0	2	1.421	0.000	L	35	0.0	304.015	304.648	306.070	306.072	0
2	22102705	76	Low	10.0	Precise	1	32	36	23	0.0	0.0	0.0	32	36	23	0.0	0.0	0.0	2	1.240	0.000	D	36	0.0	306.574	307.309	308.550	308.552	0
2	22102705	77	Low	10.0	Vague	2	36	34	8	0.0	5.0	0.0	36	8	34	0.0	0.0	5.0	2	0.907	0.000	R	34	5.0	309.056	311.427	312.334	312.336	0
2	22102705	78	Low	10.0	Precise	1	31	34	25	0.0	5.0	0.0	34	25	31	5.0	0.0	0.0	2	0.625	0.001	L	34	5.0	312.839	313.877	314.502	314.504	0
2	22102705	79	Low	10.0	Vague	2	32	33	12	0.0	0.0	0.0	33	12	32	0.0	0.0	0.0	2	1.923	0.001	L	33	0.0	315.007	317.531	319.454	319.457	0
2	22102705	80	Low	10.0	Vague	2	32	33	8	0.0	0.0	0.0	8	32	33	0.0	0.0	0.0	2	1.459	0.001	R	33	0.0	319.960	321.075	322.534	322.537	0
2	22102705	81	Low	10.0	Vague	2	31	33	2	0.0	0.0	0.0	31	2	33	0.0	0.0	0.0	2	1.154	0.001	R	33	0.0	323.040	325.500	326.654	326.657	0
2	22102705	82	Low	10.0	Precise	1	31	36	27	0.0	0.0	0.0	36	31	27	0.0	0.0	0.0	2	0.927	0.000	L	36	0.0	327.160	329.959	330.886	330.888	0
2	22102705	83	Low	10.0	Precise	1	31	34	29	0.0	5.0	0.0	29	31	34	0.0	0.0	5.0	2	0.567	0.001	R	34	5.0	331.391	333.151	333.718	333.720	0
2	22102705	84	Low	10.0	Vague	2	31	36	8	0.0	0.0	0.0	36	31	8	0.0	0.0	0.0	2	1.796	0.000	L	36	0.0	334.223	335.858	337.654	337.656	0
2	22102705	85	Low	10.0	Precise	1	31	33	19	0.0	0.0	0.0	33	31	19	0.0	0.0	0.0	2	1.534	0.001	L	33	0.0	338.159	339.864	341.398	341.400	0
2	22102705	86	Low	10.0	Precise	1	33	36	19	0.0	0.0	0.0	19	33	36	0.0	0.0	0.0	2	0.632	0.001	R	36	0.0	341.903	343.270	343.902	343.904	0
2	22102705	87	Low	10.0	Precise	1	32	34	19	0.0	5.0	0.0	19	34	32	0.0	5.0	0.0	2	0.907	0.001	D	34	5.0	344.407	347.355	348.262	348.264	0
2	22102705	88	Low	10.0	Vague	2	32	36	6	0.0	0.0	0.0	6	32	36	0.0	0.0	0.0	2	1.183	0.000	R	36	0.0	348.768	349.591	350.774	350.776	0
2	22102705	89	Low	10.0	Precise	1	32	34	23	0.0	5.0	0.0	23	34	32	0.0	5.0	0.0	2	0.775	0.000	D	34	5.0	351.280	353.903	354.678	354.680	0
2	22102705	90	Low	10.0	Vague	2	32	33	6	0.0	0.0	0.0	33	32	6	0.0	0.0	0.0	3	1.493	0.000	R	6	0.0	355.183	356.392	357.886	357.888	0
2	22102705	91	Low	10.0	Vague	2	31	32	12	0.0	0.0	0.0	12	31	32	0.0	0.0	0.0	1	1.917	0.000	D	31	0.0	358.390	359.297	361.214	361.216	0
2	22102705	92	Low	10.0	Vague	2	31	33	8	0.0	0.0	0.0	31	8	33	0.0	0.0	0.0	2	1.241	0.001	R	33	0.0	361.719	363.357	364.598	364.600	0
2	22102705	93	Low	10.0	Precise	1	32	35	29	0.0	0.0	0.0	29	32	35	0.0	0.0	0.0	2	1.272	0.000	R	35	0.0	365.103	366.702	367.974	367.976	0
2	22102705	94	Low	10.0	Vague	2	31	32	8	0.0	0.0	0.0	8	32	31	0.0	0.0	0.0	1	1.877	0.000	R	31	0.0	368.480	369.817	371.694	371.696	0
2	22102705	95	Low	10.0	Precise	1	31	34	27	0.0	5.0	0.0	34	31	27	5.0	0.0	0.0	2	0.648	0.000	L	34	5.0	372.198	373.062	373.710	373.712	0
2	22102705	96	Low	10.0	Precise	1	35	36	25	0.0	0.0	0.0	36	35	25	0.0	0.0	0.0	1	1.797	0.001	D	35	0.0	374.215	375.721	377.518	377.520	0
2	22102705	97	Low	10.0	Vague	2	32	34	8	0.0	5.0	0.0	32	8	34	0.0	0.0	5.0	2	0.537	0.000	R	34	5.0	378.024	380.141	380.678	380.680	0
2	22102705	98	Low	10.0	Vague	2	35	34	10	0.0	5.0	0.0	10	35	34	0.0	0.0	5.0	2	0.485	0.000	R	34	5.0	381.183	382.769	383.254	383.256	0
2	22102705	99	Low	10.0	Precise	1	32	35	19	0.0	0.0	0.0	19	35	32	0.0	0.0	0.0	2	1.846	0.000	D	35	0.0	383.759	386.615	388.462	388.464	0
2	22102705	100	Low	10.0	Precise	1	35	36	29	0.0	0.0	0.0	29	35	36	0.0	0.0	0.0	2	1.273	0.000	R	36	0.0	388.967	389.989	391.262	391.264	0
2	22102705	101	Low	10.0	Vague	2	32	34	12	0.0	5.0	0.0	34	32	12	5.0	0.0	0.0	2	0.506	0.001	L	34	5.0	391.767	394.372	394.878	394.881	0
2	22102705	102	Low	10.0	Vague	2	32	35	10	0.0	0.0	0.0	35	10	32	0.0	0.0	0.0	2	1.113	0.000	L	35	0.0	395.384	397.029	398.142	398.144	0
2	22102705	103	Low	10.0	Precise	1	35	34	21	0.0	5.0	0.0	35	34	21	0.0	5.0	0.0	2	0.967	0.001	D	34	5.0	398.647	399.311	400.278	400.280	0
2	22102705	104	Low	10.0	Vague	2	31	35	4	0.0	0.0	0.0	4	35	31	0.0	0.0	0.0	2	0.801	0.000	D	35	0.0	400.784	403.157	403.958	403.960	0
2	22102705	105	Low	10.0	Vague	2	31	32	10	0.0	0.0	0.0	31	10	32	0.0	0.0	0.0	3	1.315	0.000	D	10	0.0	404.463	405.499	406.814	406.816	0
2	22102705	106	Low	10.0	Precise	1	33	35	25	0.0	0.0	0.0	25	35	33	0.0	0.0	0.0	2	0.783	0.000	D	35	0.0	407.320	409.487	410.270	410.272	0
2	22102705	107	Low	10.0	Vague	2	32	35	2	0.0	0.0	0.0	2	32	35	0.0	0.0	0.0	2	0.971	0.000	R	35	0.0	410.775	413.195	414.166	414.168	0
2	22102705	108	Low	10.0	Precise	1	32	36	29	0.0	0.0	0.0	29	32	36	0.0	0.0	0.0	2	1.068	0.000	R	36	0.0	414.672	417.194	418.262	418.264	0
2	22102705	109	Low	10.0	Precise	1	36	34	23	0.0	5.0	0.0	23	34	36	0.0	5.0	0.0	2	0.702	0.000	D	34	5.0	418.767	421.176	421.878	421.880	0
2	22102705	110	Low	10.0	Precise	1	31	36	29	0.0	0.0	0.0	36	29	31	0.0	0.0	0.0	2	1.066	0.000	L	36	0.0	422.384	425.340	426.406	426.408	0
2	22102705	111	Low	10.0	Vague	2	33	34	4	0.0	5.0	0.0	4	33	34	0.0	0.0	5.0	2	0.517	0.001	R	34	5.0	426.911	429.705	430.222	430.224	0
2	22102705	112	Low	10.0	Precise	1	33	34	21	0.0	5.0	0.0	33	34	21	0.0	5.0	0.0	2	0.580	0.000	D	34	5.0	430.727	433.113	433.694	433.696	0
2	22102705	113	Low	10.0	Vague	2	35	34	4	0.0	5.0	0.0	4	35	34	0.0	0.0	5.0	2	0.439	0.000	R	34	5.0	434.199	436.727	437.166	437.168	0
2	22102705	114	Low	10.0	Precise	1	35	34	19	0.0	5.0	0.0	35	34	19	0.0	5.0	0.0	2	0.464	0.001	D	34	5.0	437.671	440.030	440.494	440.496	0
2	22102705	115	Low	10.0	Precise	1	35	34	23	0.0	5.0	0.0	35	23	34	0.0	0.0	5.0	2	0.450	0.000	R	34	5.0	441.000	443.131	443.582	443.584	0
2	22102705	116	Low	10.0	Precise	1	33	36	23	0.0	0.0	0.0	33	36	23	0.0	0.0	0.0	2	1.128	0.001	D	36	0.0	444.088	445.902	447.030	447.033	0
2	22102705	117	Low	10.0	Vague	2	32	35	8	0.0	0.0	0.0	35	8	32	0.0	0.0	0.0	2	1.438	0.000	L	35	0.0	447.535	449.552	450.990	450.992	0
2	22102705	118	Low	10.0	Vague	2	31	36	4	0.0	0.0	0.0	31	36	4	0.0	0.0	0.0	2	1.080	0.000	D	36	0.0	451.495	452.734	453.814	453.816	0
2	22102705	119	Low	10.0	Precise	1	32	33	19	0.0	0.0	0.0	19	32	33	0.0	0.0	0.0	2	1.902	0.000	R	33	0.0	454.319	457.112	459.014	459.017	0
2	22102705	120	Low	10.0	Vague	2	32	34	2	0.0	5.0	0.0	34	32	2	5.0	0.0	0.0	2	0.625	0.001	L	34	5.0	459.520	460.277	460.902	460.905	0
2	22102705	121	Low	10.0	Vague	2	32	33	10	0.0	0.0	0.0	33	10	32	0.0	0.0	0.0	3	1.176	0.000	D	10	0.0	485.850	487.150	488.326	488.328	0
2	22102705	122	Low	10.0	Vague	2	31	34	12	0.0	5.0	0.0	31	34	12	0.0	5.0	0.0	2	0.580	0.000	D	34	5.0	488.831	490.370	490.950	490.952	0
2	22102705	123	Low	10.0	Vague	2	31	36	12	0.0	0.0	0.0	31	36	12	0.0	0.0	0.0	2	1.174	0.000	D	36	0.0	491.455	492.624	493.798	493.800	0
2	22102705	124	Low	10.0	Precise	1	31	34	21	0.0	5.0	0.0	31	34	21	0.0	5.0	0.0	2	0.690	0.000	D	34	5.0	494.303	495.452	496.142	496.144	0
2	22102705	125	Low	10.0	Precise	1	36	34	29	0.0	5.0	0.0	29	36	34	0.0	0.0	5.0	2	0.687	0.000	R	34	5.0	496.647	497.695	498.382	498.384	0
2	22102705	126	Low	10.0	Vague	2	36	34	6	0.0	5.0	0.0	6	34	36	0.0	5.0	0.0	2	0.580	0.001	D	34	5.0	498.887	501.274	501.854	501.856	0
2	22102705	127	Low	10.0	Precise	1	32	34	27	0.0	5.0	0.0	32	27	34	0.0	0.0	5.0	2	0.587	0.000	R	34	5.0	502.359	505.131	505.718	505.720	0
2	22102705	128	Low	10.0	Vague	2	32	33	4	0.0	0.0	0.0	32	33	4	0.0	0.0	0.0	2	1.165	0.000	D	33	0.0	506.223	509.129	510.294	510.296	0
2	22102705	129	Low	10.0	Precise	1	33	34	25	0.0	5.0	0.0	33	34	25	0.0	5.0	0.0	2	0.675	0.000	D	34	5.0	510.800	512.315	512.990	512.992	0
2	22102705	130	Low	10.0	Precise	1	33	35	27	0.0	0.0	0.0	33	27	35	0.0	0.0	0.0	3	0.892	0.000	D	27	0.0	513.496	514.969	515.862	515.864	0
2	22102705	131	Low	10.0	Precise	1	31	32	29	0.0	0.0	0.0	31	32	29	0.0	0.0	0.0	3	1.159	0.000	R	29	0.0	516.367	519.135	520.294	520.296	0
2	22102705	132	Low	10.0	Vague	2	33	34	6	0.0	5.0	0.0	33	6	34	0.0	0.0	5.0	2	0.511	0.000	R	34	5.0	520.799	522.919	523.430	523.432	0
2	22102705	133	Low	10.0	Precise	1	31	33	29	0.0	0.0	0.0	31	29	33	0.0	0.0	0.0	3	1.223	0.000	D	29	0.0	523.935	526.039	527.262	527.264	0
2	22102705	134	Low	10.0	Precise	1	32	35	27	0.0	0.0	0.0	32	27	35	0.0	0.0	0.0	2	0.840	0.000	R	35	0.0	527.767	529.334	530.174	530.176	0
2	22102705	135	Low	10.0	Vague	2	31	36	2	0.0	0.0	0.0	2	31	36	0.0	0.0	0.0	2	0.824	0.001	R	36	0.0	530.678	533.503	534.326	534.329	0
2	22102705	136	Low	10.0	Vague	2	31	33	4	0.0	0.0	0.0	31	33	4	0.0	0.0	0.0	2	1.626	0.001	D	33	0.0	534.832	536.292	537.918	537.920	0
2	22102705	137	Low	10.0	Vague	2	31	35	2	0.0	0.0	0.0	35	31	2	0.0	0.0	0.0	2	1.139	0.001	L	35	0.0	538.423	540.403	541.542	541.544	0
2	22102705	138	Low	10.0	Precise	1	33	34	23	0.0	5.0	0.0	34	33	23	5.0	0.0	0.0	2	0.632	0.001	L	34	5.0	542.047	544.126	544.758	544.760	0
2	22102705	139	Low	10.0	Vague	2	36	34	12	0.0	5.0	0.0	36	34	12	0.0	5.0	0.0	2	0.980	0.001	D	34	5.0	545.263	548.203	549.182	549.185	0
2	22102705	140	Low	10.0	Precise	1	36	34	19	0.0	5.0	0.0	36	34	19	0.0	5.0	0.0	2	0.762	0.000	D	34	5.0	549.688	551.076	551.838	551.840	0
2	22102705	141	Low	10.0	Vague	2	33	35	12	0.0	0.0	0.0	12	33	35	0.0	0.0	0.0	2	1.972	0.000	R	35	0.0	552.343	554.273	556.246	556.248	0
2	22102705	142	Low	10.0	Vague	2	32	34	4	0.0	5.0	0.0	32	34	4	0.0	5.0	0.0	2	0.570	0.000	D	34	5.0	556.751	558.212	558.782	558.785	0
2	22102705	143	Low	10.0	Precise	1	31	32	19	0.0	0.0	0.0	19	31	32	0.0	0.0	0.0	2	1.594	0.000	R	32	0.0	559.288	561.772	563.366	563.368	0
2	22102705	144	Low	10.0	Vague	2	32	35	6	0.0	0.0	0.0	32	35	6	0.0	0.0	0.0	2	1.044	0.000	D	35	0.0	563.871	564.722	565.766	565.768	0
2	22102705	145	Low	10.0	Precise	1	32	33	25	0.0	0.0	0.0	25	33	32	0.0	0.0	0.0	3	2.630	0.000	L	25	0.0	566.272	567.895	570.526	570.528	0
2	22102705	146	Low	10.0	Vague	2	33	34	2	0.0	5.0	0.0	2	34	33	0.0	5.0	0.0	2	0.666	0.001	D	34	5.0	571.031	573.956	574.622	574.624	0
2	22102705	147	Low	10.0	Vague	2	31	34	10	0.0	5.0	0.0	34	31	10	5.0	0.0	0.0	2	0.575	0.001	L	34	5.0	575.127	576.999	577.574	577.576	0
2	22102705	148	Low	10.0	Precise	1	31	35	29	0.0	0.0	0.0	29	35	31	0.0	0.0	0.0	3	1.041	0.000	L	29	0.0	578.080	580.229	581.270	581.272	0
2	22102705	149	Low	10.0	Vague	2	32	36	8	0.0	0.0	0.0	32	8	36	0.0	0.0	0.0	2	1.591	0.000	R	36	0.0	581.775	582.783	584.374	584.376	0
2	22102705	150	Low	10.0	Precise	1	33	35	19	0.0	0.0	0.0	35	33	19	0.0	0.0	0.0	2	1.098	0.001	L	35	0.0	584.879	587.141	588.238	588.240	0
2	22102705	151	Low	10.0	Vague	2	33	34	10	0.0	5.0	0.0	33	10	34	0.0	0.0	5.0	2	0.566	0.000	R	34	5.0	588.743	590.448	591.014	591.016	0
2	22102705	152	Low	10.0	Vague	2	33	36	8	0.0	0.0	0.0	8	36	33	0.0	0.0	0.0	2	1.022	0.000	D	36	0.0	591.520	592.600	593.622	593.624	0
2	22102705	153	Low	10.0	Precise	1	32	36	19	0.0	0.0	0.0	36	19	32	0.0	0.0	0.0	2	1.033	0.001	L	36	0.0	594.127	594.861	595.894	595.896	0
2	22102705	154	Low	10.0	Precise	1	31	33	25	0.0	0.0	0.0	31	25	33	0.0	0.0	0.0	3	1.160	0.000	D	25	0.0	596.400	599.094	600.254	600.257	0
2	22102705	155	Low	10.0	Precise	1	31	32	21	0.0	0.0	0.0	32	31	21	0.0	0.0	0.0	2	2.625	0.001	L	32	0.0	600.759	601.413	604.038	604.040	0
2	22102705	156	Low	10.0	Vague	2	33	35	10	0.0	0.0	0.0	10	33	35	0.0	0.0	0.0	3	0.830	0.000	L	10	0.0	604.543	607.079	607.910	607.912	0
2	22102705	157	Low	10.0	Precise	1	33	36	21	0.0	0.0	0.0	36	21	33	0.0	0.0	0.0	2	1.766	0.000	L	36	0.0	608.415	609.464	611.230	611.232	0
2	22102705	158	Low	10.0	Precise	1	31	36	25	0.0	0.0	0.0	31	36	25	0.0	0.0	0.0	2	0.641	0.001	D	36	0.0	611.735	612.349	612.990	612.992	0
2	22102705	159	Low	10.0	Vague	2	32	36	10	0.0	0.0	0.0	32	10	36	0.0	0.0	0.0	2	0.649	0.001	R	36	0.0	613.495	615.853	616.502	616.504	0
2	22102705	160	Low	10.0	Vague	2	31	33	12	0.0	0.0	0.0	12	31	33	0.0	0.0	0.0	2	1.997	0.000	R	33	0.0	617.007	617.897	619.894	619.896	0
2	22102705	161	Low	10.0	Precise	1	33	35	21	0.0	0.0	0.0	33	21	35	0.0	0.0	0.0	1	0.534	0.001	L	33	0.0	620.399	622.704	623.238	623.240	0
2	22102705	162	Low	10.0	Precise	1	32	33	29	0.0	0.0	0.0	33	29	32	0.0	0.0	0.0	2	0.628	0.001	L	33	0.0	623.744	626.482	627.110	627.113	0
2	22102705	163	Low	10.0	Precise	1	31	35	27	0.0	0.0	0.0	31	35	27	0.0	0.0	0.0	2	0.720	0.001	D	35	0.0	627.615	629.806	630.526	630.528	0
2	22102705	164	Low	10.0	Precise	1	31	35	19	0.0	0.0	0.0	19	31	35	0.0	0.0	0.0	2	0.862	0.001	R	35	0.0	631.031	633.656	634.518	634.520	0
2	22102705	165	Low	10.0	Vague	2	33	34	12	0.0	5.0	0.0	34	33	12	5.0	0.0	0.0	2	0.534	0.000	L	34	5.0	635.024	635.872	636.406	636.408	0
2	22102705	166	Low	10.0	Precise	1	32	33	27	0.0	0.0	0.0	33	27	32	0.0	0.0	0.0	2	1.278	0.000	L	33	0.0	636.910	637.424	638.702	638.705	0
2	22102705	167	Low	10.0	Vague	2	33	35	2	0.0	0.0	0.0	33	2	35	0.0	0.0	0.0	1	0.925	0.000	L	33	0.0	639.207	642.168	643.094	643.096	0
2	22102705	168	Low	10.0	Precise	1	35	34	27	0.0	5.0	0.0	34	27	35	5.0	0.0	0.0	2	0.568	0.000	L	34	5.0	643.599	644.342	644.910	644.912	0
2	22102705	169	Low	10.0	Vague	2	31	33	10	0.0	0.0	0.0	31	33	10	0.0	0.0	0.0	3	0.921	0.000	R	10	0.0	645.415	647.236	648.158	648.160	0
2	22102705	170	Low	10.0	Vague	2	33	36	2	0.0	0.0	0.0	33	2	36	0.0	0.0	0.0	2	0.806	0.000	R	36	0.0	648.663	649.303	650.110	650.112	0
2	22102705	171	Low	10.0	Vague	2	33	36	12	0.0	0.0	0.0	33	12	36	0.0	0.0	0.0	2	0.955	0.001	R	36	0.0	650.614	652.403	653.358	653.360	0
2	22102705	172	Low	10.0	Vague	2	33	35	8	0.0	0.0	0.0	8	33	35	0.0	0.0	0.0	2	0.723	0.001	R	35	0.0	653.863	656.779	657.502	657.504	0
2	22102705	173	Low	10.0	Precise	1	31	32	25	0.0	0.0	0.0	31	25	32	0.0	0.0	0.0	2	1.993	0.001	R	32	0.0	658.007	660.838	662.830	662.834	0
2	22102705	174	Low	10.0	Precise	1	32	36	25	0.0	0.0	0.0	36	25	32	0.0	0.0	0.0	2	0.596	0.000	L	36	0.0	663.336	664.170	664.766	664.768	0
2	22102705	175	Low	10.0	Precise	1	35	36	23	0.0	0.0	0.0	36	35	23	0.0	0.0	0.0	2	0.563	0.001	L	36	0.0	665.271	665.771	666.334	666.336	0
2	22102705	176	Low	10.0	Precise	1	31	34	23	0.0	5.0	0.0	31	23	34	0.0	0.0	5.0	2	0.592	0.000	R	34	5.0	666.840	668.470	669.062	669.064	0
2	22102705	177	Low	10.0	Vague	2	35	36	2	0.0	0.0	0.0	35	36	2	0.0	0.0	0.0	1	0.861	0.001	L	35	0.0	669.567	671.241	672.102	672.104	0
2	22102705	178	Low	10.0	Precise	1	31	35	23	0.0	0.0	0.0	35	23	31	0.0	0.0	0.0	2	0.568	0.001	L	35	0.0	672.607	675.046	675.614	675.617	0
2	22102705	179	Low	10.0	Precise	1	32	35	25	0.0	0.0	0.0	25	35	32	0.0	0.0	0.0	2	0.519	0.000	D	35	0.0	676.120	678.935	679.454	679.456	0
2	22102705	180	Low	10.0	Precise	1	31	33	23	0.0	0.0	0.0	33	23	31	0.0	0.0	0.0	2	0.996	0.000	L	33	0.0	679.959	680.506	681.502	681.504	0
2	22102705	181	High	1.5	Vague	2	32	33	1	0.0	0.0	0.0	1	33	32	0.0	0.0	0.0	2	1.040	0.000	D	33	0.0	702.547	703.086	704.126	704.128	0
2	22102705	182	High	1.5	Precise	1	31	32	24	0.0	0.0	0.0	32	31	24	0.0	0.0	0.0	3	1.159	0.000	R	24	0.0	704.631	706.887	708.046	708.048	0
2	22102705	183	High	1.5	Vague	2	35	34	11	0.0	5.0	0.0	11	34	35	0.0	5.0	0.0	2	0.572	0.000	D	34	5.0	708.552	711.043	711.614	711.616	0
2	22102705	184	High	1.5	Vague	2	31	36	11	0.0	0.0	0.0	11	31	36	0.0	0.0	0.0	2	0.851	0.000	R	36	0.0	712.120	714.587	715.438	715.440	0
2	22102705	185	High	1.5	Vague	2	32	33	7	0.0	0.0	0.0	32	33	7	0.0	0.0	0.0	2	0.812	0.000	D	33	0.0	715.943	717.890	718.702	718.704	0
2	22102705	186	High	1.5	Precise	1	36	34	20	0.0	5.0	0.0	36	34	20	0.0	5.0	0.0	2	0.684	0.000	D	34	5.0	719.207	720.378	721.062	721.065	0
2	22102705	187	High	1.5	Precise	1	31	36	26	0.0	0.0	0.0	31	36	26	0.0	0.0	0.0	3	1.019	0.001	R	26	0.0	721.567	724.379	725.398	725.401	0
2	22102705	188	High	1.5	Precise	1	33	36	22	0.0	0.0	0.0	22	33	36	0.0	0.0	0.0	2	1.028	0.001	R	36	0.0	725.903	728.650	729.678	729.680	0
2	22102705	189	High	1.5	Precise	1	31	34	22	0.0	5.0	0.0	22	31	34	0.0	0.0	5.0	2	0.606	0.001	R	34	5.0	730.184	732.992	733.598	733.600	0
2	22102705	190	High	1.5	Vague	2	35	34	7	0.0	5.0	0.0	7	34	35	0.0	5.0	0.0	2	0.519	0.000	D	34	5.0	734.104	736.111	736.630	736.632	0
2	22102705	191	High	1.5	Vague	2	32	34	1	0.0	5.0	0.0	32	34	1	0.0	5.0	0.0	2	0.512	0.000	D	34	5.0	737.135	739.798	740.310	740.312	0
2	22102705	192	High	1.5	Vague	2	31	33	7	0.0	0.0	0.0	31	7	33	0.0	0.0	0.0	2	1.046	0.001	R	33	0.0	740.815	742.808	743.854	743.856	0
2	22102705	193	High	1.5	Precise	1	36	34	30	0.0	5.0	0.0	30	36	34	0.0	0.0	5.0	2	0.613	0.000	R	34	5.0	744.359	744.873	745.486	745.488	0
2	22102705	194	High	1.5	Precise	1	33	34	24	0.0	5.0	0.0	33	24	34	0.0	0.0	5.0	2	0.431	0.000	R	34	5.0	745.991	746.959	747.390	747.392	0
2	22102705	195	High	1.5	Vague	2	32	35	9	0.0	0.0	0.0	32	35	9	0.0	0.0	0.0	2	1.354	0.000	D	35	0.0	747.895	749.973	751.326	751.328	0
2	22102705	196	High	1.5	Vague	2	33	36	11	0.0	0.0	0.0	36	11	33	0.0	0.0	0.0	1	0.939	0.000	R	33	0.0	751.832	754.499	755.438	755.440	0
2	22102705	197	High	1.5	Vague	2	32	33	9	0.0	0.0	0.0	33	32	9	0.0	0.0	0.0	2	1.047	0.000	L	33	0.0	755.944	757.918	758.966	758.968	0
2	22102705	198	High	1.5	Precise	1	33	36	28	0.0	0.0	0.0	33	36	28	0.0	0.0	0.0	3	0.948	0.001	R	28	0.0	759.471	761.882	762.830	762.832	0
2	22102705	199	High	1.5	Precise	1	32	35	20	0.0	0.0	0.0	20	35	32	0.0	0.0	0.0	2	1.069	0.000	D	35	0.0	763.335	764.337	765.406	765.408	0
2	22102705	200	High	1.5	Vague	2	32	33	11	0.0	0.0	0.0	11	32	33	0.0	0.0	0.0	3	0.890	0.001	L	11	0.0	765.912	768.060	768.950	768.953	0
2	22102705	201	High	1.5	Vague	2	32	36	7	0.0	0.0	0.0	7	32	36	0.0	0.0	0.0	2	0.812	0.000	R	36	0.0	769.456	770.602	771.414	771.416	0
2	22102705	202	High	1.5	Precise	1	33	34	20	0.0	5.0	0.0	33	20	34	0.0	0.0	5.0	2	0.493	0.000	R	34	5.0	771.919	774.041	774.534	774.536	0
2	22102705	203	High	1.5	Vague	2	31	34	7	0.0	5.0	0.0	34	31	7	5.0	0.0	0.0	2	0.515	0.000	L	34	5.0	775.039	776.850	777.366	777.369	0
2	22102705	204	High	1.5	Vague	2	31	34	3	0.0	5.0	0.0	34	31	3	5.0	0.0	0.0	2	0.541	0.000	L	34	5.0	777.871	779.353	779.894	779.896	0
2	22102705	205	High	1.5	Precise	1	33	36	24	0.0	0.0	0.0	24	33	36	0.0	0.0	0.0	2	0.899	0.000	R	36	0.0	780.399	781.763	782.662	782.664	0
2	22102705	206	High	1.5	Precise	1	33	34	30	0.0	5.0	0.0	34	33	30	5.0	0.0	0.0	2	0.533	0.000	L	34	5.0	783.167	785.098	785.630	785.632	0
2	22102705	207	High	1.5	Precise	1	31	34	30	0.0	5.0	0.0	30	31	34	0.0	0.0	5.0	2	0.438	0.000	R	34	5.0	786.136	789.008	789.446	789.448	0
2	22102705	208	High	1.5	Precise	1	35	36	20	0.0	0.0	0.0	20	35	36	0.0	0.0	0.0	2	0.853	0.001	R	36	0.0	789.951	791.985	792.838	792.840	0
2	22102705	209	High	1.5	Vague	2	31	35	9	0.0	0.0	0.0	9	35	31	0.0	0.0	0.0	2	0.852	0.000	D	35	0.0	793.343	796.058	796.910	796.912	0
2	22102705	210	High	1.5	Vague	2	32	34	9	0.0	5.0	0.0	32	34	9	0.0	5.0	0.0	2	0.727	0.000	D	34	5.0	797.415	799.208	799.934	799.936	0
2	22102705	211	High	1.5	Vague	2	33	36	9	0.0	0.0	0.0	36	9	33	0.0	0.0	0.0	2	1.001	0.000	L	36	0.0	800.439	802.476	803.478	803.480	0
2	22102705	212	High	1.5	Vague	2	35	36	5	0.0	0.0	0.0	36	5	35	0.0	0.0	0.0	2	0.846	0.000	L	36	0.0	803.983	804.832	805.678	805.680	0
2	22102705	213	High	1.5	Precise	1	31	32	28	0.0	0.0	0.0	32	28	31	0.0	0.0	0.0	3	1.027	0.000	D	28	0.0	806.183	806.947	807.974	807.977	0
2	22102705	214	High	1.5	Precise	1	32	34	28	0.0	5.0	0.0	28	34	32	0.0	5.0	0.0	2	0.625	0.001	D	34	5.0	808.480	811.133	811.758	811.761	0
2	22102705	215	High	1.5	Vague	2	32	36	9	0.0	0.0	0.0	36	9	32	0.0	0.0	0.0	2	1.005	0.001	L	36	0.0	812.264	814.273	815.278	815.281	0
2	22102705	216	High	1.5	Precise	1	32	36	22	0.0	0.0	0.0	36	32	22	0.0	0.0	0.0	2	1.009	0.000	L	36	0.0	815.783	818.349	819.358	819.360	0
2	22102705	217	High	1.5	Vague	2	32	35	11	0.0	0.0	0.0	32	11	35	0.0	0.0	0.0	3	0.858	0.000	D	11	0.0	819.863	821.780	822.638	822.640	0
2	22102705	218	High	1.5	Vague	2	32	34	5	0.0	5.0	0.0	32	34	5	0.0	5.0	0.0	2	0.632	0.001	D	34	5.0	823.143	825.110	825.742	825.745	0
2	22102705	219	High	1.5	Vague	2	32	35	7	0.0	0.0	0.0	7	35	32	0.0	0.0	0.0	2	0.653	0.001	D	35	0.0	826.247	828.194	828.846	828.850	0
2	22102705	220	High	1.5	Vague	2	35	34	1	0.0	5.0	0.0	34	35	1	5.0	0.0	0.0	2	0.610	0.000	L	34	5.0	829.353	831.212	831.822	831.824	0
2	22102705	221	High	1.5	Vague	2	33	36	7	0.0	0.0	0.0	36	7	33	0.0	0.0	0.0	2	1.393	0.000	L	36	0.0	832.327	833.581	834.974	834.977	0
2	22102705	222	High	1.5	Vague	2	35	36	3	0.0	0.0	0.0	3	36	35	0.0	0.0	0.0	2	0.821	0.000	D	36	0.0	835.479	836.025	836.846	836.848	0
2	22102705	223	High	1.5	Precise	1	31	33	22	0.0	0.0	0.0	31	33	22	0.0	0.0	0.0	2	0.853	0.001	D	33	0.0	837.352	840.033	840.886	840.888	0
2	22102705	224	High	1.5	Precise	1	36	34	22	0.0	5.0	0.0	22	34	36	0.0	5.0	0.0	2	0.809	0.001	D	34	5.0	841.391	843.965	844.774	844.776	0
2	22102705	225	High	1.5	Precise	1	32	34	26	0.0	5.0	0.0	32	34	26	0.0	5.0	0.0	2	0.434	0.001	D	34	5.0	845.280	846.532	846.966	846.968	0
2	22102705	226	High	1.5	Vague	2	32	33	5	0.0	0.0	0.0	32	33	5	0.0	0.0	0.0	NaN	NaN	NaN	NaN	NaN	NaN	847.472	849.472	NaN	850.962	1
2	22102705	227	High	1.5	Vague	2	31	32	5	0.0	0.0	0.0	32	5	31	0.0	0.0	0.0	2	1.296	0.001	L	32	0.0	852.966	855.006	856.302	856.306	0
2	22102705	228	High	1.5	Precise	1	32	33	28	0.0	0.0	0.0	33	32	28	0.0	0.0	0.0	1	0.786	0.000	D	32	0.0	856.809	858.363	859.150	859.152	0
2	22102705	229	High	1.5	Precise	1	32	35	30	0.0	0.0	0.0	30	32	35	0.0	0.0	0.0	1	0.764	0.000	D	32	0.0	859.656	860.818	861.582	861.585	0
2	22102705	230	High	1.5	Vague	2	31	34	1	0.0	5.0	0.0	1	34	31	0.0	5.0	0.0	2	0.530	0.000	D	34	5.0	862.088	862.828	863.358	863.361	0
2	22102705	231	High	1.5	Precise	1	32	35	28	0.0	0.0	0.0	35	28	32	0.0	0.0	0.0	3	0.670	0.000	D	28	0.0	863.864	865.103	865.774	865.776	0
2	22102705	232	High	1.5	Vague	2	31	32	7	0.0	0.0	0.0	32	7	31	0.0	0.0	0.0	2	0.841	0.000	L	32	0.0	866.279	867.629	868.470	868.472	0
2	22102705	233	High	1.5	Precise	1	35	36	26	0.0	0.0	0.0	26	35	36	0.0	0.0	0.0	1	0.789	0.000	D	35	0.0	868.976	870.897	871.686	871.688	0
2	22102705	234	High	1.5	Precise	1	33	36	26	0.0	0.0	0.0	36	33	26	0.0	0.0	0.0	3	0.627	0.000	R	26	0.0	872.191	873.755	874.382	874.384	0
2	22102705	235	High	1.5	Vague	2	31	32	1	0.0	0.0	0.0	31	1	32	0.0	0.0	0.0	2	1.481	0.000	R	32	0.0	874.888	877.861	879.342	879.344	0
2	22102705	236	High	1.5	Precise	1	35	34	28	0.0	5.0	0.0	28	35	34	0.0	0.0	5.0	2	0.528	0.000	R	34	5.0	879.847	882.118	882.646	882.648	0
2	22102705	237	High	1.5	Precise	1	33	36	20	0.0	0.0	0.0	36	20	33	0.0	0.0	0.0	2	0.971	0.000	L	36	0.0	883.151	885.395	886.366	886.368	0
2	22102705	238	High	1.5	Precise	1	33	36	30	0.0	0.0	0.0	33	30	36	0.0	0.0	0.0	2	0.803	0.001	R	36	0.0	886.871	888.795	889.598	889.601	0
2	22102705	239	High	1.5	Precise	1	35	34	30	0.0	5.0	0.0	35	34	30	0.0	5.0	0.0	2	0.567	0.001	D	34	5.0	890.103	892.527	893.094	893.096	0
2	22102705	240	High	1.5	Vague	2	33	34	5	0.0	5.0	0.0	34	5	33	5.0	0.0	0.0	2	0.494	0.000	L	34	5.0	893.599	894.696	895.190	895.192	0
2	22102705	241	High	1.5	Precise	1	35	34	24	0.0	5.0	0.0	24	35	34	0.0	0.0	5.0	2	0.675	0.000	R	34	5.0	917.623	920.451	921.126	921.128	0
2	22102705	242	High	1.5	Precise	1	31	36	20	0.0	0.0	0.0	36	20	31	0.0	0.0	0.0	2	1.002	0.000	L	36	0.0	921.631	922.452	923.454	923.457	0
2	22102705	243	High	1.5	Vague	2	35	34	3	0.0	5.0	0.0	35	34	3	0.0	5.0	0.0	2	0.541	0.000	D	34	5.0	923.960	926.689	927.230	927.232	0
2	22102705	244	High	1.5	Precise	1	31	36	24	0.0	0.0	0.0	31	24	36	0.0	0.0	0.0	3	0.786	0.001	D	24	0.0	927.736	930.212	930.998	931.000	0
2	22102705	245	High	1.5	Vague	2	31	36	9	0.0	0.0	0.0	31	36	9	0.0	0.0	0.0	2	0.819	0.000	D	36	0.0	931.503	932.436	933.254	933.257	0
2	22102705	246	High	1.5	Vague	2	31	33	9	0.0	0.0	0.0	31	33	9	0.0	0.0	0.0	3	1.221	0.001	R	9	0.0	933.759	935.337	936.558	936.561	0
2	22102705	247	High	1.5	Vague	2	35	34	5	0.0	5.0	0.0	34	5	35	5.0	0.0	0.0	2	0.581	0.000	L	34	5.0	937.064	938.033	938.614	938.616	0
2	22102705	248	High	1.5	Precise	1	35	36	24	0.0	0.0	0.0	36	24	35	0.0	0.0	0.0	1	1.053	0.000	R	35	0.0	939.120	940.841	941.894	941.896	0
2	22102705	249	High	1.5	Vague	2	36	34	11	0.0	5.0	0.0	36	34	11	0.0	5.0	0.0	2	0.651	0.001	D	34	5.0	942.399	945.132	945.782	945.785	0
2	22102705	250	High	1.5	Precise	1	31	35	20	0.0	0.0	0.0	31	20	35	0.0	0.0	0.0	2	0.713	0.000	R	35	0.0	946.287	947.261	947.974	947.976	0
2	22102705	251	High	1.5	Vague	2	33	34	11	0.0	5.0	0.0	33	11	34	0.0	0.0	5.0	2	0.525	0.000	R	34	5.0	948.479	949.369	949.894	949.896	0
2	22102705	252	High	1.5	Vague	2	31	36	5	0.0	0.0	0.0	31	5	36	0.0	0.0	0.0	2	1.209	0.001	R	36	0.0	950.399	953.301	954.510	954.513	0
2	22102705	253	High	1.5	Vague	2	33	35	5	0.0	0.0	0.0	35	5	33	0.0	0.0	0.0	1	0.940	0.001	R	33	0.0	955.015	957.578	958.518	958.521	0
2	22102705	254	High	1.5	Vague	2	36	34	9	0.0	5.0	0.0	36	34	9	0.0	5.0	0.0	2	0.576	0.001	D	34	5.0	959.024	960.287	960.862	960.864	0
2	22102705	255	High	1.5	Vague	2	35	36	7	0.0	0.0	0.0	7	36	35	0.0	0.0	0.0	1	1.064	0.000	R	35	0.0	961.367	962.853	963.918	963.920	0
2	22102705	256	High	1.5	Precise	1	32	34	30	0.0	5.0	0.0	34	32	30	5.0	0.0	0.0	2	0.550	0.000	L	34	5.0	964.422	965.376	965.926	965.929	0
2	22102705	257	High	1.5	Vague	2	31	33	3	0.0	0.0	0.0	3	33	31	0.0	0.0	0.0	2	0.854	0.001	D	33	0.0	966.431	967.025	967.878	967.881	0
2	22102705	258	High	1.5	Vague	2	32	33	3	0.0	0.0	0.0	32	3	33	0.0	0.0	0.0	2	0.933	0.000	R	33	0.0	968.384	970.649	971.582	971.584	0
2	22102705	259	High	1.5	Precise	1	33	35	28	0.0	0.0	0.0	28	33	35	0.0	0.0	0.0	1	0.933	0.000	D	33	0.0	972.087	973.977	974.910	974.912	0
2	22102705	260	High	1.5	Vague	2	33	35	9	0.0	0.0	0.0	35	33	9	0.0	0.0	0.0	2	0.722	0.000	L	35	0.0	975.415	977.531	978.254	978.256	0
2	22102705	261	High	1.5	Precise	1	32	36	20	0.0	0.0	0.0	36	32	20	0.0	0.0	0.0	2	1.084	0.000	L	36	0.0	978.760	980.122	981.206	981.209	0
2	22102705	262	High	1.5	Vague	2	32	34	7	0.0	5.0	0.0	34	7	32	5.0	0.0	0.0	2	0.542	0.001	L	34	5.0	981.712	982.672	983.214	983.216	0
2	22102705	263	High	1.5	Precise	1	31	36	28	0.0	0.0	0.0	31	28	36	0.0	0.0	0.0	3	0.770	0.001	D	28	0.0	983.719	985.108	985.878	985.880	0
2	22102705	264	High	1.5	Vague	2	31	34	5	0.0	5.0	0.0	5	31	34	0.0	0.0	5.0	2	0.555	0.001	R	34	5.0	986.384	987.099	987.654	987.657	0
2	22102705	265	High	1.5	Vague	2	32	35	3	0.0	0.0	0.0	3	32	35	0.0	0.0	0.0	2	0.759	0.001	R	35	0.0	988.159	988.735	989.494	989.497	0
2	22102705	266	High	1.5	Vague	2	31	35	3	0.0	0.0	0.0	31	35	3	0.0	0.0	0.0	2	0.775	0.000	D	35	0.0	989.999	991.847	992.622	992.625	0
2	22102705	267	High	1.5	Precise	1	32	34	24	0.0	5.0	0.0	34	32	24	5.0	0.0	0.0	2	0.506	0.000	L	34	5.0	993.127	994.059	994.566	994.568	0
2	22102705	268	High	1.5	Precise	1	32	36	26	0.0	0.0	0.0	36	26	32	0.0	0.0	0.0	3	0.828	0.001	D	26	0.0	995.071	996.874	997.702	997.704	0
2	22102705	269	High	1.5	Vague	2	32	36	5	0.0	0.0	0.0	5	36	32	0.0	0.0	0.0	2	0.817	0.000	D	36	0.0	998.207	1000.485	1001.302	1001.305	0
2	22102705	270	High	1.5	Precise	1	32	33	30	0.0	0.0	0.0	33	32	30	0.0	0.0	0.0	1	1.216	0.001	D	32	0.0	1001.807	1003.039	1004.254	1004.257	0
2	22102705	271	High	1.5	Precise	1	31	36	30	0.0	0.0	0.0	31	30	36	0.0	0.0	0.0	2	0.661	0.000	R	36	0.0	1004.760	1005.961	1006.622	1006.624	0
2	22102705	272	High	1.5	Precise	1	31	33	20	0.0	0.0	0.0	33	20	31	0.0	0.0	0.0	2	0.808	0.000	L	33	0.0	1007.127	1008.670	1009.478	1009.481	0
2	22102705	273	High	1.5	Precise	1	31	35	26	0.0	0.0	0.0	26	31	35	0.0	0.0	0.0	3	0.718	0.000	L	26	0.0	1009.983	1012.400	1013.118	1013.120	0
2	22102705	274	High	1.5	Precise	1	33	34	26	0.0	5.0	0.0	34	26	33	5.0	0.0	0.0	2	0.517	0.000	L	34	5.0	1013.623	1016.217	1016.734	1016.736	0
2	22102705	275	High	1.5	Vague	2	32	36	1	0.0	0.0	0.0	1	32	36	0.0	0.0	0.0	2	1.159	0.001	R	36	0.0	1017.239	1017.911	1019.070	1019.072	0
2	22102705	276	High	1.5	Vague	2	36	34	1	0.0	5.0	0.0	1	34	36	0.0	5.0	0.0	2	0.713	0.000	D	34	5.0	1019.575	1020.901	1021.614	1021.616	0
2	22102705	277	High	1.5	Vague	2	33	34	1	0.0	5.0	0.0	1	33	34	0.0	0.0	5.0	2	0.496	0.000	R	34	5.0	1022.119	1024.142	1024.638	1024.640	0
2	22102705	278	High	1.5	Precise	1	31	34	20	0.0	5.0	0.0	31	20	34	0.0	0.0	5.0	2	0.471	0.001	R	34	5.0	1025.143	1026.471	1026.942	1026.945	0
2	22102705	279	High	1.5	Vague	2	31	32	9	0.0	0.0	0.0	32	9	31	0.0	0.0	0.0	NaN	NaN	NaN	NaN	NaN	NaN	1027.448	1028.567	NaN	1030.056	1
2	22102705	280	High	1.5	Precise	1	31	33	28	0.0	0.0	0.0	28	33	31	0.0	0.0	0.0	3	0.713	0.000	L	28	0.0	1032.060	1034.340	1035.054	1035.057	0
2	22102705	281	High	1.5	Precise	1	33	35	26	0.0	0.0	0.0	35	33	26	0.0	0.0	0.0	3	0.620	0.001	R	26	0.0	1035.560	1037.770	1038.390	1038.392	0
2	22102705	282	High	1.5	Vague	2	35	36	11	0.0	0.0	0.0	11	35	36	0.0	0.0	0.0	3	0.828	0.000	L	11	0.0	1038.895	1041.410	1042.238	1042.241	0
2	22102705	283	High	1.5	Precise	1	31	34	28	0.0	5.0	0.0	34	31	28	5.0	0.0	0.0	2	0.481	0.000	L	34	5.0	1042.744	1043.493	1043.974	1043.977	0
2	22102705	284	High	1.5	Precise	1	31	34	24	0.0	5.0	0.0	34	24	31	5.0	0.0	0.0	2	0.432	0.000	L	34	5.0	1044.480	1045.846	1046.278	1046.280	0
2	22102705	285	High	1.5	Vague	2	31	33	1	0.0	0.0	0.0	33	31	1	0.0	0.0	0.0	2	1.074	0.000	L	33	0.0	1046.783	1048.644	1049.718	1049.720	0
2	22102705	286	High	1.5	Precise	1	31	32	22	0.0	0.0	0.0	31	22	32	0.0	0.0	0.0	1	1.156	0.000	L	31	0.0	1050.224	1051.274	1052.430	1052.433	0
2	22102705	287	High	1.5	Vague	2	31	36	1	0.0	0.0	0.0	1	31	36	0.0	0.0	0.0	2	0.846	0.001	R	36	0.0	1052.935	1055.697	1056.542	1056.545	0
2	22102705	288	High	1.5	Vague	2	31	33	11	0.0	0.0	0.0	11	31	33	0.0	0.0	0.0	3	0.667	0.000	L	11	0.0	1057.048	1057.763	1058.430	1058.432	0
2	22102705	289	High	1.5	Vague	2	33	35	3	0.0	0.0	0.0	33	3	35	0.0	0.0	0.0	1	0.845	0.001	L	33	0.0	1058.935	1060.873	1061.718	1061.721	0
2	22102705	290	High	1.5	Vague	2	32	35	1	0.0	0.0	0.0	1	32	35	0.0	0.0	0.0	2	0.684	0.000	R	35	0.0	1062.224	1064.890	1065.574	1065.576	0
2	22102705	291	High	1.5	Vague	2	32	36	3	0.0	0.0	0.0	36	32	3	0.0	0.0	0.0	2	1.093	0.001	L	36	0.0	1066.079	1067.577	1068.670	1068.672	0
2	22102705	292	High	1.5	Vague	2	31	35	11	0.0	0.0	0.0	11	31	35	0.0	0.0	0.0	3	0.638	0.000	L	11	0.0	1069.175	1071.391	1072.030	1072.032	0
2	22102705	293	High	1.5	Precise	1	31	33	30	0.0	0.0	0.0	31	33	30	0.0	0.0	0.0	2	0.842	0.000	D	33	0.0	1072.535	1074.405	1075.246	1075.248	0
2	22102705	294	High	1.5	Precise	1	35	36	28	0.0	0.0	0.0	35	36	28	0.0	0.0	0.0	1	0.942	0.000	L	35	0.0	1075.751	1078.320	1079.262	1079.264	0
2	22102705	295	High	1.5	Vague	2	35	36	1	0.0	0.0	0.0	35	36	1	0.0	0.0	0.0	1	0.544	0.000	L	35	0.0	1079.767	1081.397	1081.942	1081.944	0
2	22102705	296	High	1.5	Vague	2	31	35	1	0.0	0.0	0.0	31	1	35	0.0	0.0	0.0	2	0.504	0.000	R	35	0.0	1082.447	1084.694	1085.198	1085.200	0
2	22102705	297	High	1.5	Precise	1	36	34	26	0.0	5.0	0.0	36	34	26	0.0	5.0	0.0	2	0.752	0.001	D	34	5.0	1085.703	1088.670	1089.422	1089.424	0
2	22102705	298	High	1.5	Vague	2	36	34	7	0.0	5.0	0.0	34	36	7	5.0	0.0	0.0	2	0.531	0.000	L	34	5.0	1089.928	1092.203	1092.734	1092.736	0
2	22102705	299	High	1.5	Precise	1	32	36	30	0.0	0.0	0.0	36	30	32	0.0	0.0	0.0	2	1.194	0.000	L	36	0.0	1093.240	1094.180	1095.374	1095.376	0
2	22102705	300	High	1.5	Precise	1	33	34	22	0.0	5.0	0.0	33	34	22	0.0	5.0	0.0	2	0.513	0.000	D	34	5.0	1095.879	1096.861	1097.374	1097.376	0
2	22102705	301	High	1.5	Precise	1	32	33	24	0.0	0.0	0.0	24	32	33	0.0	0.0	0.0	2	1.017	0.000	R	33	0.0	1112.842	1115.661	1116.678	1116.680	0
2	22102705	302	High	1.5	Precise	1	32	33	20	0.0	0.0	0.0	32	33	20	0.0	0.0	0.0	2	0.829	0.001	D	33	0.0	1117.184	1119.849	1120.678	1120.681	0
2	22102705	303	High	1.5	Precise	1	31	32	20	0.0	0.0	0.0	31	20	32	0.0	0.0	0.0	2	0.703	0.000	R	32	0.0	1121.184	1123.135	1123.838	1123.840	0
2	22102705	304	High	1.5	Precise	1	32	36	24	0.0	0.0	0.0	36	32	24	0.0	0.0	0.0	2	0.854	0.000	L	36	0.0	1124.344	1126.648	1127.502	1127.505	0
2	22102705	305	High	1.5	Vague	2	33	35	11	0.0	0.0	0.0	11	33	35	0.0	0.0	0.0	3	0.826	0.000	L	11	0.0	1128.007	1130.524	1131.350	1131.352	0
2	22102705	306	High	1.5	Precise	1	31	35	24	0.0	0.0	0.0	31	35	24	0.0	0.0	0.0	2	0.733	0.000	D	35	0.0	1131.856	1133.353	1134.086	1134.088	0
2	22102705	307	High	1.5	Precise	1	32	33	26	0.0	0.0	0.0	26	33	32	0.0	0.0	0.0	3	0.532	0.000	L	26	0.0	1134.591	1136.562	1137.094	1137.097	0
2	22102705	308	High	1.5	Vague	2	32	35	5	0.0	0.0	0.0	5	35	32	0.0	0.0	0.0	2	0.523	0.000	D	35	0.0	1137.599	1138.155	1138.678	1138.681	0
2	22102705	309	High	1.5	Precise	1	35	34	22	0.0	5.0	0.0	22	35	34	0.0	0.0	5.0	3	0.501	0.000	L	22	0.0	1139.184	1141.081	1141.582	1141.584	0
2	22102705	310	High	1.5	Precise	1	31	34	26	0.0	5.0	0.0	31	26	34	0.0	0.0	5.0	2	0.513	0.001	R	34	5.0	1142.087	1144.853	1145.366	1145.369	0
2	22102705	311	High	1.5	Vague	2	35	34	9	0.0	5.0	0.0	35	9	34	0.0	0.0	5.0	2	0.482	0.000	R	34	5.0	1145.872	1148.100	1148.582	1148.584	0
2	22102705	312	High	1.5	Vague	2	31	34	9	0.0	5.0	0.0	31	9	34	0.0	0.0	5.0	2	0.418	0.000	R	34	5.0	1149.087	1150.396	1150.814	1150.816	0
2	22102705	313	High	1.5	Vague	2	33	36	1	0.0	0.0	0.0	33	1	36	0.0	0.0	0.0	2	1.216	0.000	R	36	0.0	1151.320	1153.758	1154.974	1154.976	0
2	22102705	314	High	1.5	Vague	2	31	33	5	0.0	0.0	0.0	33	5	31	0.0	0.0	0.0	NaN	NaN	NaN	NaN	NaN	NaN	1155.480	1156.575	NaN	1158.064	1
2	22102705	315	High	1.5	Vague	2	33	34	7	0.0	5.0	0.0	33	7	34	0.0	0.0	5.0	2	0.466	0.000	R	34	5.0	1160.067	1161.900	1162.366	1162.369	0
2	22102705	316	High	1.5	Precise	1	32	36	28	0.0	0.0	0.0	36	28	32	0.0	0.0	0.0	3	1.067	0.000	D	28	0.0	1162.873	1163.371	1164.438	1164.441	0
2	22102705	317	High	1.5	Precise	1	31	32	30	0.0	0.0	0.0	32	30	31	0.0	0.0	0.0	1	1.331	0.001	R	31	0.0	1164.944	1167.235	1168.566	1168.569	0
2	22102705	318	High	1.5	Precise	1	33	34	28	0.0	5.0	0.0	33	28	34	0.0	0.0	5.0	2	0.503	0.001	R	34	5.0	1169.072	1169.792	1170.294	1170.297	0
2	22102705	319	High	1.5	Vague	2	36	34	3	0.0	5.0	0.0	36	34	3	0.0	5.0	0.0	2	0.875	0.000	D	34	5.0	1170.800	1171.307	1172.182	1172.184	0
2	22102705	320	High	1.5	Vague	2	33	34	9	0.0	5.0	0.0	9	33	34	0.0	0.0	5.0	2	0.461	0.001	R	34	5.0	1172.687	1173.305	1173.766	1173.768	0
2	22102705	321	High	1.5	Vague	2	33	34	3	0.0	5.0	0.0	33	34	3	0.0	5.0	0.0	2	0.499	0.000	D	34	5.0	1174.272	1176.651	1177.150	1177.153	0
2	22102705	322	High	1.5	Precise	1	36	34	28	0.0	5.0	0.0	34	28	36	5.0	0.0	0.0	2	0.538	0.001	L	34	5.0	1177.655	1179.245	1179.782	1179.785	0
2	22102705	323	High	1.5	Vague	2	32	34	11	0.0	5.0	0.0	34	11	32	5.0	0.0	0.0	2	0.420	0.001	L	34	5.0	1180.288	1181.539	1181.958	1181.961	0
2	22102705	324	High	1.5	Precise	1	33	35	24	0.0	0.0	0.0	33	24	35	0.0	0.0	0.0	2	0.724	0.001	R	35	0.0	1182.463	1184.322	1185.046	1185.049	0
2	22102705	325	High	1.5	Precise	1	31	35	28	0.0	0.0	0.0	35	28	31	0.0	0.0	0.0	2	0.626	0.000	L	35	0.0	1185.552	1187.396	1188.022	1188.024	0
2	22102705	326	High	1.5	Vague	2	36	34	5	0.0	5.0	0.0	34	5	36	5.0	0.0	0.0	2	0.519	0.001	L	34	5.0	1188.527	1190.336	1190.854	1190.856	0
2	22102705	327	High	1.5	Precise	1	33	35	30	0.0	0.0	0.0	35	33	30	0.0	0.0	0.0	2	0.675	0.000	L	35	0.0	1191.359	1193.451	1194.126	1194.128	0
2	22102705	328	High	1.5	Precise	1	31	36	22	0.0	0.0	0.0	31	22	36	0.0	0.0	0.0	3	0.991	0.001	D	22	0.0	1194.631	1195.496	1196.486	1196.488	0
2	22102705	329	High	1.5	Precise	1	33	35	22	0.0	0.0	0.0	22	33	35	0.0	0.0	0.0	2	0.960	0.000	R	35	0.0	1196.992	1197.615	1198.574	1198.577	0
2	22102705	330	High	1.5	Precise	1	35	34	26	0.0	5.0	0.0	26	35	34	0.0	0.0	5.0	2	0.663	0.000	R	34	5.0	1199.079	1200.655	1201.318	1201.321	0
2	22102705	331	High	1.5	Vague	2	31	35	5	0.0	0.0	0.0	5	31	35	0.0	0.0	0.0	2	0.729	0.001	R	35	0.0	1201.823	1203.437	1204.166	1204.169	0
2	22102705	332	High	1.5	Vague	2	31	36	7	0.0	0.0	0.0	31	36	7	0.0	0.0	0.0	2	0.869	0.001	D	36	0.0	1204.672	1206.057	1206.926	1206.928	0
2	22102705	333	High	1.5	Precise	1	31	32	26	0.0	0.0	0.0	26	31	32	0.0	0.0	0.0	3	1.079	0.000	L	26	0.0	1207.432	1210.407	1211.486	1211.488	0
2	22102705	334	High	1.5	Precise	1	35	36	30	0.0	0.0	0.0	30	35	36	0.0	0.0	0.0	2	0.720	0.000	R	36	0.0	1211.991	1214.150	1214.870	1214.872	0
2	22102705	335	High	1.5	Precise	1	32	34	20	0.0	5.0	0.0	20	34	32	0.0	5.0	0.0	2	0.561	0.000	D	34	5.0	1215.375	1216.909	1217.470	1217.473	0
2	22102705	336	High	1.5	Precise	1	32	35	22	0.0	0.0	0.0	35	22	32	0.0	0.0	0.0	2	0.830	0.000	L	35	0.0	1217.975	1219.720	1220.550	1220.552	0
2	22102705	337	High	1.5	Vague	2	31	35	7	0.0	0.0	0.0	7	31	35	0.0	0.0	0.0	2	0.609	0.001	R	35	0.0	1221.055	1222.021	1222.630	1222.632	0
2	22102705	338	High	1.5	Precise	1	36	34	24	0.0	5.0	0.0	36	24	34	0.0	0.0	5.0	2	0.543	0.000	R	34	5.0	1223.135	1223.831	1224.374	1224.376	0
2	22102705	339	High	1.5	Vague	2	31	32	11	0.0	0.0	0.0	31	32	11	0.0	0.0	0.0	3	0.868	0.000	R	11	0.0	1224.880	1226.050	1226.918	1226.921	0
2	22102705	340	High	1.5	Precise	1	32	34	22	0.0	5.0	0.0	22	34	32	0.0	5.0	0.0	2	0.531	0.000	D	34	5.0	1227.423	1229.444	1229.974	1229.977	0
2	22102705	341	High	1.5	Precise	1	31	33	26	0.0	0.0	0.0	26	33	31	0.0	0.0	0.0	3	0.696	0.000	L	26	0.0	1230.480	1232.742	1233.438	1233.440	0
2	22102705	342	High	1.5	Vague	2	33	35	7	0.0	0.0	0.0	35	33	7	0.0	0.0	0.0	2	0.986	0.001	L	35	0.0	1233.944	1236.444	1237.430	1237.433	0
2	22102705	343	High	1.5	Vague	2	31	36	3	0.0	0.0	0.0	31	3	36	0.0	0.0	0.0	2	1.175	0.001	R	36	0.0	1237.936	1239.535	1240.710	1240.713	0
2	22102705	344	High	1.5	Precise	1	33	35	20	0.0	0.0	0.0	20	35	33	0.0	0.0	0.0	1	0.708	0.000	R	33	0.0	1241.216	1243.050	1243.758	1243.760	0
2	22102705	345	High	1.5	Vague	2	31	32	3	0.0	0.0	0.0	31	3	32	0.0	0.0	0.0	NaN	NaN	NaN	NaN	NaN	NaN	1244.264	1245.876	NaN	1247.362	1
2	22102705	346	High	1.5	Precise	1	32	35	26	0.0	0.0	0.0	26	32	35	0.0	0.0	0.0	3	0.706	0.000	L	26	0.0	1249.365	1252.356	1253.062	1253.064	0
2	22102705	347	High	1.5	Vague	2	32	34	3	0.0	5.0	0.0	34	3	32	5.0	0.0	0.0	2	0.462	0.001	L	34	5.0	1253.567	1255.104	1255.566	1255.569	0
2	22102705	348	High	1.5	Vague	2	31	34	11	0.0	5.0	0.0	31	34	11	0.0	5.0	0.0	2	0.483	0.001	D	34	5.0	1256.071	1256.723	1257.206	1257.209	0
2	22102705	349	High	1.5	Precise	1	35	36	22	0.0	0.0	0.0	35	36	22	0.0	0.0	0.0	2	1.045	0.001	D	36	0.0	1257.712	1259.913	1260.958	1260.960	0
2	22102705	350	High	1.5	Precise	1	32	35	24	0.0	0.0	0.0	35	24	32	0.0	0.0	0.0	2	0.622	0.000	L	35	0.0	1261.463	1264.384	1265.006	1265.008	0
2	22102705	351	High	1.5	Precise	1	32	33	22	0.0	0.0	0.0	32	22	33	0.0	0.0	0.0	2	1.131	0.000	R	33	0.0	1265.511	1267.651	1268.782	1268.784	0
2	22102705	352	High	1.5	Precise	1	31	33	24	0.0	0.0	0.0	33	31	24	0.0	0.0	0.0	2	0.709	0.000	L	33	0.0	1269.287	1272.193	1272.902	1272.905	0
2	22102705	353	High	1.5	Vague	2	33	35	1	0.0	0.0	0.0	33	35	1	0.0	0.0	0.0	2	1.265	0.001	D	35	0.0	1273.407	1276.197	1277.462	1277.465	0
2	22102705	354	High	1.5	Precise	1	31	35	30	0.0	0.0	0.0	35	31	30	0.0	0.0	0.0	2	0.471	0.000	L	35	0.0	1277.967	1278.607	1279.078	1279.080	0
2	22102705	355	High	1.5	Vague	2	35	36	9	0.0	0.0	0.0	9	36	35	0.0	0.0	0.0	1	0.558	0.000	R	35	0.0	1279.584	1280.152	1280.710	1280.712	0
2	22102705	356	High	1.5	Vague	2	32	36	11	0.0	0.0	0.0	11	36	32	0.0	0.0	0.0	3	0.853	0.000	L	11	0.0	1281.216	1283.313	1284.166	1284.168	0
2	22102705	357	High	1.5	Precise	1	35	34	20	0.0	5.0	0.0	20	34	35	0.0	5.0	0.0	2	0.577	0.001	D	34	5.0	1284.672	1285.341	1285.918	1285.921	0
2	22102705	358	High	1.5	Vague	2	33	36	5	0.0	0.0	0.0	33	36	5	0.0	0.0	0.0	2	0.924	0.001	D	36	0.0	1286.423	1287.987	1288.910	1288.913	0
2	22102705	359	High	1.5	Precise	1	31	35	22	0.0	0.0	0.0	35	31	22	0.0	0.0	0.0	2	1.005	0.000	L	35	0.0	1289.415	1291.385	1292.390	1292.393	0
2	22102705	360	High	1.5	Vague	2	33	36	3	0.0	0.0	0.0	33	3	36	0.0	0.0	0.0	2	1.126	0.000	R	36	0.0	1292.896	1294.928	1296.054	1296.057	0
