Group	subID	trial	TimePressure	TimeConstraint	Vagueness	Vaguenesscode	ID1	ID2	ID3	V1	V2	V3	ID_left	ID_middle	ID_right	Bid_left	Bid_middle	Bid_right	chosenItem	RT	RTvariance	chosenPosition	chosenID	chosenValue	fixation_time	option_time	choice_time	feedback_time	timeout
1	22102401	1	Low	10.0	Vague	2	12	18	31	38.1	40.2	20.4	12	18	31	38.1	40.2	20.4	2	1.783	0.000	D	18	40.2	2.985	5.302	7.086	7.090	0
1	22102401	2	Low	10.0	Vague	2	18	17	31	40.2	70.9	20.4	17	31	18	70.9	20.4	40.2	2	1.477	0.001	L	17	70.9	7.595	8.480	9.958	9.961	0
1	22102401	3	Low	10.0	Vague	2	12	16	22	38.1	49.6	24.1	12	22	16	38.1	24.1	49.6	2	1.030	0.000	R	16	49.6	10.464	13.432	14.462	14.464	0
1	22102401	4	Low	10.0	Vague	2	16	17	21	49.6	70.9	3.8	17	16	21	70.9	49.6	3.8	1	0.676	0.000	D	16	49.6	14.967	16.802	17.478	17.480	0
1	22102401	5	Low	10.0	Vague	2	18	15	31	40.2	41.1	20.4	31	18	15	20.4	40.2	41.1	1	1.420	0.000	D	18	40.2	17.987	19.257	20.678	20.682	0
1	22102401	6	Low	10.0	Precise	1	18	15	7	40.2	41.1	6.6	7	15	18	6.6	41.1	40.2	1	1.826	0.000	R	18	40.2	21.187	22.731	24.557	24.560	0
1	22102401	7	Low	10.0	Precise	1	18	10	13	40.2	46.3	27.1	13	18	10	27.1	40.2	46.3	2	2.558	0.000	R	10	46.3	25.064	26.959	29.517	29.520	0
1	22102401	8	Low	10.0	Vague	2	18	17	23	40.2	70.9	8.9	17	23	18	70.9	8.9	40.2	2	2.674	0.000	L	17	70.9	30.022	30.603	33.278	33.280	0
1	22102401	9	Low	10.0	Precise	1	16	17	13	49.6	70.9	27.1	17	16	13	70.9	49.6	27.1	1	0.594	0.000	D	16	49.6	33.783	34.604	35.198	35.200	0
1	22102401	10	Low	10.0	Vague	2	15	10	23	41.1	46.3	8.9	15	23	10	41.1	8.9	46.3	2	1.150	0.000	R	10	46.3	35.702	36.479	37.629	37.632	0
1	22102401	11	Low	10.0	Vague	2	18	10	23	40.2	46.3	8.9	23	10	18	8.9	46.3	40.2	2	0.615	0.000	D	10	46.3	38.135	39.318	39.933	39.936	0
1	22102401	12	Low	10.0	Vague	2	18	17	21	40.2	70.9	3.8	18	17	21	40.2	70.9	3.8	2	0.688	0.000	D	17	70.9	40.439	41.502	42.190	42.192	0
1	22102401	13	Low	10.0	Precise	1	18	15	13	40.2	41.1	27.1	13	15	18	27.1	41.1	40.2	3	1.291	0.000	L	13	27.1	42.694	44.018	45.309	45.312	0
1	22102401	14	Low	10.0	Precise	1	15	16	5	41.1	49.6	10.0	16	15	5	49.6	41.1	10.0	2	0.525	0.000	L	16	49.6	45.815	47.737	48.262	48.264	0
1	22102401	15	Low	10.0	Vague	2	15	16	22	41.1	49.6	24.1	22	15	16	24.1	41.1	49.6	2	1.120	0.000	R	16	49.6	48.767	49.621	50.741	50.744	0
1	22102401	16	Low	10.0	Vague	2	12	16	24	38.1	49.6	0.5	12	24	16	38.1	0.5	49.6	2	0.782	0.000	R	16	49.6	51.246	53.072	53.854	53.856	0
1	22102401	17	Low	10.0	Precise	1	15	10	5	41.1	46.3	10.0	10	15	5	46.3	41.1	10.0	2	1.164	0.000	L	10	46.3	54.359	56.481	57.645	57.648	0
1	22102401	18	Low	10.0	Vague	2	18	15	21	40.2	41.1	3.8	21	15	18	3.8	41.1	40.2	1	1.355	0.000	R	18	40.2	58.151	59.363	60.717	60.720	0
1	22102401	19	Low	10.0	Vague	2	12	17	21	38.1	70.9	3.8	12	21	17	38.1	3.8	70.9	2	1.182	0.000	R	17	70.9	61.222	63.735	64.918	64.920	0
1	22102401	20	Low	10.0	Precise	1	10	17	7	46.3	70.9	6.6	17	10	7	70.9	46.3	6.6	2	1.046	0.000	L	17	70.9	65.423	66.272	67.317	67.320	0
1	22102401	21	Low	10.0	Precise	1	12	18	5	38.1	40.2	10.0	18	12	5	40.2	38.1	10.0	2	1.568	0.000	L	18	40.2	67.822	68.821	70.389	70.392	0
1	22102401	22	Low	10.0	Precise	1	10	16	5	46.3	49.6	10.0	16	10	5	49.6	46.3	10.0	2	0.541	0.000	L	16	49.6	70.895	72.913	73.454	73.456	0
1	22102401	23	Low	10.0	Vague	2	18	10	27	40.2	46.3	24.4	27	10	18	24.4	46.3	40.2	1	1.699	0.000	R	18	40.2	73.958	75.162	76.861	76.864	0
1	22102401	24	Low	10.0	Precise	1	10	17	13	46.3	70.9	27.1	10	13	17	46.3	27.1	70.9	1	0.764	0.000	L	10	46.3	77.366	78.225	78.989	78.992	0
1	22102401	25	Low	10.0	Vague	2	12	17	22	38.1	70.9	24.1	22	17	12	24.1	70.9	38.1	2	1.343	0.000	D	17	70.9	79.494	80.454	81.797	81.800	0
1	22102401	26	Low	10.0	Precise	1	15	16	2	41.1	49.6	3.1	16	15	2	49.6	41.1	3.1	2	0.534	0.000	L	16	49.6	82.303	84.000	84.533	84.536	0
1	22102401	27	Low	10.0	Vague	2	10	17	23	46.3	70.9	8.9	17	23	10	70.9	8.9	46.3	2	0.822	0.000	L	17	70.9	85.038	87.991	88.813	88.816	0
1	22102401	28	Low	10.0	Vague	2	12	18	23	38.1	40.2	8.9	12	18	23	38.1	40.2	8.9	2	1.056	0.001	D	18	40.2	89.319	91.750	92.806	92.809	0
1	22102401	29	Low	10.0	Vague	2	15	17	23	41.1	70.9	8.9	17	15	23	70.9	41.1	8.9	1	0.847	0.000	D	15	41.1	93.311	95.575	96.421	96.424	0
1	22102401	30	Low	10.0	Vague	2	15	10	31	41.1	46.3	20.4	10	15	31	46.3	41.1	20.4	2	0.822	0.001	L	10	46.3	96.927	99.504	100.326	100.328	0
1	22102401	31	Low	10.0	Vague	2	18	10	24	40.2	46.3	0.5	10	24	18	46.3	0.5	40.2	2	0.509	0.001	L	10	46.3	100.831	103.225	103.734	103.736	0
1	22102401	32	Low	10.0	Vague	2	12	15	23	38.1	41.1	8.9	12	15	23	38.1	41.1	8.9	2	1.033	0.000	D	15	41.1	104.239	106.220	107.254	107.256	0
1	22102401	33	Low	10.0	Precise	1	12	16	7	38.1	49.6	6.6	7	12	16	6.6	38.1	49.6	2	0.571	0.000	R	16	49.6	107.759	110.147	110.718	110.720	0
1	22102401	34	Low	10.0	Vague	2	15	16	31	41.1	49.6	20.4	15	16	31	41.1	49.6	20.4	2	0.714	0.000	D	16	49.6	111.222	112.268	112.982	112.984	0
1	22102401	35	Low	10.0	Vague	2	18	16	24	40.2	49.6	0.5	16	18	24	49.6	40.2	0.5	2	0.495	0.000	L	16	49.6	113.487	114.647	115.142	115.144	0
1	22102401	36	Low	10.0	Vague	2	15	17	24	41.1	70.9	0.5	24	17	15	0.5	70.9	41.1	2	1.177	0.000	D	17	70.9	115.647	118.044	119.221	119.224	0
1	22102401	37	Low	10.0	Precise	1	12	15	14	38.1	41.1	20.4	14	12	15	20.4	38.1	41.1	1	1.942	0.000	D	12	38.1	119.726	120.304	122.246	122.248	0
1	22102401	38	Low	10.0	Vague	2	18	16	27	40.2	49.6	24.4	16	27	18	49.6	24.4	40.2	2	0.653	0.000	L	16	49.6	122.751	125.513	126.166	126.169	0
1	22102401	39	Low	10.0	Precise	1	18	16	13	40.2	49.6	27.1	16	18	13	49.6	40.2	27.1	2	0.431	0.000	L	16	49.6	126.671	128.142	128.573	128.576	0
1	22102401	40	Low	10.0	Precise	1	12	18	7	38.1	40.2	6.6	18	7	12	40.2	6.6	38.1	2	1.032	0.000	L	18	40.2	129.079	130.197	131.230	131.232	0
1	22102401	41	Low	10.0	Vague	2	18	15	23	40.2	41.1	8.9	23	15	18	8.9	41.1	40.2	1	1.469	0.000	R	18	40.2	131.734	134.073	135.542	135.544	0
1	22102401	42	Low	10.0	Vague	2	12	17	23	38.1	70.9	8.9	12	23	17	38.1	8.9	70.9	2	1.058	0.000	R	17	70.9	136.046	137.276	138.334	138.336	0
1	22102401	43	Low	10.0	Vague	2	12	10	22	38.1	46.3	24.1	22	10	12	24.1	46.3	38.1	3	0.771	0.000	L	22	24.1	138.839	140.290	141.061	141.064	0
1	22102401	44	Low	10.0	Vague	2	12	10	31	38.1	46.3	20.4	12	10	31	38.1	46.3	20.4	2	1.171	0.000	D	10	46.3	141.567	142.162	143.333	143.336	0
1	22102401	45	Low	10.0	Vague	2	12	16	21	38.1	49.6	3.8	12	21	16	38.1	3.8	49.6	2	0.449	0.000	R	16	49.6	143.838	145.916	146.365	146.368	0
1	22102401	46	Low	10.0	Vague	2	15	16	27	41.1	49.6	24.4	27	15	16	24.4	41.1	49.6	2	0.460	0.000	R	16	49.6	146.870	148.601	149.061	149.064	0
1	22102401	47	Low	10.0	Precise	1	16	17	5	49.6	70.9	10.0	5	17	16	10.0	70.9	49.6	1	0.423	0.001	R	16	49.6	149.566	150.582	151.006	151.008	0
1	22102401	48	Low	10.0	Vague	2	16	17	23	49.6	70.9	8.9	23	17	16	8.9	70.9	49.6	1	0.400	0.000	R	16	49.6	151.511	153.845	154.246	154.248	0
1	22102401	49	Low	10.0	Vague	2	16	17	22	49.6	70.9	24.1	17	16	22	70.9	49.6	24.1	1	0.448	0.000	D	16	49.6	154.750	156.310	156.757	156.760	0
1	22102401	50	Low	10.0	Vague	2	18	16	21	40.2	49.6	3.8	16	18	21	49.6	40.2	3.8	2	0.469	0.000	L	16	49.6	157.262	158.897	159.365	159.368	0
1	22102401	51	Low	10.0	Vague	2	12	15	24	38.1	41.1	0.5	15	12	24	41.1	38.1	0.5	1	1.654	0.001	D	12	38.1	159.871	160.704	162.358	162.360	0
1	22102401	52	Low	10.0	Precise	1	15	10	14	41.1	46.3	20.4	15	10	14	41.1	46.3	20.4	2	1.021	0.000	D	10	46.3	162.864	163.553	164.574	164.576	0
1	22102401	53	Low	10.0	Precise	1	18	16	14	40.2	49.6	20.4	14	18	16	20.4	40.2	49.6	2	0.789	0.000	R	16	49.6	165.078	167.928	168.717	168.720	0
1	22102401	54	Low	10.0	Precise	1	12	18	4	38.1	40.2	17.0	12	4	18	38.1	17.0	40.2	2	1.119	0.000	R	18	40.2	169.222	172.022	173.142	173.144	0
1	22102401	55	Low	10.0	Vague	2	10	17	24	46.3	70.9	0.5	10	17	24	46.3	70.9	0.5	1	1.009	0.000	L	10	46.3	173.647	176.596	177.605	177.608	0
1	22102401	56	Low	10.0	Precise	1	10	16	7	46.3	49.6	6.6	16	7	10	49.6	6.6	46.3	2	0.482	0.000	L	16	49.6	178.111	179.716	180.198	180.200	0
1	22102401	57	Low	10.0	Vague	2	12	17	27	38.1	70.9	24.4	17	27	12	70.9	24.4	38.1	2	1.173	0.000	L	17	70.9	180.703	183.033	184.206	184.208	0
1	22102401	58	Low	10.0	Vague	2	18	16	31	40.2	49.6	20.4	16	18	31	49.6	40.2	20.4	2	0.504	0.000	L	16	49.6	184.711	186.190	186.694	186.696	0
1	22102401	59	Low	10.0	Vague	2	18	15	27	40.2	41.1	24.4	18	27	15	40.2	24.4	41.1	1	0.878	0.001	L	18	40.2	187.199	188.376	189.254	189.257	0
1	22102401	60	Low	10.0	Precise	1	15	17	2	41.1	70.9	3.1	17	2	15	70.9	3.1	41.1	2	0.822	0.000	L	17	70.9	189.760	192.255	193.078	193.080	0
1	22102401	61	Low	10.0	Precise	1	18	10	4	40.2	46.3	17.0	10	4	18	46.3	17.0	40.2	2	0.860	0.000	L	10	46.3	197.181	197.745	198.605	198.608	0
1	22102401	62	Low	10.0	Vague	2	15	17	27	41.1	70.9	24.4	15	17	27	41.1	70.9	24.4	2	1.245	0.001	D	17	70.9	199.110	199.624	200.870	200.872	0
1	22102401	63	Low	10.0	Vague	2	15	10	27	41.1	46.3	24.4	15	10	27	41.1	46.3	24.4	2	0.829	0.001	D	10	46.3	201.374	202.281	203.110	203.112	0
1	22102401	64	Low	10.0	Precise	1	18	10	5	40.2	46.3	10.0	5	10	18	10.0	46.3	40.2	2	0.580	0.000	D	10	46.3	203.614	204.162	204.742	204.744	0
1	22102401	65	Low	10.0	Precise	1	10	16	4	46.3	49.6	17.0	16	4	10	49.6	17.0	46.3	2	0.599	0.000	L	16	49.6	205.247	207.558	208.158	208.160	0
1	22102401	66	Low	10.0	Precise	1	10	16	13	46.3	49.6	27.1	10	16	13	46.3	49.6	27.1	2	0.499	0.000	D	16	49.6	208.663	209.963	210.462	210.464	0
1	22102401	67	Low	10.0	Vague	2	12	10	21	38.1	46.3	3.8	10	12	21	46.3	38.1	3.8	2	0.899	0.001	L	10	46.3	210.967	212.723	213.622	213.624	0
1	22102401	68	Low	10.0	Precise	1	18	17	7	40.2	70.9	6.6	17	18	7	70.9	40.2	6.6	2	0.836	0.000	L	17	70.9	214.127	215.978	216.814	216.816	0
1	22102401	69	Low	10.0	Precise	1	12	17	5	38.1	70.9	10.0	12	17	5	38.1	70.9	10.0	2	1.009	0.000	D	17	70.9	217.319	219.564	220.574	220.576	0
1	22102401	70	Low	10.0	Precise	1	16	17	7	49.6	70.9	6.6	17	16	7	70.9	49.6	6.6	1	0.515	0.001	D	16	49.6	221.079	221.659	222.174	222.176	0
1	22102401	71	Low	10.0	Vague	2	18	16	22	40.2	49.6	24.1	18	16	22	40.2	49.6	24.1	2	0.453	0.000	D	16	49.6	222.679	224.177	224.630	224.632	0
1	22102401	72	Low	10.0	Precise	1	12	10	4	38.1	46.3	17.0	4	12	10	17.0	38.1	46.3	1	1.044	0.001	D	12	38.1	225.134	226.586	227.630	227.632	0
1	22102401	73	Low	10.0	Vague	2	10	16	23	46.3	49.6	8.9	23	16	10	8.9	49.6	46.3	2	0.644	0.000	D	16	49.6	228.135	229.913	230.558	230.560	0
1	22102401	74	Low	10.0	Precise	1	15	17	14	41.1	70.9	20.4	17	15	14	70.9	41.1	20.4	2	1.158	0.000	L	17	70.9	231.063	233.968	235.126	235.128	0
1	22102401	75	Low	10.0	Precise	1	12	16	13	38.1	49.6	27.1	13	12	16	27.1	38.1	49.6	2	0.685	0.000	R	16	49.6	235.631	236.904	237.590	237.592	0
1	22102401	76	Low	10.0	Vague	2	12	16	27	38.1	49.6	24.4	27	16	12	24.4	49.6	38.1	2	0.918	0.000	D	16	49.6	238.095	240.799	241.718	241.720	0
1	22102401	77	Low	10.0	Precise	1	16	17	4	49.6	70.9	17.0	4	16	17	17.0	49.6	70.9	1	0.607	0.000	D	16	49.6	242.223	242.927	243.534	243.536	0
1	22102401	78	Low	10.0	Precise	1	18	17	5	40.2	70.9	10.0	5	17	18	10.0	70.9	40.2	2	0.778	0.000	D	17	70.9	244.038	244.716	245.494	245.496	0
1	22102401	79	Low	10.0	Vague	2	12	16	31	38.1	49.6	20.4	12	31	16	38.1	20.4	49.6	2	0.465	0.000	R	16	49.6	245.998	248.653	249.118	249.120	0
1	22102401	80	Low	10.0	Precise	1	12	15	13	38.1	41.1	27.1	13	12	15	27.1	38.1	41.1	3	0.925	0.000	L	13	27.1	249.623	250.369	251.294	251.296	0
1	22102401	81	Low	10.0	Vague	2	18	17	22	40.2	70.9	24.1	22	18	17	24.1	40.2	70.9	3	0.886	0.000	L	22	24.1	251.799	253.783	254.670	254.672	0
1	22102401	82	Low	10.0	Precise	1	18	10	7	40.2	46.3	6.6	18	7	10	40.2	6.6	46.3	2	0.713	0.001	R	10	46.3	255.174	256.364	257.078	257.080	0
1	22102401	83	Low	10.0	Precise	1	15	17	5	41.1	70.9	10.0	5	17	15	10.0	70.9	41.1	1	1.132	0.000	R	15	41.1	257.583	260.450	261.582	261.584	0
1	22102401	84	Low	10.0	Precise	1	12	17	13	38.1	70.9	27.1	12	13	17	38.1	27.1	70.9	1	0.673	0.000	L	12	38.1	262.087	263.549	264.222	264.224	0
1	22102401	85	Low	10.0	Precise	1	15	16	14	41.1	49.6	20.4	14	16	15	20.4	49.6	41.1	2	1.435	0.000	D	16	49.6	264.727	265.746	267.182	267.184	0
1	22102401	86	Low	10.0	Precise	1	12	17	7	38.1	70.9	6.6	17	7	12	70.9	6.6	38.1	2	0.991	0.001	L	17	70.9	267.687	269.246	270.238	270.241	0
1	22102401	87	Low	10.0	Precise	1	18	16	7	40.2	49.6	6.6	16	7	18	49.6	6.6	40.2	2	0.491	0.001	L	16	49.6	270.744	272.563	273.054	273.056	0
1	22102401	88	Low	10.0	Vague	2	12	16	23	38.1	49.6	8.9	16	12	23	49.6	38.1	8.9	2	0.437	0.000	L	16	49.6	273.559	275.504	275.942	275.944	0
1	22102401	89	Low	10.0	Vague	2	10	16	27	46.3	49.6	24.4	16	10	27	49.6	46.3	24.4	2	0.484	0.000	L	16	49.6	276.448	277.146	277.629	277.632	0
1	22102401	90	Low	10.0	Precise	1	18	16	4	40.2	49.6	17.0	16	4	18	49.6	17.0	40.2	2	0.420	0.000	L	16	49.6	278.134	280.602	281.022	281.024	0
1	22102401	91	Low	10.0	Precise	1	18	17	2	40.2	70.9	3.1	17	18	2	70.9	40.2	3.1	2	0.839	0.000	L	17	70.9	281.526	283.791	284.629	284.632	0
1	22102401	92	Low	10.0	Precise	1	12	10	7	38.1	46.3	6.6	10	7	12	46.3	6.6	38.1	2	0.932	0.000	L	10	46.3	285.134	286.897	287.830	287.832	0
1	22102401	93	Low	10.0	Vague	2	12	10	23	38.1	46.3	8.9	23	12	10	8.9	38.1	46.3	2	2.619	0.000	R	10	46.3	288.335	289.835	292.454	292.456	0
1	22102401	94	Low	10.0	Precise	1	12	15	5	38.1	41.1	10.0	12	5	15	38.1	10.0	41.1	1	0.857	0.000	L	12	38.1	292.959	295.700	296.557	296.560	0
1	22102401	95	Low	10.0	Precise	1	12	15	4	38.1	41.1	17.0	12	4	15	38.1	17.0	41.1	1	0.588	0.000	L	12	38.1	297.063	298.762	299.350	299.352	0
1	22102401	96	Low	10.0	Vague	2	18	10	22	40.2	46.3	24.1	10	22	18	46.3	24.1	40.2	2	0.543	0.000	L	10	46.3	299.855	302.775	303.317	303.320	0
1	22102401	97	Low	10.0	Precise	1	15	16	13	41.1	49.6	27.1	16	13	15	49.6	27.1	41.1	2	0.743	0.000	L	16	49.6	303.822	304.623	305.366	305.368	0
1	22102401	98	Low	10.0	Vague	2	15	16	21	41.1	49.6	3.8	16	21	15	49.6	3.8	41.1	2	0.491	0.000	L	16	49.6	305.871	306.795	307.286	307.288	0
1	22102401	99	Low	10.0	Vague	2	12	10	27	38.1	46.3	24.4	27	10	12	24.4	46.3	38.1	1	1.044	0.000	R	12	38.1	307.791	309.154	310.198	310.200	0
1	22102401	100	Low	10.0	Precise	1	18	15	14	40.2	41.1	20.4	15	18	14	41.1	40.2	20.4	2	0.502	0.000	L	15	41.1	310.702	311.592	312.094	312.096	0
1	22102401	101	Low	10.0	Precise	1	15	16	7	41.1	49.6	6.6	15	7	16	41.1	6.6	49.6	1	0.328	0.000	L	15	41.1	312.599	314.294	314.622	314.624	0
1	22102401	102	Low	10.0	Vague	2	18	15	24	40.2	41.1	0.5	15	18	24	41.1	40.2	0.5	2	1.000	0.000	L	15	41.1	315.126	316.733	317.734	317.736	0
1	22102401	103	Low	10.0	Precise	1	18	10	14	40.2	46.3	20.4	18	10	14	40.2	46.3	20.4	2	2.480	0.000	D	10	46.3	318.239	320.029	322.509	322.512	0
1	22102401	104	Low	10.0	Precise	1	12	16	4	38.1	49.6	17.0	4	16	12	17.0	49.6	38.1	2	0.834	0.000	D	16	49.6	323.015	324.588	325.422	325.424	0
1	22102401	105	Low	10.0	Vague	2	12	18	27	38.1	40.2	24.4	12	18	27	38.1	40.2	24.4	3	1.363	0.000	R	27	24.4	325.927	327.643	329.006	329.008	0
1	22102401	106	Low	10.0	Vague	2	12	18	22	38.1	40.2	24.1	12	22	18	38.1	24.1	40.2	3	1.799	0.000	D	22	24.1	329.511	330.238	332.037	332.040	0
1	22102401	107	Low	10.0	Precise	1	18	16	5	40.2	49.6	10.0	16	18	5	49.6	40.2	10.0	2	0.634	0.000	L	16	49.6	332.543	333.419	334.054	334.056	0
1	22102401	108	Low	10.0	Precise	1	12	10	5	38.1	46.3	10.0	12	10	5	38.1	46.3	10.0	2	0.944	0.001	D	10	46.3	334.559	337.030	337.974	337.976	0
1	22102401	109	Low	10.0	Vague	2	18	10	21	40.2	46.3	3.8	10	21	18	46.3	3.8	40.2	2	0.690	0.000	L	10	46.3	338.479	341.347	342.038	342.040	0
1	22102401	110	Low	10.0	Vague	2	15	16	23	41.1	49.6	8.9	23	16	15	8.9	49.6	41.1	2	0.707	0.000	D	16	49.6	342.542	343.890	344.597	344.600	0
1	22102401	111	Low	10.0	Vague	2	15	10	22	41.1	46.3	24.1	22	10	15	24.1	46.3	41.1	3	0.771	0.000	L	22	24.1	345.102	347.403	348.173	348.176	0
1	22102401	112	Low	10.0	Vague	2	10	16	22	46.3	49.6	24.1	10	22	16	46.3	24.1	49.6	2	0.879	0.000	R	16	49.6	348.679	349.214	350.093	350.096	0
1	22102401	113	Low	10.0	Precise	1	12	10	14	38.1	46.3	20.4	14	10	12	20.4	46.3	38.1	2	1.193	0.001	D	10	46.3	350.599	353.469	354.662	354.664	0
1	22102401	114	Low	10.0	Vague	2	10	17	21	46.3	70.9	3.8	10	21	17	46.3	3.8	70.9	1	0.974	0.001	L	10	46.3	355.167	357.656	358.630	358.632	0
1	22102401	115	Low	10.0	Precise	1	15	17	4	41.1	70.9	17.0	17	4	15	70.9	17.0	41.1	2	1.224	0.000	L	17	70.9	359.135	361.949	363.173	363.176	0
1	22102401	116	Low	10.0	Precise	1	10	17	14	46.3	70.9	20.4	10	17	14	46.3	70.9	20.4	1	0.850	0.000	L	10	46.3	363.679	364.955	365.806	365.808	0
1	22102401	117	Low	10.0	Vague	2	12	18	21	38.1	40.2	3.8	21	18	12	3.8	40.2	38.1	1	0.754	0.000	R	12	38.1	366.312	367.668	368.422	368.424	0
1	22102401	118	Low	10.0	Precise	1	18	16	2	40.2	49.6	3.1	2	16	18	3.1	49.6	40.2	2	0.546	0.000	D	16	49.6	368.926	370.892	371.438	371.440	0
1	22102401	119	Low	10.0	Precise	1	10	17	5	46.3	70.9	10.0	10	5	17	46.3	10.0	70.9	1	0.679	0.000	L	10	46.3	371.943	373.799	374.477	374.480	0
1	22102401	120	Low	10.0	Precise	1	10	16	2	46.3	49.6	3.1	2	16	10	3.1	49.6	46.3	2	8.415	0.000	D	16	49.6	374.983	376.935	385.350	385.353	0
1	22102401	121	Low	10.0	Precise	1	12	15	7	38.1	41.1	6.6	7	12	15	6.6	38.1	41.1	2	1.602	0.000	R	15	41.1	397.464	398.515	400.118	400.120	0
1	22102401	122	Low	10.0	Precise	1	15	17	13	41.1	70.9	27.1	13	15	17	27.1	41.1	70.9	2	0.065	0.001	R	17	70.9	400.622	401.229	401.294	401.296	0
1	22102401	123	Low	10.0	Vague	2	12	15	22	38.1	41.1	24.1	12	15	22	38.1	41.1	24.1	3	1.024	0.000	R	22	24.1	401.799	402.613	403.638	403.640	0
1	22102401	124	Low	10.0	Vague	2	12	17	24	38.1	70.9	0.5	12	17	24	38.1	70.9	0.5	1	0.624	0.001	L	12	38.1	404.142	406.086	406.710	406.712	0
1	22102401	125	Low	10.0	Precise	1	18	15	4	40.2	41.1	17.0	15	18	4	41.1	40.2	17.0	2	0.621	0.000	L	15	41.1	407.214	409.305	409.926	409.928	0
1	22102401	126	Low	10.0	Vague	2	16	17	24	49.6	70.9	0.5	24	16	17	0.5	49.6	70.9	1	1.118	0.000	D	16	49.6	410.431	411.887	413.005	413.009	0
1	22102401	127	Low	10.0	Vague	2	10	16	24	46.3	49.6	0.5	16	24	10	49.6	0.5	46.3	2	0.620	0.000	L	16	49.6	413.512	416.050	416.670	416.672	0
1	22102401	128	Low	10.0	Precise	1	10	17	4	46.3	70.9	17.0	17	10	4	70.9	46.3	17.0	1	0.713	0.000	D	10	46.3	417.175	420.164	420.877	420.880	0
1	22102401	129	Low	10.0	Precise	1	12	16	14	38.1	49.6	20.4	12	16	14	38.1	49.6	20.4	2	0.651	0.001	D	16	49.6	421.383	422.155	422.806	422.808	0
1	22102401	130	Low	10.0	Vague	2	10	17	27	46.3	70.9	24.4	17	10	27	70.9	46.3	24.4	1	0.798	0.000	D	10	46.3	423.312	425.440	426.238	426.240	0
1	22102401	131	Low	10.0	Vague	2	18	10	31	40.2	46.3	20.4	18	10	31	40.2	46.3	20.4	2	0.877	0.000	D	10	46.3	426.742	428.033	428.910	428.912	0
1	22102401	132	Low	10.0	Precise	1	12	17	2	38.1	70.9	3.1	17	2	12	70.9	3.1	38.1	1	1.329	0.001	R	12	38.1	429.415	430.309	431.638	431.641	0
1	22102401	133	Low	10.0	Precise	1	16	17	2	49.6	70.9	3.1	16	17	2	49.6	70.9	3.1	1	0.657	0.000	L	16	49.6	432.144	432.853	433.510	433.512	0
1	22102401	134	Low	10.0	Precise	1	15	10	4	41.1	46.3	17.0	10	4	15	46.3	17.0	41.1	2	0.782	0.000	L	10	46.3	434.015	436.680	437.462	437.464	0
1	22102401	135	Low	10.0	Vague	2	12	15	21	38.1	41.1	3.8	15	12	21	41.1	38.1	3.8	1	0.658	0.000	D	12	38.1	437.967	439.012	439.670	439.672	0
1	22102401	136	Low	10.0	Vague	2	15	16	24	41.1	49.6	0.5	24	15	16	0.5	41.1	49.6	2	0.967	0.001	R	16	49.6	440.175	440.847	441.814	441.816	0
1	22102401	137	Low	10.0	Precise	1	15	10	7	41.1	46.3	6.6	7	15	10	6.6	41.1	46.3	1	0.517	0.000	D	15	41.1	442.318	443.496	444.014	444.016	0
1	22102401	138	Low	10.0	Precise	1	15	10	2	41.1	46.3	3.1	15	10	2	41.1	46.3	3.1	2	0.794	0.000	D	10	46.3	444.520	447.267	448.062	448.064	0
1	22102401	139	Low	10.0	Precise	1	12	18	14	38.1	40.2	20.4	14	12	18	20.4	38.1	40.2	3	0.851	0.000	L	14	20.4	448.567	451.499	452.349	452.352	0
1	22102401	140	Low	10.0	Vague	2	18	17	24	40.2	70.9	0.5	17	24	18	70.9	0.5	40.2	1	1.155	0.001	R	18	40.2	452.855	453.523	454.678	454.680	0
1	22102401	141	Low	10.0	Precise	1	12	16	2	38.1	49.6	3.1	16	2	12	49.6	3.1	38.1	2	0.495	0.000	L	16	49.6	455.182	456.550	457.045	457.048	0
1	22102401	142	Low	10.0	Precise	1	12	16	5	38.1	49.6	10.0	5	16	12	10.0	49.6	38.1	2	0.626	0.000	D	16	49.6	457.551	460.068	460.694	460.696	0
1	22102401	143	Low	10.0	Precise	1	18	17	14	40.2	70.9	20.4	14	18	17	20.4	40.2	70.9	1	1.318	0.000	D	18	40.2	461.199	461.704	463.021	463.024	0
1	22102401	144	Low	10.0	Vague	2	12	15	31	38.1	41.1	20.4	31	12	15	20.4	38.1	41.1	3	1.084	0.000	L	31	20.4	463.527	466.410	467.494	467.496	0
1	22102401	145	Low	10.0	Precise	1	18	10	2	40.2	46.3	3.1	18	10	2	40.2	46.3	3.1	2	0.841	0.001	D	10	46.3	467.999	469.509	470.350	470.352	0
1	22102401	146	Low	10.0	Vague	2	10	17	22	46.3	70.9	24.1	17	22	10	70.9	24.1	46.3	3	0.758	0.000	D	22	24.1	470.855	471.888	472.646	472.648	0
1	22102401	147	Low	10.0	Precise	1	15	10	13	41.1	46.3	27.1	13	15	10	27.1	41.1	46.3	3	1.062	0.000	L	13	27.1	473.151	475.767	476.829	476.832	0
1	22102401	148	Low	10.0	Precise	1	12	17	4	38.1	70.9	17.0	17	12	4	70.9	38.1	17.0	2	0.949	0.000	L	17	70.9	477.335	479.617	480.566	480.568	0
1	22102401	149	Low	10.0	Vague	2	16	17	31	49.6	70.9	20.4	31	17	16	20.4	70.9	49.6	1	0.506	0.001	R	16	49.6	481.071	482.731	483.238	483.240	0
1	22102401	150	Low	10.0	Vague	2	18	16	23	40.2	49.6	8.9	18	16	23	40.2	49.6	8.9	2	0.520	0.001	D	16	49.6	483.743	485.357	485.878	485.880	0
1	22102401	151	Low	10.0	Vague	2	12	15	27	38.1	41.1	24.4	27	12	15	24.4	38.1	41.1	3	0.843	0.001	L	27	24.4	486.383	488.683	489.526	489.528	0
1	22102401	152	Low	10.0	Precise	1	16	17	14	49.6	70.9	20.4	16	17	14	49.6	70.9	20.4	1	0.486	0.000	L	16	49.6	490.031	491.496	491.982	491.984	0
1	22102401	153	Low	10.0	Vague	2	15	10	24	41.1	46.3	0.5	10	24	15	46.3	0.5	41.1	2	0.774	0.000	L	10	46.3	492.487	494.400	495.174	495.176	0
1	22102401	154	Low	10.0	Precise	1	12	18	13	38.1	40.2	27.1	13	18	12	27.1	40.2	38.1	3	0.843	0.000	L	13	27.1	495.679	496.426	497.269	497.272	0
1	22102401	155	Low	10.0	Vague	2	15	10	21	41.1	46.3	3.8	15	21	10	41.1	3.8	46.3	1	0.593	0.000	L	15	41.1	497.774	498.397	498.990	498.992	0
1	22102401	156	Low	10.0	Vague	2	15	17	22	41.1	70.9	24.1	17	15	22	70.9	41.1	24.1	3	0.578	0.000	R	22	24.1	499.496	501.699	502.277	502.280	0
1	22102401	157	Low	10.0	Precise	1	12	15	2	38.1	41.1	3.1	12	15	2	38.1	41.1	3.1	1	0.752	0.000	L	12	38.1	502.783	504.574	505.325	505.328	0
1	22102401	158	Low	10.0	Vague	2	18	15	22	40.2	41.1	24.1	22	15	18	24.1	41.1	40.2	3	1.527	0.000	L	22	24.1	505.830	507.734	509.261	509.264	0
1	22102401	159	Low	10.0	Precise	1	12	10	2	38.1	46.3	3.1	2	12	10	3.1	38.1	46.3	2	0.827	0.001	R	10	46.3	509.766	510.915	511.742	511.744	0
1	22102401	160	Low	10.0	Vague	2	10	17	31	46.3	70.9	20.4	17	10	31	70.9	46.3	20.4	1	0.815	0.001	D	10	46.3	512.247	515.023	515.838	515.840	0
1	22102401	161	Low	10.0	Vague	2	12	18	24	38.1	40.2	0.5	24	18	12	0.5	40.2	38.1	1	0.719	0.000	R	12	38.1	516.343	517.694	518.413	518.416	0
1	22102401	162	Low	10.0	Precise	1	12	18	2	38.1	40.2	3.1	2	12	18	3.1	38.1	40.2	2	0.876	0.001	R	18	40.2	518.919	519.882	520.758	520.760	0
1	22102401	163	Low	10.0	Precise	1	18	17	4	40.2	70.9	17.0	18	4	17	40.2	17.0	70.9	2	0.869	0.000	R	17	70.9	521.262	523.984	524.853	524.856	0
1	22102401	164	Low	10.0	Vague	2	15	17	31	41.1	70.9	20.4	17	31	15	70.9	20.4	41.1	1	0.731	0.001	R	15	41.1	525.359	525.954	526.686	526.688	0
1	22102401	165	Low	10.0	Precise	1	18	15	5	40.2	41.1	10.0	18	15	5	40.2	41.1	10.0	1	0.701	0.001	L	18	40.2	527.191	528.904	529.606	529.608	0
1	22102401	166	Low	10.0	Precise	1	10	16	14	46.3	49.6	20.4	16	14	10	49.6	20.4	46.3	2	0.568	0.001	L	16	49.6	530.110	531.462	532.030	532.032	0
1	22102401	167	Low	10.0	Precise	1	18	15	2	40.2	41.1	3.1	15	2	18	41.1	3.1	40.2	1	0.860	0.000	R	18	40.2	532.535	535.514	536.374	536.376	0
1	22102401	168	Low	10.0	Vague	2	16	17	27	49.6	70.9	24.4	16	17	27	49.6	70.9	24.4	1	0.587	0.000	L	16	49.6	536.879	537.891	538.477	538.480	0
1	22102401	169	Low	10.0	Precise	1	12	17	14	38.1	70.9	20.4	14	12	17	20.4	38.1	70.9	3	1.221	0.000	L	14	20.4	538.983	540.768	541.989	541.992	0
1	22102401	170	Low	10.0	Vague	2	15	17	21	41.1	70.9	3.8	21	15	17	3.8	41.1	70.9	2	0.893	0.001	R	17	70.9	542.495	544.801	545.694	545.696	0
1	22102401	171	Low	10.0	Precise	1	15	16	4	41.1	49.6	17.0	16	15	4	49.6	41.1	17.0	2	0.500	0.001	L	16	49.6	546.199	548.282	548.782	548.784	0
1	22102401	172	Low	10.0	Vague	2	12	17	31	38.1	70.9	20.4	12	31	17	38.1	20.4	70.9	1	0.787	0.001	L	12	38.1	549.287	550.890	551.678	551.680	0
1	22102401	173	Low	10.0	Precise	1	15	17	7	41.1	70.9	6.6	17	7	15	70.9	6.6	41.1	2	0.741	0.000	L	17	70.9	552.183	553.760	554.502	554.504	0
1	22102401	174	Low	10.0	Vague	2	12	10	24	38.1	46.3	0.5	24	12	10	0.5	38.1	46.3	2	0.737	0.001	R	10	46.3	555.007	557.740	558.478	558.480	0
1	22102401	175	Low	10.0	Vague	2	18	17	27	40.2	70.9	24.4	27	18	17	24.4	40.2	70.9	3	0.758	0.000	L	27	24.4	558.983	561.071	561.830	561.832	0
1	22102401	176	Low	10.0	Precise	1	10	17	2	46.3	70.9	3.1	2	10	17	3.1	46.3	70.9	2	0.953	0.000	R	17	70.9	562.335	564.861	565.813	565.816	0
1	22102401	177	Low	10.0	Precise	1	18	17	13	40.2	70.9	27.1	17	18	13	70.9	40.2	27.1	2	1.640	0.000	L	17	70.9	566.319	566.861	568.501	568.505	0
1	22102401	178	Low	10.0	Precise	1	12	10	13	38.1	46.3	27.1	12	13	10	38.1	27.1	46.3	2	1.002	0.000	R	10	46.3	569.008	570.443	571.446	571.449	0
1	22102401	179	Low	10.0	Vague	2	10	16	31	46.3	49.6	20.4	10	16	31	46.3	49.6	20.4	2	0.511	0.000	D	16	49.6	571.952	573.695	574.206	574.208	0
1	22102401	180	Low	10.0	Vague	2	10	16	21	46.3	49.6	3.8	16	21	10	49.6	3.8	46.3	2	0.570	0.000	L	16	49.6	574.710	576.148	576.718	576.720	0
1	22102401	181	High	1.5	Vague	2	18	10	36	40.2	46.3	24.2	18	36	10	40.2	24.2	46.3	2	1.070	0.001	R	10	46.3	583.253	585.656	586.726	586.728	0
1	22102401	182	High	1.5	Precise	1	12	15	1	38.1	41.1	7.4	12	1	15	38.1	7.4	41.1	NaN	NaN	NaN	NaN	NaN	NaN	587.231	589.329	NaN	590.818	1
1	22102401	183	High	1.5	Precise	1	15	10	6	41.1	46.3	4.6	10	15	6	46.3	41.1	4.6	1	0.001	3.105	D	15	41.1	592.824	593.917	593.917	593.927	0
1	22102401	184	High	1.5	Precise	1	15	10	1	41.1	46.3	7.4	15	10	1	41.1	46.3	7.4	2	0.794	0.000	D	10	46.3	594.430	597.091	597.886	597.888	0
1	22102401	185	High	1.5	Vague	2	12	10	28	38.1	46.3	36.4	10	12	28	46.3	38.1	36.4	2	1.093	0.000	L	10	46.3	598.391	599.520	600.613	600.616	0
1	22102401	186	High	1.5	Vague	2	18	15	25	40.2	41.1	10.1	15	18	25	41.1	40.2	10.1	1	1.010	0.000	D	18	40.2	601.120	602.140	603.150	603.152	0
1	22102401	187	High	1.5	Precise	1	18	10	9	40.2	46.3	22.4	18	10	9	40.2	46.3	22.4	2	0.736	0.001	D	10	46.3	603.655	604.286	605.022	605.024	0
1	22102401	188	High	1.5	Precise	1	12	18	9	38.1	40.2	22.4	9	18	12	22.4	40.2	38.1	3	1.081	0.000	L	9	22.4	605.527	606.596	607.677	607.680	0
1	22102401	189	High	1.5	Precise	1	16	17	8	49.6	70.9	20.4	8	16	17	20.4	49.6	70.9	1	0.582	0.001	D	16	49.6	608.182	610.912	611.494	611.496	0
1	22102401	190	High	1.5	Precise	1	15	10	9	41.1	46.3	22.4	15	9	10	41.1	22.4	46.3	3	1.048	0.001	D	9	22.4	611.998	613.878	614.926	614.928	0
1	22102401	191	High	1.5	Vague	2	12	17	25	38.1	70.9	10.1	25	12	17	10.1	38.1	70.9	NaN	NaN	NaN	NaN	NaN	NaN	615.431	616.669	NaN	618.155	1
1	22102401	192	High	1.5	Precise	1	15	10	8	41.1	46.3	20.4	8	10	15	20.4	46.3	41.1	2	0.796	0.000	D	10	46.3	620.159	622.106	622.902	622.904	0
1	22102401	193	High	1.5	Precise	1	15	10	11	41.1	46.3	36.9	15	11	10	41.1	36.9	46.3	2	0.702	0.001	R	10	46.3	623.407	624.304	625.006	625.008	0
1	22102401	194	High	1.5	Precise	1	18	17	9	40.2	70.9	22.4	9	18	17	22.4	40.2	70.9	3	0.859	0.000	L	9	22.4	625.511	627.290	628.150	628.152	0
1	22102401	195	High	1.5	Precise	1	16	17	11	49.6	70.9	36.9	11	16	17	36.9	49.6	70.9	2	0.607	0.000	R	17	70.9	628.654	630.527	631.133	631.136	0
1	22102401	196	High	1.5	Precise	1	15	16	3	41.1	49.6	10.5	16	15	3	49.6	41.1	10.5	2	0.617	0.001	L	16	49.6	631.638	632.741	633.358	633.360	0
1	22102401	197	High	1.5	Vague	2	15	16	19	41.1	49.6	4.3	16	19	15	49.6	4.3	41.1	2	0.462	0.001	L	16	49.6	633.863	635.360	635.822	635.824	0
1	22102401	198	High	1.5	Vague	2	18	16	25	40.2	49.6	10.1	25	18	16	10.1	40.2	49.6	2	0.498	0.000	R	16	49.6	636.327	637.587	638.085	638.088	0
1	22102401	199	High	1.5	Precise	1	15	17	8	41.1	70.9	20.4	8	17	15	20.4	70.9	41.1	3	0.901	0.001	L	8	20.4	638.590	640.993	641.894	641.896	0
1	22102401	200	High	1.5	Vague	2	12	18	36	38.1	40.2	24.2	36	18	12	24.2	40.2	38.1	1	1.234	0.001	R	12	38.1	642.399	644.628	645.862	645.864	0
1	22102401	201	High	1.5	Precise	1	12	18	1	38.1	40.2	7.4	1	18	12	7.4	40.2	38.1	3	0.932	0.001	L	1	7.4	646.366	647.850	648.782	648.784	0
1	22102401	202	High	1.5	Vague	2	10	17	25	46.3	70.9	10.1	10	17	25	46.3	70.9	10.1	1	0.679	0.000	L	10	46.3	649.286	652.159	652.838	652.840	0
1	22102401	203	High	1.5	Vague	2	18	10	29	40.2	46.3	22.4	10	18	29	46.3	40.2	22.4	2	0.588	0.000	L	10	46.3	653.343	656.177	656.765	656.768	0
1	22102401	204	High	1.5	Vague	2	16	17	36	49.6	70.9	24.2	36	16	17	24.2	49.6	70.9	1	0.810	0.000	D	16	49.6	657.270	659.348	660.158	660.160	0
1	22102401	205	High	1.5	Precise	1	15	16	6	41.1	49.6	4.6	6	15	16	4.6	41.1	49.6	2	0.405	0.000	R	16	49.6	660.663	663.473	663.878	663.880	0
1	22102401	206	High	1.5	Precise	1	12	15	6	38.1	41.1	4.6	15	12	6	41.1	38.1	4.6	1	0.967	0.001	D	12	38.1	664.383	665.815	666.782	666.784	0
1	22102401	207	High	1.5	Vague	2	12	16	19	38.1	49.6	4.3	16	19	12	49.6	4.3	38.1	2	0.557	0.000	L	16	49.6	667.286	669.432	669.989	669.992	0
1	22102401	208	High	1.5	Precise	1	10	17	6	46.3	70.9	4.6	6	10	17	4.6	46.3	70.9	1	1.057	0.001	D	10	46.3	670.495	672.269	673.326	673.328	0
1	22102401	209	High	1.5	Vague	2	15	10	25	41.1	46.3	10.1	10	25	15	46.3	10.1	41.1	2	0.775	0.000	L	10	46.3	673.830	676.134	676.909	676.912	0
1	22102401	210	High	1.5	Vague	2	10	17	29	46.3	70.9	22.4	17	29	10	70.9	22.4	46.3	1	0.551	0.000	R	10	46.3	677.414	679.031	679.582	679.584	0
1	22102401	211	High	1.5	Precise	1	12	10	8	38.1	46.3	20.4	10	8	12	46.3	20.4	38.1	2	0.521	0.000	L	10	46.3	680.086	682.117	682.638	682.640	0
1	22102401	212	High	1.5	Vague	2	12	10	20	38.1	46.3	2.0	12	20	10	38.1	2.0	46.3	2	0.961	0.000	R	10	46.3	683.143	685.181	686.142	686.144	0
1	22102401	213	High	1.5	Precise	1	10	17	3	46.3	70.9	10.5	10	17	3	46.3	70.9	10.5	1	0.554	0.000	L	10	46.3	686.647	687.644	688.197	688.200	0
1	22102401	214	High	1.5	Vague	2	16	17	19	49.6	70.9	4.3	19	16	17	4.3	49.6	70.9	1	0.519	0.000	D	16	49.6	688.703	691.542	692.062	692.064	0
1	22102401	215	High	1.5	Precise	1	18	15	3	40.2	41.1	10.5	3	18	15	10.5	40.2	41.1	2	0.943	0.001	R	15	41.1	692.567	693.999	694.942	694.944	0
1	22102401	216	High	1.5	Vague	2	10	16	20	46.3	49.6	2.0	10	16	20	46.3	49.6	2.0	2	0.744	0.000	D	16	49.6	695.447	696.174	696.918	696.920	0
1	22102401	217	High	1.5	Vague	2	15	16	29	41.1	49.6	22.4	29	16	15	22.4	49.6	41.1	2	0.412	0.000	D	16	49.6	697.424	698.290	698.702	698.704	0
1	22102401	218	High	1.5	Precise	1	12	18	6	38.1	40.2	4.6	18	6	12	40.2	4.6	38.1	1	0.842	0.000	R	12	38.1	699.207	699.779	700.621	700.624	0
1	22102401	219	High	1.5	Precise	1	12	15	9	38.1	41.1	22.4	9	12	15	22.4	38.1	41.1	3	0.931	0.001	L	9	22.4	701.126	703.019	703.950	703.952	0
1	22102401	220	High	1.5	Precise	1	18	15	9	40.2	41.1	22.4	15	18	9	41.1	40.2	22.4	1	1.084	0.000	D	18	40.2	704.455	705.634	706.718	706.720	0
1	22102401	221	High	1.5	Precise	1	12	10	9	38.1	46.3	22.4	9	12	10	22.4	38.1	46.3	2	0.860	0.000	R	10	46.3	707.223	709.905	710.766	710.768	0
1	22102401	222	High	1.5	Vague	2	12	16	20	38.1	49.6	2.0	12	20	16	38.1	2.0	49.6	2	0.471	0.000	R	16	49.6	711.270	712.967	713.438	713.440	0
1	22102401	223	High	1.5	Vague	2	18	10	25	40.2	46.3	10.1	18	25	10	40.2	10.1	46.3	2	0.429	0.000	R	10	46.3	713.942	715.993	716.422	716.424	0
1	22102401	224	High	1.5	Vague	2	15	16	25	41.1	49.6	10.1	25	16	15	10.1	49.6	41.1	2	0.496	0.000	D	16	49.6	716.927	718.014	718.510	718.512	0
1	22102401	225	High	1.5	Vague	2	15	10	29	41.1	46.3	22.4	15	10	29	41.1	46.3	22.4	2	0.662	0.000	D	10	46.3	719.015	721.479	722.142	722.144	0
1	22102401	226	High	1.5	Precise	1	15	17	9	41.1	70.9	22.4	17	15	9	70.9	41.1	22.4	NaN	NaN	NaN	NaN	NaN	NaN	722.647	723.185	NaN	724.671	1
1	22102401	227	High	1.5	Precise	1	10	17	1	46.3	70.9	7.4	17	1	10	70.9	7.4	46.3	1	0.951	0.000	R	10	46.3	726.675	729.399	730.349	730.352	0
1	22102401	228	High	1.5	Vague	2	15	10	28	41.1	46.3	36.4	15	28	10	41.1	36.4	46.3	2	0.517	0.000	R	10	46.3	730.854	733.025	733.542	733.544	0
1	22102401	229	High	1.5	Precise	1	10	16	6	46.3	49.6	4.6	6	16	10	4.6	49.6	46.3	1	0.419	0.001	R	10	46.3	734.047	735.491	735.910	735.912	0
1	22102401	230	High	1.5	Precise	1	12	16	3	38.1	49.6	10.5	3	12	16	10.5	38.1	49.6	2	0.439	0.000	R	16	49.6	736.415	737.623	738.062	738.064	0
1	22102401	231	High	1.5	Precise	1	12	18	8	38.1	40.2	20.4	18	12	8	40.2	38.1	20.4	2	1.012	0.000	L	18	40.2	738.567	741.338	742.350	742.352	0
1	22102401	232	High	1.5	Precise	1	12	18	3	38.1	40.2	10.5	3	18	12	10.5	40.2	38.1	NaN	NaN	NaN	NaN	NaN	NaN	742.855	744.707	NaN	746.193	1
1	22102401	233	High	1.5	Vague	2	18	15	29	40.2	41.1	22.4	29	15	18	22.4	41.1	40.2	1	0.781	0.000	R	18	40.2	748.196	748.840	749.621	749.624	0
1	22102401	234	High	1.5	Precise	1	12	17	3	38.1	70.9	10.5	3	17	12	10.5	70.9	38.1	2	0.705	0.001	D	17	70.9	750.127	752.797	753.502	753.504	0
1	22102401	235	High	1.5	Vague	2	12	10	25	38.1	46.3	10.1	10	25	12	46.3	10.1	38.1	1	0.525	0.000	R	12	38.1	754.008	756.168	756.694	756.696	0
1	22102401	236	High	1.5	Precise	1	18	10	8	40.2	46.3	20.4	18	8	10	40.2	20.4	46.3	2	0.481	0.000	R	10	46.3	757.198	758.997	759.478	759.480	0
1	22102401	237	High	1.5	Precise	1	10	16	3	46.3	49.6	10.5	10	16	3	46.3	49.6	10.5	2	0.565	0.000	D	16	49.6	759.983	761.473	762.038	762.040	0
1	22102401	238	High	1.5	Vague	2	10	17	28	46.3	70.9	36.4	28	10	17	36.4	46.3	70.9	1	0.656	0.000	D	10	46.3	762.542	763.597	764.253	764.256	0
1	22102401	239	High	1.5	Vague	2	15	17	25	41.1	70.9	10.1	17	25	15	70.9	10.1	41.1	3	0.677	0.001	D	25	10.1	764.759	767.569	768.246	768.248	0
1	22102401	240	High	1.5	Vague	2	16	17	29	49.6	70.9	22.4	16	29	17	49.6	22.4	70.9	1	0.515	0.000	L	16	49.6	768.751	771.578	772.094	772.096	0
1	22102401	241	High	1.5	Vague	2	12	16	29	38.1	49.6	22.4	16	12	29	49.6	38.1	22.4	2	0.538	0.000	L	16	49.6	777.345	779.340	779.877	779.880	0
1	22102401	242	High	1.5	Precise	1	18	10	1	40.2	46.3	7.4	18	1	10	40.2	7.4	46.3	2	0.801	0.001	R	10	46.3	780.383	783.324	784.126	784.129	0
1	22102401	243	High	1.5	Precise	1	18	15	8	40.2	41.1	20.4	15	8	18	41.1	20.4	40.2	3	1.152	0.000	D	8	20.4	784.632	786.069	787.221	787.224	0
1	22102401	244	High	1.5	Precise	1	18	16	1	40.2	49.6	7.4	16	18	1	49.6	40.2	7.4	NaN	NaN	NaN	NaN	NaN	NaN	787.727	789.014	NaN	790.503	1
1	22102401	245	High	1.5	Vague	2	12	17	20	38.1	70.9	2.0	20	17	12	2.0	70.9	38.1	3	1.039	0.001	L	20	2.0	792.507	793.007	794.046	794.048	0
1	22102401	246	High	1.5	Precise	1	12	15	8	38.1	41.1	20.4	8	15	12	20.4	41.1	38.1	1	1.216	0.000	R	12	38.1	794.552	796.038	797.254	797.256	0
1	22102401	247	High	1.5	Precise	1	10	17	11	46.3	70.9	36.9	11	10	17	36.9	46.3	70.9	1	0.635	0.000	D	10	46.3	797.760	799.291	799.925	799.928	0
1	22102401	248	High	1.5	Vague	2	12	17	29	38.1	70.9	22.4	29	17	12	22.4	70.9	38.1	3	1.140	0.000	L	29	22.4	800.431	801.313	802.454	802.456	0
1	22102401	249	High	1.5	Vague	2	18	16	29	40.2	49.6	22.4	29	16	18	22.4	49.6	40.2	NaN	NaN	NaN	NaN	NaN	NaN	802.959	803.494	NaN	804.981	1
1	22102401	250	High	1.5	Vague	2	12	18	20	38.1	40.2	2.0	12	20	18	38.1	2.0	40.2	1	0.826	0.001	L	12	38.1	806.985	809.724	810.550	810.552	0
1	22102401	251	High	1.5	Precise	1	12	17	6	38.1	70.9	4.6	17	6	12	70.9	4.6	38.1	2	0.816	0.000	L	17	70.9	811.056	813.694	814.510	814.512	0
1	22102401	252	High	1.5	Vague	2	18	15	28	40.2	41.1	36.4	28	18	15	36.4	40.2	41.1	3	0.853	0.000	L	28	36.4	815.014	817.849	818.702	818.704	0
1	22102401	253	High	1.5	Precise	1	12	16	11	38.1	49.6	36.9	12	16	11	38.1	49.6	36.9	NaN	NaN	NaN	NaN	NaN	NaN	819.207	821.539	NaN	823.025	1
1	22102401	254	High	1.5	Vague	2	15	16	20	41.1	49.6	2.0	20	16	15	2.0	49.6	41.1	2	0.767	0.000	D	16	49.6	825.028	826.151	826.918	826.920	0
1	22102401	255	High	1.5	Precise	1	12	15	11	38.1	41.1	36.9	12	15	11	38.1	41.1	36.9	1	0.637	0.000	L	12	38.1	827.423	829.688	830.325	830.328	0
1	22102401	256	High	1.5	Vague	2	18	17	19	40.2	70.9	4.3	19	17	18	4.3	70.9	40.2	2	1.404	0.000	D	17	70.9	830.831	832.810	834.214	834.216	0
1	22102401	257	High	1.5	Vague	2	12	17	19	38.1	70.9	4.3	17	19	12	70.9	4.3	38.1	1	0.734	0.000	R	12	38.1	834.719	836.568	837.302	837.304	0
1	22102401	258	High	1.5	Precise	1	18	16	11	40.2	49.6	36.9	18	11	16	40.2	36.9	49.6	2	0.494	0.001	R	16	49.6	837.807	839.616	840.110	840.112	0
1	22102401	259	High	1.5	Vague	2	12	10	29	38.1	46.3	22.4	29	10	12	22.4	46.3	38.1	3	1.059	0.000	L	29	22.4	840.615	842.651	843.709	843.712	0
1	22102401	260	High	1.5	Vague	2	18	17	28	40.2	70.9	36.4	17	18	28	70.9	40.2	36.4	3	0.617	0.001	R	28	36.4	844.215	844.884	845.502	845.504	0
1	22102401	261	High	1.5	Vague	2	15	16	28	41.1	49.6	36.4	28	15	16	36.4	41.1	49.6	2	0.521	0.001	R	16	49.6	846.006	846.949	847.470	847.472	0
1	22102401	262	High	1.5	Vague	2	10	16	36	46.3	49.6	24.2	10	16	36	46.3	49.6	24.2	2	0.713	0.000	D	16	49.6	847.975	850.405	851.118	851.120	0
1	22102401	263	High	1.5	Precise	1	12	10	3	38.1	46.3	10.5	10	3	12	46.3	10.5	38.1	2	0.666	0.001	L	10	46.3	851.623	854.107	854.774	854.777	0
1	22102401	264	High	1.5	Precise	1	18	10	6	40.2	46.3	4.6	10	6	18	46.3	4.6	40.2	2	0.598	0.000	L	10	46.3	855.280	857.527	858.125	858.128	0
1	22102401	265	High	1.5	Vague	2	10	16	28	46.3	49.6	36.4	16	28	10	49.6	36.4	46.3	2	0.481	0.000	L	16	49.6	858.630	861.220	861.701	861.704	0
1	22102401	266	High	1.5	Precise	1	12	18	11	38.1	40.2	36.9	11	18	12	36.9	40.2	38.1	3	0.916	0.000	L	11	36.9	862.207	863.857	864.773	864.776	0
1	22102401	267	High	1.5	Precise	1	18	15	11	40.2	41.1	36.9	11	15	18	36.9	41.1	40.2	3	0.744	0.000	L	11	36.9	865.279	868.214	868.958	868.960	0
1	22102401	268	High	1.5	Vague	2	12	18	29	38.1	40.2	22.4	18	29	12	40.2	22.4	38.1	2	1.312	0.001	L	18	40.2	869.463	870.109	871.422	871.424	0
1	22102401	269	High	1.5	Vague	2	18	10	28	40.2	46.3	36.4	10	28	18	46.3	36.4	40.2	2	0.485	0.000	L	10	46.3	871.927	873.849	874.333	874.336	0
1	22102401	270	High	1.5	Precise	1	10	17	8	46.3	70.9	20.4	17	10	8	70.9	46.3	20.4	1	1.137	0.001	D	10	46.3	874.839	875.773	876.910	876.912	0
1	22102401	271	High	1.5	Precise	1	16	17	1	49.6	70.9	7.4	1	17	16	7.4	70.9	49.6	1	0.674	0.000	R	16	49.6	877.415	879.267	879.941	879.944	0
1	22102401	272	High	1.5	Precise	1	15	17	3	41.1	70.9	10.5	17	15	3	70.9	41.1	10.5	1	1.437	0.001	D	15	41.1	880.447	881.121	882.558	882.560	0
1	22102401	273	High	1.5	Vague	2	16	17	25	49.6	70.9	10.1	17	16	25	70.9	49.6	10.1	1	0.562	0.001	D	16	49.6	883.063	886.012	886.574	886.576	0
1	22102401	274	High	1.5	Precise	1	15	10	3	41.1	46.3	10.5	10	15	3	46.3	41.1	10.5	2	1.071	0.000	L	10	46.3	887.079	888.054	889.125	889.128	0
1	22102401	275	High	1.5	Precise	1	18	17	11	40.2	70.9	36.9	17	18	11	70.9	40.2	36.9	1	0.706	0.000	D	18	40.2	889.630	891.844	892.550	892.552	0
1	22102401	276	High	1.5	Precise	1	10	16	9	46.3	49.6	22.4	9	10	16	22.4	46.3	49.6	2	0.514	0.000	R	16	49.6	893.055	895.915	896.429	896.432	0
1	22102401	277	High	1.5	Vague	2	15	10	20	41.1	46.3	2.0	20	15	10	2.0	41.1	46.3	2	0.990	0.000	R	10	46.3	896.935	898.943	899.933	899.936	0
1	22102401	278	High	1.5	Precise	1	12	16	6	38.1	49.6	4.6	16	6	12	49.6	4.6	38.1	2	0.552	0.000	L	16	49.6	900.438	902.598	903.150	903.152	0
1	22102401	279	High	1.5	Vague	2	12	10	19	38.1	46.3	4.3	12	19	10	38.1	4.3	46.3	2	0.929	0.000	R	10	46.3	903.654	906.509	907.438	907.440	0
1	22102401	280	High	1.5	Precise	1	15	16	11	41.1	49.6	36.9	11	16	15	36.9	49.6	41.1	2	0.671	0.000	D	16	49.6	907.942	909.583	910.254	910.256	0
1	22102401	281	High	1.5	Vague	2	12	15	25	38.1	41.1	10.1	25	12	15	10.1	38.1	41.1	1	1.338	0.000	D	12	38.1	910.759	912.148	913.486	913.488	0
1	22102401	282	High	1.5	Precise	1	12	16	9	38.1	49.6	22.4	9	12	16	22.4	38.1	49.6	2	0.411	0.001	R	16	49.6	913.990	916.051	916.462	916.464	0
1	22102401	283	High	1.5	Precise	1	12	15	3	38.1	41.1	10.5	12	15	3	38.1	41.1	10.5	2	1.209	0.001	D	15	41.1	916.967	919.277	920.486	920.488	0
1	22102401	284	High	1.5	Vague	2	18	15	36	40.2	41.1	24.2	18	36	15	40.2	24.2	41.1	3	1.384	0.000	D	36	24.2	920.992	922.141	923.525	923.528	0
1	22102401	285	High	1.5	Vague	2	12	15	36	38.1	41.1	24.2	15	12	36	41.1	38.1	24.2	2	0.707	0.000	L	15	41.1	924.031	924.947	925.654	925.656	0
1	22102401	286	High	1.5	Vague	2	18	17	36	40.2	70.9	24.2	18	17	36	40.2	70.9	24.2	1	0.608	0.001	L	18	40.2	926.159	927.829	928.438	928.440	0
1	22102401	287	High	1.5	Vague	2	12	15	28	38.1	41.1	36.4	15	12	28	41.1	38.1	36.4	3	0.703	0.000	R	28	36.4	928.942	930.823	931.525	931.528	0
1	22102401	288	High	1.5	Vague	2	18	16	36	40.2	49.6	24.2	18	16	36	40.2	49.6	24.2	2	0.619	0.001	D	16	49.6	932.031	933.419	934.038	934.040	0
1	22102401	289	High	1.5	Precise	1	18	17	3	40.2	70.9	10.5	17	3	18	70.9	10.5	40.2	1	0.939	0.001	R	18	40.2	934.543	935.867	936.806	936.808	0
1	22102401	290	High	1.5	Vague	2	12	10	36	38.1	46.3	24.2	36	10	12	24.2	46.3	38.1	3	0.553	0.000	L	36	24.2	937.311	939.100	939.653	939.656	0
1	22102401	291	High	1.5	Precise	1	15	17	6	41.1	70.9	4.6	6	15	17	4.6	41.1	70.9	3	0.847	0.001	L	6	4.6	940.158	941.415	942.262	942.264	0
1	22102401	292	High	1.5	Precise	1	18	17	8	40.2	70.9	20.4	17	8	18	70.9	20.4	40.2	1	0.878	0.000	R	18	40.2	942.767	944.616	945.494	945.496	0
1	22102401	293	High	1.5	Precise	1	12	17	1	38.1	70.9	7.4	12	17	1	38.1	70.9	7.4	1	1.346	0.000	L	12	38.1	945.999	946.539	947.885	947.888	0
1	22102401	294	High	1.5	Vague	2	12	17	36	38.1	70.9	24.2	36	17	12	24.2	70.9	38.1	3	0.747	0.000	L	36	24.2	948.391	951.346	952.094	952.096	0
1	22102401	295	High	1.5	Vague	2	10	17	19	46.3	70.9	4.3	19	10	17	4.3	46.3	70.9	1	0.472	0.001	D	10	46.3	952.599	955.326	955.798	955.800	0
1	22102401	296	High	1.5	Vague	2	10	16	25	46.3	49.6	10.1	16	10	25	49.6	46.3	10.1	1	0.478	0.001	D	10	46.3	956.303	958.608	959.086	959.088	0
1	22102401	297	High	1.5	Vague	2	18	10	19	40.2	46.3	4.3	19	18	10	4.3	40.2	46.3	2	0.580	0.000	R	10	46.3	959.592	961.497	962.078	962.080	0
1	22102401	298	High	1.5	Vague	2	18	16	28	40.2	49.6	36.4	28	16	18	36.4	49.6	40.2	2	0.707	0.000	D	16	49.6	962.584	964.346	965.053	965.056	0
1	22102401	299	High	1.5	Vague	2	10	17	36	46.3	70.9	24.2	10	17	36	46.3	70.9	24.2	1	0.618	0.000	L	10	46.3	965.559	967.556	968.173	968.176	0
1	22102401	300	High	1.5	Precise	1	18	17	1	40.2	70.9	7.4	18	1	17	40.2	7.4	70.9	2	0.989	0.000	R	17	70.9	968.679	971.489	972.478	972.480	0
1	22102401	301	High	1.5	Vague	2	15	10	36	41.1	46.3	24.2	36	10	15	24.2	46.3	41.1	2	0.535	0.000	D	10	46.3	976.694	977.495	978.029	978.032	0
1	22102401	302	High	1.5	Precise	1	15	16	1	41.1	49.6	7.4	15	16	1	41.1	49.6	7.4	2	0.656	0.000	D	16	49.6	978.535	979.574	980.230	980.232	0
1	22102401	303	High	1.5	Precise	1	12	10	11	38.1	46.3	36.9	10	12	11	46.3	38.1	36.9	2	0.663	0.000	L	10	46.3	980.734	982.943	983.606	983.608	0
1	22102401	304	High	1.5	Precise	1	18	17	6	40.2	70.9	4.6	6	18	17	4.6	40.2	70.9	3	0.923	0.000	L	6	4.6	984.111	986.259	987.182	987.184	0
1	22102401	305	High	1.5	Precise	1	16	17	3	49.6	70.9	10.5	16	17	3	49.6	70.9	10.5	NaN	NaN	NaN	NaN	NaN	NaN	987.687	988.526	NaN	990.015	1
1	22102401	306	High	1.5	Vague	2	18	17	20	40.2	70.9	2.0	20	18	17	2.0	40.2	70.9	2	0.886	0.000	R	17	70.9	992.019	994.864	995.749	995.752	0
1	22102401	307	High	1.5	Precise	1	15	17	1	41.1	70.9	7.4	1	17	15	7.4	70.9	41.1	3	0.593	0.000	L	1	7.4	996.256	997.629	998.222	998.224	0
1	22102401	308	High	1.5	Vague	2	18	15	20	40.2	41.1	2.0	18	15	20	40.2	41.1	2.0	2	0.684	0.000	D	15	41.1	998.727	999.593	1000.278	1000.280	0
1	22102401	309	High	1.5	Vague	2	15	17	19	41.1	70.9	4.3	19	15	17	4.3	41.1	70.9	3	0.652	0.000	L	19	4.3	1000.783	1001.937	1002.589	1002.592	0
1	22102401	310	High	1.5	Vague	2	16	17	28	49.6	70.9	36.4	28	17	16	36.4	70.9	49.6	1	0.486	0.000	R	16	49.6	1003.096	1003.784	1004.270	1004.272	0
1	22102401	311	High	1.5	Vague	2	15	17	29	41.1	70.9	22.4	29	15	17	22.4	41.1	70.9	2	0.919	0.000	R	17	70.9	1004.775	1005.863	1006.781	1006.784	0
1	22102401	312	High	1.5	Precise	1	18	16	6	40.2	49.6	4.6	18	16	6	40.2	49.6	4.6	2	0.503	0.001	D	16	49.6	1007.286	1008.623	1009.126	1009.128	0
1	22102401	313	High	1.5	Vague	2	15	17	28	41.1	70.9	36.4	17	28	15	70.9	36.4	41.1	3	0.620	0.000	D	28	36.4	1009.631	1011.418	1012.038	1012.040	0
1	22102401	314	High	1.5	Precise	1	15	16	8	41.1	49.6	20.4	15	8	16	41.1	20.4	49.6	2	0.532	0.001	R	16	49.6	1012.543	1013.754	1014.286	1014.288	0
1	22102401	315	High	1.5	Precise	1	12	17	8	38.1	70.9	20.4	17	8	12	70.9	20.4	38.1	3	0.593	0.000	D	8	20.4	1014.791	1016.997	1017.590	1017.592	0
1	22102401	316	High	1.5	Precise	1	12	10	6	38.1	46.3	4.6	10	12	6	46.3	38.1	4.6	1	0.561	0.000	D	12	38.1	1018.095	1019.485	1020.046	1020.048	0
1	22102401	317	High	1.5	Vague	2	12	16	28	38.1	49.6	36.4	28	16	12	36.4	49.6	38.1	2	0.082	0.001	D	16	49.6	1020.551	1022.036	1022.118	1022.120	0
1	22102401	318	High	1.5	Vague	2	12	16	36	38.1	49.6	24.2	36	16	12	24.2	49.6	38.1	2	0.663	0.001	D	16	49.6	1022.623	1023.543	1024.206	1024.208	0
1	22102401	319	High	1.5	Vague	2	12	17	28	38.1	70.9	36.4	17	28	12	70.9	36.4	38.1	3	0.736	0.000	D	28	36.4	1024.712	1027.214	1027.950	1027.952	0
1	22102401	320	High	1.5	Vague	2	10	17	20	46.3	70.9	2.0	10	20	17	46.3	2.0	70.9	3	0.722	0.000	D	20	2.0	1028.455	1029.227	1029.949	1029.952	0
1	22102401	321	High	1.5	Vague	2	12	15	20	38.1	41.1	2.0	15	12	20	41.1	38.1	2.0	3	0.993	0.000	R	20	2.0	1030.455	1033.421	1034.414	1034.416	0
1	22102401	322	High	1.5	Vague	2	18	10	20	40.2	46.3	2.0	10	20	18	46.3	2.0	40.2	3	0.542	0.001	D	20	2.0	1034.919	1036.336	1036.878	1036.880	0
1	22102401	323	High	1.5	Vague	2	16	17	20	49.6	70.9	2.0	20	17	16	2.0	70.9	49.6	1	0.867	0.000	R	16	49.6	1037.383	1039.578	1040.446	1040.448	0
1	22102401	324	High	1.5	Precise	1	10	16	1	46.3	49.6	7.4	16	1	10	49.6	7.4	46.3	1	0.501	0.000	R	10	46.3	1040.951	1042.313	1042.813	1042.816	0
1	22102401	325	High	1.5	Precise	1	18	16	9	40.2	49.6	22.4	9	18	16	22.4	40.2	49.6	2	0.549	0.000	R	16	49.6	1043.319	1044.113	1044.662	1044.664	0
1	22102401	326	High	1.5	Vague	2	18	15	19	40.2	41.1	4.3	19	18	15	4.3	40.2	41.1	1	1.005	0.000	D	18	40.2	1045.167	1047.985	1048.990	1048.992	0
1	22102401	327	High	1.5	Precise	1	10	16	11	46.3	49.6	36.9	10	11	16	46.3	36.9	49.6	2	0.583	0.000	R	16	49.6	1049.495	1050.166	1050.749	1050.752	0
1	22102401	328	High	1.5	Vague	2	15	17	20	41.1	70.9	2.0	15	20	17	41.1	2.0	70.9	3	0.857	0.000	D	20	2.0	1051.255	1052.933	1053.790	1053.792	0
1	22102401	329	High	1.5	Precise	1	12	16	1	38.1	49.6	7.4	12	16	1	38.1	49.6	7.4	2	0.617	0.001	D	16	49.6	1054.294	1055.269	1055.886	1055.888	0
1	22102401	330	High	1.5	Precise	1	18	15	6	40.2	41.1	4.6	6	18	15	4.6	40.2	41.1	2	1.264	0.000	R	15	41.1	1056.391	1057.485	1058.749	1058.752	0
1	22102401	331	High	1.5	Vague	2	12	18	19	38.1	40.2	4.3	12	19	18	38.1	4.3	40.2	2	0.879	0.001	R	18	40.2	1059.254	1061.943	1062.822	1062.824	0
1	22102401	332	High	1.5	Vague	2	18	17	25	40.2	70.9	10.1	18	25	17	40.2	10.1	70.9	1	0.862	0.000	L	18	40.2	1063.327	1066.136	1066.998	1067.000	0
1	22102401	333	High	1.5	Vague	2	12	18	28	38.1	40.2	36.4	12	28	18	38.1	36.4	40.2	1	0.569	0.000	L	12	38.1	1067.503	1068.221	1068.790	1068.792	0
1	22102401	334	High	1.5	Precise	1	10	16	8	46.3	49.6	20.4	8	16	10	20.4	49.6	46.3	2	0.469	0.000	D	16	49.6	1069.295	1070.001	1070.470	1070.472	0
1	22102401	335	High	1.5	Vague	2	12	15	19	38.1	41.1	4.3	15	12	19	41.1	38.1	4.3	3	0.796	0.000	R	19	4.3	1070.975	1072.274	1073.069	1073.072	0
1	22102401	336	High	1.5	Precise	1	10	17	9	46.3	70.9	22.4	10	17	9	46.3	70.9	22.4	1	0.891	0.000	L	10	46.3	1073.574	1074.227	1075.118	1075.120	0
1	22102401	337	High	1.5	Precise	1	12	16	8	38.1	49.6	20.4	16	12	8	49.6	38.1	20.4	2	0.475	0.000	L	16	49.6	1075.623	1076.218	1076.693	1076.696	0
1	22102401	338	High	1.5	Precise	1	18	15	1	40.2	41.1	7.4	18	1	15	40.2	7.4	41.1	2	0.603	0.001	R	15	41.1	1077.199	1079.635	1080.238	1080.240	0
1	22102401	339	High	1.5	Vague	2	15	16	36	41.1	49.6	24.2	16	36	15	49.6	24.2	41.1	2	0.456	0.001	L	16	49.6	1080.743	1082.926	1083.382	1083.384	0
1	22102401	340	High	1.5	Precise	1	16	17	9	49.6	70.9	22.4	17	9	16	70.9	22.4	49.6	1	0.506	0.001	R	16	49.6	1083.887	1085.108	1085.614	1085.616	0
1	22102401	341	High	1.5	Precise	1	15	17	11	41.1	70.9	36.9	15	17	11	41.1	70.9	36.9	1	0.578	0.001	L	15	41.1	1086.119	1088.812	1089.390	1089.392	0
1	22102401	342	High	1.5	Precise	1	18	10	11	40.2	46.3	36.9	10	18	11	46.3	40.2	36.9	2	0.535	0.000	L	10	46.3	1089.895	1092.655	1093.190	1093.192	0
1	22102401	343	High	1.5	Vague	2	15	17	36	41.1	70.9	24.2	15	17	36	41.1	70.9	24.2	2	0.902	0.000	D	17	70.9	1093.695	1095.760	1096.662	1096.664	0
1	22102401	344	High	1.5	Precise	1	16	17	6	49.6	70.9	4.6	16	17	6	49.6	70.9	4.6	1	0.543	0.000	L	16	49.6	1097.167	1099.143	1099.686	1099.688	0
1	22102401	345	High	1.5	Vague	2	12	16	25	38.1	49.6	10.1	25	16	12	10.1	49.6	38.1	2	0.588	0.000	D	16	49.6	1100.191	1102.346	1102.933	1102.936	0
1	22102401	346	High	1.5	Vague	2	15	10	19	41.1	46.3	4.3	10	15	19	46.3	41.1	4.3	2	0.840	0.001	L	10	46.3	1103.439	1104.798	1105.638	1105.641	0
1	22102401	347	High	1.5	Vague	2	12	15	29	38.1	41.1	22.4	12	29	15	38.1	22.4	41.1	3	0.962	0.001	D	29	22.4	1106.144	1107.540	1108.502	1108.504	0
1	22102401	348	High	1.5	Vague	2	18	17	29	40.2	70.9	22.4	29	17	18	22.4	70.9	40.2	1	0.881	0.000	R	18	40.2	1109.007	1110.340	1111.221	1111.224	0
1	22102401	349	High	1.5	Precise	1	18	16	3	40.2	49.6	10.5	3	18	16	10.5	40.2	49.6	2	0.565	0.000	R	16	49.6	1111.727	1114.672	1115.237	1115.241	0
1	22102401	350	High	1.5	Precise	1	15	16	9	41.1	49.6	22.4	16	9	15	49.6	22.4	41.1	2	0.550	0.000	L	16	49.6	1115.745	1116.767	1117.317	1117.320	0
1	22102401	351	High	1.5	Vague	2	18	16	19	40.2	49.6	4.3	19	16	18	4.3	49.6	40.2	2	0.525	0.000	D	16	49.6	1117.823	1119.081	1119.605	1119.608	0
1	22102401	352	High	1.5	Vague	2	18	16	20	40.2	49.6	2.0	20	16	18	2.0	49.6	40.2	2	0.425	0.000	D	16	49.6	1120.111	1121.301	1121.726	1121.728	0
1	22102401	353	High	1.5	Precise	1	12	17	9	38.1	70.9	22.4	9	17	12	22.4	70.9	38.1	3	0.853	0.000	L	9	22.4	1122.231	1124.209	1125.062	1125.064	0
1	22102401	354	High	1.5	Precise	1	12	17	11	38.1	70.9	36.9	17	11	12	70.9	36.9	38.1	3	0.760	0.000	D	11	36.9	1125.566	1127.733	1128.494	1128.496	0
1	22102401	355	High	1.5	Vague	2	10	16	19	46.3	49.6	4.3	16	10	19	49.6	46.3	4.3	2	0.663	0.001	L	16	49.6	1128.999	1130.663	1131.326	1131.328	0
1	22102401	356	High	1.5	Precise	1	18	16	8	40.2	49.6	20.4	18	16	8	40.2	49.6	20.4	2	0.472	0.001	D	16	49.6	1131.831	1133.022	1133.494	1133.496	0
1	22102401	357	High	1.5	Precise	1	18	10	3	40.2	46.3	10.5	10	18	3	46.3	40.2	10.5	2	0.592	0.000	L	10	46.3	1134.038	1136.974	1137.566	1137.568	0
1	22102401	358	High	1.5	Vague	2	10	16	29	46.3	49.6	22.4	10	16	29	46.3	49.6	22.4	2	0.648	0.000	D	16	49.6	1138.072	1139.237	1139.885	1139.888	0
1	22102401	359	High	1.5	Vague	2	12	18	25	38.1	40.2	10.1	18	12	25	40.2	38.1	10.1	2	1.219	0.000	L	18	40.2	1140.391	1142.098	1143.317	1143.320	0
1	22102401	360	High	1.5	Precise	1	12	10	1	38.1	46.3	7.4	12	10	1	38.1	46.3	7.4	2	0.811	0.001	D	10	46.3	1143.823	1145.547	1146.358	1146.360	0
