Group	subID	trial	TimePressure	TimeConstraint	Vagueness	Vaguenesscode	ID1	ID2	ID3	V1	V2	V3	ID_left	ID_middle	ID_right	Bid_left	Bid_middle	Bid_right	chosenItem	RT	RTvariance	chosenPosition	chosenID	chosenValue	fixation_time	option_time	choice_time	feedback_time	timeout
1	22071804	1	High	1.5	Vague	2	12	15	25	32.4	33.8	15.1	25	15	12	15.1	33.8	32.4	NaN	NaN	NaN	NaN	NaN	NaN	4.894	7.200	NaN	8.690	1
1	22071804	2	High	1.5	Precise	1	12	16	6	32.4	54.2	4.4	6	12	16	4.4	32.4	54.2	1	0.904	0.000	D	12	32.4	10.694	12.525	13.430	13.434	0
1	22071804	3	High	1.5	Vague	2	15	17	31	33.8	47.0	17.9	31	17	15	17.9	47.0	33.8	1	0.842	0.000	R	15	33.8	13.939	15.707	16.549	16.552	0
1	22071804	4	High	1.5	Precise	1	15	18	14	33.8	84.5	20.4	14	15	18	20.4	33.8	84.5	1	0.659	0.000	D	15	33.8	17.056	19.803	20.462	20.464	0
1	22071804	5	High	1.5	Precise	1	15	16	10	33.8	54.2	25.5	15	16	10	33.8	54.2	25.5	1	0.713	0.000	L	15	33.8	20.969	22.157	22.869	22.874	0
1	22071804	6	High	1.5	Vague	2	8	18	36	30.7	84.5	20.0	8	18	36	30.7	84.5	20.0	NaN	NaN	NaN	NaN	NaN	NaN	23.380	25.885	NaN	27.372	1
1	22071804	7	High	1.5	Precise	1	12	15	3	32.4	33.8	5.7	15	12	3	33.8	32.4	5.7	2	0.854	0.000	L	15	33.8	29.376	32.015	32.869	32.872	0
1	22071804	8	High	1.5	Precise	1	15	16	9	33.8	54.2	14.7	15	16	9	33.8	54.2	14.7	1	0.676	0.001	L	15	33.8	33.375	35.650	36.326	36.329	0
1	22071804	9	High	1.5	Vague	2	12	17	29	32.4	47.0	21.7	29	12	17	21.7	32.4	47.0	3	1.366	0.000	L	29	21.7	36.832	39.551	40.917	40.920	0
1	22071804	10	High	1.5	Vague	2	8	16	29	30.7	54.2	21.7	29	8	16	21.7	30.7	54.2	3	0.762	0.000	L	29	21.7	41.422	44.011	44.774	44.776	0
1	22071804	11	High	1.5	Precise	1	8	16	10	30.7	54.2	25.5	10	16	8	25.5	54.2	30.7	2	1.416	0.001	D	16	54.2	45.279	46.070	47.486	47.488	0
1	22071804	12	High	1.5	Vague	2	12	18	29	32.4	84.5	21.7	18	29	12	84.5	21.7	32.4	3	1.171	0.000	D	29	21.7	47.991	49.155	50.326	50.328	0
1	22071804	13	High	1.5	Precise	1	8	16	14	30.7	54.2	20.4	16	14	8	54.2	20.4	30.7	1	1.196	0.000	R	8	30.7	50.831	53.073	54.269	54.272	0
1	22071804	14	High	1.5	Precise	1	15	18	10	33.8	84.5	25.5	15	10	18	33.8	25.5	84.5	1	0.784	0.000	L	15	33.8	54.775	55.846	56.629	56.632	0
1	22071804	15	High	1.5	Precise	1	8	12	9	30.7	32.4	14.7	8	12	9	30.7	32.4	14.7	1	1.033	0.000	L	8	30.7	57.135	57.804	58.837	58.840	0
1	22071804	16	High	1.5	Vague	2	17	16	29	47.0	54.2	21.7	17	16	29	47.0	54.2	21.7	NaN	NaN	NaN	NaN	NaN	NaN	59.343	62.331	NaN	63.818	1
1	22071804	17	High	1.5	Precise	1	17	16	9	47.0	54.2	14.7	17	9	16	47.0	14.7	54.2	2	0.950	0.000	R	16	54.2	65.821	66.511	67.461	67.464	0
1	22071804	18	High	1.5	Precise	1	8	18	9	30.7	84.5	14.7	8	9	18	30.7	14.7	84.5	1	1.129	0.000	L	8	30.7	67.967	70.781	71.910	71.912	0
1	22071804	19	High	1.5	Vague	2	8	17	20	30.7	47.0	2.5	8	17	20	30.7	47.0	2.5	1	0.838	0.001	L	8	30.7	72.415	74.992	75.830	75.832	0
1	22071804	20	High	1.5	Precise	1	12	18	5	32.4	84.5	6.3	12	5	18	32.4	6.3	84.5	1	1.190	0.000	L	12	32.4	76.334	78.255	79.446	79.448	0
1	22071804	21	High	1.5	Vague	2	8	15	20	30.7	33.8	2.5	15	20	8	33.8	2.5	30.7	1	0.981	0.000	R	8	30.7	79.950	80.601	81.581	81.584	0
1	22071804	22	High	1.5	Vague	2	12	16	31	32.4	54.2	17.9	16	12	31	54.2	32.4	17.9	NaN	NaN	NaN	NaN	NaN	NaN	82.086	84.237	NaN	85.723	1
1	22071804	23	High	1.5	Vague	2	8	18	31	30.7	84.5	17.9	18	8	31	84.5	30.7	17.9	2	0.818	0.000	L	18	84.5	87.726	88.587	89.405	89.408	0
1	22071804	24	High	1.5	Vague	2	8	18	29	30.7	84.5	21.7	18	29	8	84.5	21.7	30.7	2	0.896	0.000	L	18	84.5	89.910	91.118	92.014	92.016	0
1	22071804	25	High	1.5	Precise	1	16	18	6	54.2	84.5	4.4	6	16	18	4.4	54.2	84.5	2	0.606	0.000	R	18	84.5	92.518	95.288	95.893	95.896	0
1	22071804	26	High	1.5	Vague	2	15	16	31	33.8	54.2	17.9	16	31	15	54.2	17.9	33.8	2	1.312	0.001	L	16	54.2	96.398	97.717	99.029	99.032	0
1	22071804	27	High	1.5	Vague	2	12	16	36	32.4	54.2	20.0	36	12	16	20.0	32.4	54.2	2	0.821	0.001	R	16	54.2	99.534	101.720	102.542	102.544	0
1	22071804	28	High	1.5	Vague	2	8	15	29	30.7	33.8	21.7	15	29	8	33.8	21.7	30.7	3	1.295	0.000	D	29	21.7	103.047	103.807	105.101	105.104	0
1	22071804	29	High	1.5	Vague	2	12	15	20	32.4	33.8	2.5	15	20	12	33.8	2.5	32.4	NaN	NaN	NaN	NaN	NaN	NaN	105.607	106.266	NaN	107.753	1
1	22071804	30	High	1.5	Precise	1	16	18	10	54.2	84.5	25.5	18	16	10	84.5	54.2	25.5	2	1.120	0.000	L	18	84.5	109.757	111.549	112.669	112.672	0
1	22071804	31	High	1.5	Precise	1	16	18	3	54.2	84.5	5.7	18	3	16	84.5	5.7	54.2	2	0.557	0.000	L	18	84.5	113.175	115.161	115.718	115.720	0
1	22071804	32	High	1.5	Precise	1	8	17	10	30.7	47.0	25.5	8	10	17	30.7	25.5	47.0	2	1.050	0.000	R	17	47.0	116.222	117.483	118.533	118.536	0
1	22071804	33	High	1.5	Vague	2	15	16	29	33.8	54.2	21.7	29	15	16	21.7	33.8	54.2	3	1.207	0.000	L	29	21.7	119.038	120.662	121.869	121.872	0
1	22071804	34	High	1.5	Precise	1	16	18	5	54.2	84.5	6.3	18	5	16	84.5	6.3	54.2	2	0.903	0.000	L	18	84.5	122.374	123.719	124.621	124.624	0
1	22071804	35	High	1.5	Vague	2	8	17	29	30.7	47.0	21.7	17	29	8	47.0	21.7	30.7	1	1.430	0.000	R	8	30.7	125.126	126.543	127.974	127.976	0
1	22071804	36	High	1.5	Precise	1	15	17	9	33.8	47.0	14.7	17	15	9	47.0	33.8	14.7	2	1.482	0.000	L	17	47.0	128.479	130.099	131.582	131.584	0
1	22071804	37	High	1.5	Vague	2	12	16	21	32.4	54.2	5.2	21	16	12	5.2	54.2	32.4	NaN	NaN	NaN	NaN	NaN	NaN	132.086	133.221	NaN	134.708	1
1	22071804	38	High	1.5	Precise	1	15	16	5	33.8	54.2	6.3	5	15	16	6.3	33.8	54.2	2	1.008	0.001	R	16	54.2	136.711	137.934	138.942	138.944	0
1	22071804	39	High	1.5	Vague	2	12	17	31	32.4	47.0	17.9	17	31	12	47.0	17.9	32.4	2	1.450	0.001	L	17	47.0	139.446	140.419	141.870	141.872	0
1	22071804	40	High	1.5	Vague	2	12	15	36	32.4	33.8	20.0	15	36	12	33.8	20.0	32.4	NaN	NaN	NaN	NaN	NaN	NaN	142.374	143.599	NaN	145.085	1
1	22071804	41	High	1.5	Vague	2	8	12	36	30.7	32.4	20.0	8	36	12	30.7	20.0	32.4	1	0.885	0.001	L	8	30.7	147.088	149.865	150.750	150.752	0
1	22071804	42	High	1.5	Precise	1	8	16	5	30.7	54.2	6.3	8	5	16	30.7	6.3	54.2	1	0.666	0.000	L	8	30.7	151.255	153.971	154.637	154.640	0
1	22071804	43	High	1.5	Precise	1	15	16	14	33.8	54.2	20.4	14	15	16	20.4	33.8	54.2	2	0.886	0.001	R	16	54.2	155.143	156.208	157.093	157.096	0
1	22071804	44	High	1.5	Precise	1	17	16	14	47.0	54.2	20.4	14	16	17	20.4	54.2	47.0	1	0.905	0.001	R	17	47.0	157.598	159.189	160.094	160.096	0
1	22071804	45	High	1.5	Precise	1	17	16	3	47.0	54.2	5.7	17	16	3	47.0	54.2	5.7	1	0.579	0.001	L	17	47.0	160.600	163.035	163.614	163.616	0
1	22071804	46	High	1.5	Precise	1	8	16	6	30.7	54.2	4.4	8	6	16	30.7	4.4	54.2	1	0.647	0.001	L	8	30.7	164.118	166.999	167.646	167.648	0
1	22071804	47	High	1.5	Precise	1	15	16	3	33.8	54.2	5.7	3	16	15	5.7	54.2	33.8	2	1.365	0.001	D	16	54.2	168.150	170.656	172.022	172.024	0
1	22071804	48	High	1.5	Precise	1	8	15	9	30.7	33.8	14.7	9	15	8	14.7	33.8	30.7	1	0.924	0.001	R	8	30.7	172.527	174.009	174.934	174.936	0
1	22071804	49	High	1.5	Precise	1	17	18	3	47.0	84.5	5.7	17	18	3	47.0	84.5	5.7	1	0.885	0.000	L	17	47.0	175.439	177.400	178.285	178.288	0
1	22071804	50	High	1.5	Vague	2	8	18	25	30.7	84.5	15.1	18	8	25	84.5	30.7	15.1	1	0.731	0.000	D	8	30.7	178.790	179.971	180.702	180.704	0
1	22071804	51	High	1.5	Precise	1	8	17	6	30.7	47.0	4.4	8	17	6	30.7	47.0	4.4	1	0.779	0.001	L	8	30.7	181.207	183.994	184.773	184.776	0
1	22071804	52	High	1.5	Precise	1	8	12	5	30.7	32.4	6.3	5	12	8	6.3	32.4	30.7	1	0.485	0.000	R	8	30.7	185.278	187.096	187.581	187.584	0
1	22071804	53	High	1.5	Vague	2	17	16	25	47.0	54.2	15.1	16	17	25	54.2	47.0	15.1	1	1.099	0.000	D	17	47.0	188.086	189.634	190.733	190.736	0
1	22071804	54	High	1.5	Vague	2	16	18	20	54.2	84.5	2.5	16	18	20	54.2	84.5	2.5	NaN	NaN	NaN	NaN	NaN	NaN	191.239	191.775	NaN	193.262	1
1	22071804	55	High	1.5	Vague	2	8	15	25	30.7	33.8	15.1	25	15	8	15.1	33.8	30.7	1	0.880	0.000	R	8	30.7	195.265	196.374	197.253	197.256	0
1	22071804	56	High	1.5	Vague	2	12	18	31	32.4	84.5	17.9	18	31	12	84.5	17.9	32.4	2	1.302	0.000	L	18	84.5	197.758	198.615	199.917	199.920	0
1	22071804	57	High	1.5	Vague	2	8	17	36	30.7	47.0	20.0	36	17	8	20.0	47.0	30.7	2	0.866	0.001	D	17	47.0	200.422	201.051	201.918	201.920	0
1	22071804	58	High	1.5	Vague	2	8	12	29	30.7	32.4	21.7	29	8	12	21.7	30.7	32.4	3	0.916	0.000	L	29	21.7	202.423	204.994	205.910	205.912	0
1	22071804	59	High	1.5	Precise	1	12	17	5	32.4	47.0	6.3	12	5	17	32.4	6.3	47.0	2	1.053	0.000	R	17	47.0	206.414	207.336	208.389	208.392	0
1	22071804	60	High	1.5	Precise	1	15	17	10	33.8	47.0	25.5	10	15	17	25.5	33.8	47.0	2	0.902	0.000	R	17	47.0	208.894	210.639	211.541	211.544	0
1	22071804	61	High	1.5	Vague	2	16	18	29	54.2	84.5	21.7	29	18	16	21.7	84.5	54.2	2	0.916	0.001	D	18	84.5	220.689	222.026	222.941	222.944	0
1	22071804	62	High	1.5	Precise	1	17	16	10	47.0	54.2	25.5	16	17	10	54.2	47.0	25.5	1	0.996	0.000	D	17	47.0	223.447	226.425	227.421	227.424	0
1	22071804	63	High	1.5	Precise	1	8	15	3	30.7	33.8	5.7	15	8	3	33.8	30.7	5.7	1	1.275	0.000	D	8	30.7	227.926	229.122	230.397	230.400	0
1	22071804	64	High	1.5	Vague	2	15	18	31	33.8	84.5	17.9	15	18	31	33.8	84.5	17.9	2	1.091	0.001	D	18	84.5	230.902	231.570	232.661	232.664	0
1	22071804	65	High	1.5	Vague	2	8	18	21	30.7	84.5	5.2	8	21	18	30.7	5.2	84.5	1	0.943	0.001	L	8	30.7	233.166	233.767	234.710	234.712	0
1	22071804	66	High	1.5	Precise	1	12	16	5	32.4	54.2	6.3	12	5	16	32.4	6.3	54.2	NaN	NaN	NaN	NaN	NaN	NaN	235.215	236.968	NaN	238.457	1
1	22071804	67	High	1.5	Precise	1	17	16	5	47.0	54.2	6.3	16	5	17	54.2	6.3	47.0	1	0.755	0.000	R	17	47.0	240.460	243.315	244.069	244.072	0
1	22071804	68	High	1.5	Precise	1	12	18	6	32.4	84.5	4.4	12	18	6	32.4	84.5	4.4	2	0.612	0.000	D	18	84.5	244.576	245.922	246.534	246.536	0
1	22071804	69	High	1.5	Precise	1	8	17	14	30.7	47.0	20.4	8	14	17	30.7	20.4	47.0	2	0.630	0.000	R	17	47.0	247.039	248.735	249.365	249.368	0
1	22071804	70	High	1.5	Precise	1	8	18	6	30.7	84.5	4.4	18	6	8	84.5	4.4	30.7	2	0.802	0.001	L	18	84.5	249.870	251.347	252.150	252.153	0
1	22071804	71	High	1.5	Vague	2	15	18	20	33.8	84.5	2.5	15	18	20	33.8	84.5	2.5	2	0.550	0.001	D	18	84.5	252.656	254.648	255.198	255.200	0
1	22071804	72	High	1.5	Precise	1	15	18	5	33.8	84.5	6.3	18	5	15	84.5	6.3	33.8	2	0.768	0.000	L	18	84.5	255.703	256.581	257.349	257.352	0
1	22071804	73	High	1.5	Vague	2	16	18	21	54.2	84.5	5.2	18	21	16	84.5	5.2	54.2	2	0.601	0.001	L	18	84.5	257.856	260.173	260.774	260.776	0
1	22071804	74	High	1.5	Precise	1	15	16	6	33.8	54.2	4.4	15	6	16	33.8	4.4	54.2	2	1.286	0.000	R	16	54.2	261.278	262.120	263.405	263.409	0
1	22071804	75	High	1.5	Vague	2	12	18	21	32.4	84.5	5.2	12	18	21	32.4	84.5	5.2	2	0.720	0.000	D	18	84.5	263.912	266.526	267.246	267.248	0
1	22071804	76	High	1.5	Vague	2	15	17	36	33.8	47.0	20.0	17	15	36	47.0	33.8	20.0	2	1.098	0.000	L	17	47.0	267.750	269.747	270.845	270.848	0
1	22071804	77	High	1.5	Vague	2	12	17	21	32.4	47.0	5.2	17	21	12	47.0	5.2	32.4	2	0.845	0.001	L	17	47.0	271.351	273.496	274.342	274.344	0
1	22071804	78	High	1.5	Vague	2	17	18	29	47.0	84.5	21.7	17	18	29	47.0	84.5	21.7	1	0.585	0.000	L	17	47.0	274.847	275.436	276.021	276.024	0
1	22071804	79	High	1.5	Precise	1	12	18	3	32.4	84.5	5.7	12	18	3	32.4	84.5	5.7	2	0.699	0.000	D	18	84.5	276.527	277.426	278.126	278.128	0
1	22071804	80	High	1.5	Precise	1	15	17	5	33.8	47.0	6.3	17	15	5	47.0	33.8	6.3	2	0.787	0.000	L	17	47.0	278.631	280.906	281.693	281.696	0
1	22071804	81	High	1.5	Precise	1	16	18	9	54.2	84.5	14.7	18	9	16	84.5	14.7	54.2	2	0.692	0.000	L	18	84.5	282.198	283.626	284.317	284.320	0
1	22071804	82	High	1.5	Vague	2	8	12	31	30.7	32.4	17.9	31	8	12	17.9	30.7	32.4	1	1.335	0.000	D	8	30.7	284.822	286.430	287.766	287.768	0
1	22071804	83	High	1.5	Vague	2	17	18	36	47.0	84.5	20.0	18	36	17	84.5	20.0	47.0	1	0.901	0.001	R	17	47.0	288.271	291.025	291.925	291.928	0
1	22071804	84	High	1.5	Vague	2	8	16	20	30.7	54.2	2.5	8	16	20	30.7	54.2	2.5	1	0.991	0.000	L	8	30.7	292.431	293.223	294.213	294.217	0
1	22071804	85	High	1.5	Vague	2	12	15	29	32.4	33.8	21.7	15	12	29	33.8	32.4	21.7	NaN	NaN	NaN	NaN	NaN	NaN	294.720	295.403	NaN	296.889	1
1	22071804	86	High	1.5	Vague	2	8	12	21	30.7	32.4	5.2	8	21	12	30.7	5.2	32.4	1	1.310	0.000	L	8	30.7	298.892	299.543	300.853	300.856	0
1	22071804	87	High	1.5	Vague	2	8	15	36	30.7	33.8	20.0	15	8	36	33.8	30.7	20.0	1	1.367	0.000	D	8	30.7	301.360	301.910	303.277	303.280	0
1	22071804	88	High	1.5	Precise	1	17	16	6	47.0	54.2	4.4	17	6	16	47.0	4.4	54.2	1	0.952	0.000	L	17	47.0	303.783	304.613	305.566	305.568	0
1	22071804	89	High	1.5	Precise	1	8	15	10	30.7	33.8	25.5	8	10	15	30.7	25.5	33.8	NaN	NaN	NaN	NaN	NaN	NaN	306.071	307.868	NaN	309.354	1
1	22071804	90	High	1.5	Precise	1	12	17	14	32.4	47.0	20.4	14	12	17	20.4	32.4	47.0	2	1.074	0.000	R	17	47.0	311.357	313.980	315.053	315.056	0
1	22071804	91	High	1.5	Vague	2	8	15	21	30.7	33.8	5.2	15	8	21	33.8	30.7	5.2	1	1.250	0.001	D	8	30.7	315.560	316.332	317.581	317.584	0
1	22071804	92	High	1.5	Precise	1	12	15	10	32.4	33.8	25.5	10	15	12	25.5	33.8	32.4	3	1.447	0.000	L	10	25.5	318.086	320.838	322.285	322.288	0
1	22071804	93	High	1.5	Precise	1	12	17	6	32.4	47.0	4.4	17	12	6	47.0	32.4	4.4	2	0.983	0.000	L	17	47.0	322.790	324.263	325.245	325.248	0
1	22071804	94	High	1.5	Precise	1	12	18	10	32.4	84.5	25.5	12	18	10	32.4	84.5	25.5	3	1.041	0.000	R	10	25.5	325.750	328.732	329.774	329.776	0
1	22071804	95	High	1.5	Vague	2	17	16	36	47.0	54.2	20.0	17	36	16	47.0	20.0	54.2	2	1.224	0.001	R	16	54.2	330.279	331.382	332.605	332.608	0
1	22071804	96	High	1.5	Precise	1	8	16	9	30.7	54.2	14.7	16	8	9	54.2	30.7	14.7	1	1.386	0.000	D	8	30.7	333.110	335.963	337.349	337.352	0
1	22071804	97	High	1.5	Vague	2	16	18	31	54.2	84.5	17.9	16	31	18	54.2	17.9	84.5	1	1.189	0.001	L	16	54.2	337.854	340.328	341.518	341.520	0
1	22071804	98	High	1.5	Precise	1	8	12	6	30.7	32.4	4.4	6	12	8	4.4	32.4	30.7	1	0.799	0.000	R	8	30.7	342.023	343.286	344.085	344.088	0
1	22071804	99	High	1.5	Precise	1	17	18	14	47.0	84.5	20.4	18	14	17	84.5	20.4	47.0	1	0.766	0.000	R	17	47.0	344.590	346.439	347.205	347.208	0
1	22071804	100	High	1.5	Vague	2	15	18	21	33.8	84.5	5.2	15	18	21	33.8	84.5	5.2	2	1.052	0.000	D	18	84.5	347.710	349.265	350.317	350.320	0
1	22071804	101	High	1.5	Vague	2	17	16	31	47.0	54.2	17.9	31	16	17	17.9	54.2	47.0	1	0.730	0.001	R	17	47.0	350.822	352.716	353.445	353.448	0
1	22071804	102	High	1.5	Vague	2	17	16	20	47.0	54.2	2.5	16	20	17	54.2	2.5	47.0	1	0.746	0.000	R	17	47.0	353.950	355.771	356.517	356.520	0
1	22071804	103	High	1.5	Vague	2	8	17	21	30.7	47.0	5.2	17	21	8	47.0	5.2	30.7	2	0.595	0.000	L	17	47.0	357.023	359.322	359.917	359.920	0
1	22071804	104	High	1.5	Vague	2	15	18	36	33.8	84.5	20.0	18	15	36	84.5	33.8	20.0	2	0.693	0.000	L	18	84.5	360.422	361.025	361.717	361.720	0
1	22071804	105	High	1.5	Vague	2	15	18	25	33.8	84.5	15.1	15	18	25	33.8	84.5	15.1	2	0.992	0.000	D	18	84.5	362.222	363.365	364.357	364.360	0
1	22071804	106	High	1.5	Vague	2	15	16	21	33.8	54.2	5.2	16	15	21	54.2	33.8	5.2	2	1.126	0.000	L	16	54.2	364.863	366.111	367.237	367.240	0
1	22071804	107	High	1.5	Vague	2	16	18	36	54.2	84.5	20.0	18	16	36	84.5	54.2	20.0	1	0.682	0.000	D	16	54.2	367.742	369.099	369.781	369.784	0
1	22071804	108	High	1.5	Vague	2	12	17	36	32.4	47.0	20.0	36	12	17	20.0	32.4	47.0	2	0.916	0.000	R	17	47.0	370.286	371.457	372.373	372.376	0
1	22071804	109	High	1.5	Vague	2	15	16	36	33.8	54.2	20.0	15	16	36	33.8	54.2	20.0	2	1.018	0.000	D	16	54.2	372.879	374.403	375.421	375.424	0
1	22071804	110	High	1.5	Vague	2	15	17	20	33.8	47.0	2.5	17	15	20	47.0	33.8	2.5	2	1.086	0.000	L	17	47.0	375.926	378.383	379.469	379.472	0
1	22071804	111	High	1.5	Precise	1	15	17	6	33.8	47.0	4.4	17	15	6	47.0	33.8	4.4	2	0.838	0.001	L	17	47.0	379.974	382.320	383.157	383.160	0
1	22071804	112	High	1.5	Vague	2	8	17	31	30.7	47.0	17.9	31	8	17	17.9	30.7	47.0	2	0.612	0.001	R	17	47.0	383.663	385.002	385.614	385.616	0
1	22071804	113	High	1.5	Precise	1	12	17	3	32.4	47.0	5.7	3	17	12	5.7	47.0	32.4	2	0.578	0.001	D	17	47.0	386.119	388.019	388.598	388.600	0
1	22071804	114	High	1.5	Vague	2	12	18	36	32.4	84.5	20.0	12	36	18	32.4	20.0	84.5	2	0.860	0.001	R	18	84.5	389.103	391.122	391.981	391.984	0
1	22071804	115	High	1.5	Precise	1	12	15	9	32.4	33.8	14.7	9	15	12	14.7	33.8	32.4	2	1.449	0.000	D	15	33.8	392.486	394.029	395.477	395.480	0
1	22071804	116	High	1.5	Vague	2	8	16	36	30.7	54.2	20.0	36	16	8	20.0	54.2	30.7	2	1.277	0.000	D	16	54.2	395.983	396.640	397.917	397.920	0
1	22071804	117	High	1.5	Precise	1	8	12	3	30.7	32.4	5.7	3	8	12	5.7	30.7	32.4	1	0.752	0.000	D	8	30.7	398.423	401.141	401.893	401.896	0
1	22071804	118	High	1.5	Precise	1	8	12	10	30.7	32.4	25.5	8	12	10	30.7	32.4	25.5	1	1.066	0.000	L	8	30.7	402.398	404.012	405.077	405.080	0
1	22071804	119	High	1.5	Vague	2	8	17	25	30.7	47.0	15.1	17	8	25	47.0	30.7	15.1	1	0.593	0.000	D	8	30.7	405.583	408.404	408.997	409.000	0
1	22071804	120	High	1.5	Vague	2	15	17	29	33.8	47.0	21.7	29	17	15	21.7	47.0	33.8	2	0.633	0.001	D	17	47.0	409.503	411.380	412.013	412.016	0
1	22071804	121	High	1.5	Vague	2	8	16	31	30.7	54.2	17.9	31	16	8	17.9	54.2	30.7	1	1.184	0.000	R	8	30.7	420.466	422.821	424.005	424.008	0
1	22071804	122	High	1.5	Precise	1	17	18	10	47.0	84.5	25.5	18	17	10	84.5	47.0	25.5	2	1.331	0.000	L	18	84.5	424.510	427.210	428.541	428.544	0
1	22071804	123	High	1.5	Vague	2	12	17	25	32.4	47.0	15.1	12	17	25	32.4	47.0	15.1	2	0.631	0.001	D	17	47.0	429.046	429.902	430.533	430.536	0
1	22071804	124	High	1.5	Vague	2	17	18	31	47.0	84.5	17.9	31	17	18	17.9	47.0	84.5	1	0.739	0.000	D	17	47.0	431.039	432.987	433.725	433.728	0
1	22071804	125	High	1.5	Vague	2	17	16	21	47.0	54.2	5.2	17	21	16	47.0	5.2	54.2	1	0.597	0.000	L	17	47.0	434.230	435.952	436.549	436.551	0
1	22071804	126	High	1.5	Precise	1	8	15	6	30.7	33.8	4.4	6	8	15	4.4	30.7	33.8	1	1.041	0.000	D	8	30.7	437.054	439.740	440.781	440.784	0
1	22071804	127	High	1.5	Vague	2	15	17	25	33.8	47.0	15.1	17	15	25	47.0	33.8	15.1	2	0.722	0.000	L	17	47.0	441.286	443.659	444.381	444.383	0
1	22071804	128	High	1.5	Precise	1	8	17	3	30.7	47.0	5.7	8	3	17	30.7	5.7	47.0	2	0.942	0.000	R	17	47.0	444.886	446.616	447.557	447.560	0
1	22071804	129	High	1.5	Vague	2	17	18	21	47.0	84.5	5.2	21	17	18	5.2	47.0	84.5	1	0.977	0.000	D	17	47.0	448.062	448.580	449.557	449.560	0
1	22071804	130	High	1.5	Precise	1	12	15	6	32.4	33.8	4.4	15	6	12	33.8	4.4	32.4	NaN	NaN	NaN	NaN	NaN	NaN	450.063	452.728	NaN	454.217	1
1	22071804	131	High	1.5	Precise	1	12	15	5	32.4	33.8	6.3	12	5	15	32.4	6.3	33.8	NaN	NaN	NaN	NaN	NaN	NaN	456.220	459.203	NaN	460.690	1
1	22071804	132	High	1.5	Precise	1	12	16	10	32.4	54.2	25.5	12	16	10	32.4	54.2	25.5	2	1.034	0.001	D	16	54.2	462.694	464.211	465.246	465.248	0
1	22071804	133	High	1.5	Precise	1	17	18	6	47.0	84.5	4.4	6	17	18	4.4	47.0	84.5	1	0.720	0.000	D	17	47.0	465.752	466.613	467.333	467.335	0
1	22071804	134	High	1.5	Vague	2	12	18	20	32.4	84.5	2.5	18	12	20	84.5	32.4	2.5	2	0.739	0.000	L	18	84.5	467.839	468.947	469.685	469.688	0
1	22071804	135	High	1.5	Vague	2	12	16	20	32.4	54.2	2.5	20	12	16	2.5	32.4	54.2	2	1.356	0.001	R	16	54.2	470.191	472.961	474.317	474.320	0
1	22071804	136	High	1.5	Vague	2	8	15	31	30.7	33.8	17.9	31	15	8	17.9	33.8	30.7	1	1.206	0.001	R	8	30.7	474.823	475.968	477.173	477.176	0
1	22071804	137	High	1.5	Vague	2	15	16	20	33.8	54.2	2.5	16	15	20	54.2	33.8	2.5	2	0.904	0.001	L	16	54.2	477.679	479.886	480.789	480.792	0
1	22071804	138	High	1.5	Vague	2	8	16	21	30.7	54.2	5.2	8	21	16	30.7	5.2	54.2	1	0.716	0.000	L	8	30.7	481.295	484.066	484.781	484.784	0
1	22071804	139	High	1.5	Precise	1	12	16	3	32.4	54.2	5.7	3	12	16	5.7	32.4	54.2	2	0.973	0.000	R	16	54.2	485.286	487.328	488.301	488.304	0
1	22071804	140	High	1.5	Precise	1	12	17	9	32.4	47.0	14.7	12	17	9	32.4	47.0	14.7	2	1.255	0.000	D	17	47.0	488.806	491.535	492.789	492.792	0
1	22071804	141	High	1.5	Precise	1	12	18	14	32.4	84.5	20.4	12	14	18	32.4	20.4	84.5	2	0.848	0.000	R	18	84.5	493.295	494.701	495.549	495.552	0
1	22071804	142	High	1.5	Vague	2	12	16	25	32.4	54.2	15.1	12	16	25	32.4	54.2	15.1	2	0.954	0.000	D	16	54.2	496.055	497.235	498.189	498.192	0
1	22071804	143	High	1.5	Vague	2	8	18	20	30.7	84.5	2.5	18	8	20	84.5	30.7	2.5	2	0.759	0.001	L	18	84.5	498.695	499.862	500.621	500.624	0
1	22071804	144	High	1.5	Precise	1	15	17	3	33.8	47.0	5.7	17	3	15	47.0	5.7	33.8	2	0.673	0.000	L	17	47.0	501.126	503.556	504.229	504.232	0
1	22071804	145	High	1.5	Precise	1	8	15	14	30.7	33.8	20.4	8	15	14	30.7	33.8	20.4	1	1.230	0.001	L	8	30.7	504.734	507.383	508.613	508.616	0
1	22071804	146	High	1.5	Precise	1	8	15	5	30.7	33.8	6.3	5	8	15	6.3	30.7	33.8	1	1.066	0.001	D	8	30.7	509.120	511.307	512.374	512.376	0
1	22071804	147	High	1.5	Vague	2	12	17	20	32.4	47.0	2.5	17	20	12	47.0	2.5	32.4	2	0.676	0.001	L	17	47.0	512.878	514.929	515.605	515.608	0
1	22071804	148	High	1.5	Precise	1	8	18	5	30.7	84.5	6.3	8	5	18	30.7	6.3	84.5	1	0.678	0.001	L	8	30.7	516.110	518.400	519.077	519.080	0
1	22071804	149	High	1.5	Precise	1	15	18	3	33.8	84.5	5.7	15	18	3	33.8	84.5	5.7	2	0.775	0.000	D	18	84.5	519.582	522.343	523.117	523.120	0
1	22071804	150	High	1.5	Precise	1	12	17	10	32.4	47.0	25.5	17	10	12	47.0	25.5	32.4	2	0.689	0.000	L	17	47.0	523.622	526.276	526.965	526.968	0
1	22071804	151	High	1.5	Precise	1	12	16	9	32.4	54.2	14.7	9	12	16	14.7	32.4	54.2	2	1.278	0.000	R	16	54.2	527.471	529.503	530.781	530.784	0
1	22071804	152	High	1.5	Vague	2	17	18	20	47.0	84.5	2.5	18	20	17	84.5	2.5	47.0	2	1.218	0.000	L	18	84.5	531.286	532.963	534.181	534.184	0
1	22071804	153	High	1.5	Precise	1	17	18	9	47.0	84.5	14.7	17	18	9	47.0	84.5	14.7	2	0.772	0.001	D	18	84.5	534.686	537.457	538.229	538.232	0
1	22071804	154	High	1.5	Vague	2	8	12	25	30.7	32.4	15.1	12	25	8	32.4	15.1	30.7	1	0.914	0.000	R	8	30.7	538.734	541.459	542.373	542.376	0
1	22071804	155	High	1.5	Precise	1	8	12	14	30.7	32.4	20.4	14	12	8	20.4	32.4	30.7	1	0.958	0.000	R	8	30.7	542.878	543.567	544.525	544.528	0
1	22071804	156	High	1.5	Vague	2	8	12	20	30.7	32.4	2.5	8	20	12	30.7	2.5	32.4	1	1.043	0.000	L	8	30.7	545.030	547.242	548.285	548.288	0
1	22071804	157	High	1.5	Precise	1	12	15	14	32.4	33.8	20.4	12	15	14	32.4	33.8	20.4	3	1.347	0.000	R	14	20.4	548.790	550.738	552.085	552.088	0
1	22071804	158	High	1.5	Precise	1	8	16	3	30.7	54.2	5.7	16	3	8	54.2	5.7	30.7	1	0.750	0.000	R	8	30.7	552.590	553.088	553.837	553.840	0
1	22071804	159	High	1.5	Vague	2	15	18	29	33.8	84.5	21.7	29	18	15	21.7	84.5	33.8	2	0.940	0.000	D	18	84.5	554.343	555.617	556.557	556.560	0
1	22071804	160	High	1.5	Vague	2	12	16	29	32.4	54.2	21.7	29	16	12	21.7	54.2	32.4	NaN	NaN	NaN	NaN	NaN	NaN	557.062	559.503	NaN	560.989	1
1	22071804	161	High	1.5	Precise	1	16	18	14	54.2	84.5	20.4	16	14	18	54.2	20.4	84.5	1	0.980	0.000	L	16	54.2	562.992	565.897	566.877	566.879	0
1	22071804	162	High	1.5	Precise	1	15	18	9	33.8	84.5	14.7	9	18	15	14.7	84.5	33.8	2	0.669	0.000	D	18	84.5	567.382	568.009	568.677	568.680	0
1	22071804	163	High	1.5	Vague	2	8	16	25	30.7	54.2	15.1	16	25	8	54.2	15.1	30.7	1	1.116	0.000	R	8	30.7	569.182	570.505	571.621	571.624	0
1	22071804	164	High	1.5	Vague	2	12	15	21	32.4	33.8	5.2	21	12	15	5.2	32.4	33.8	NaN	NaN	NaN	NaN	NaN	NaN	572.127	574.325	NaN	575.811	1
1	22071804	165	High	1.5	Precise	1	8	17	5	30.7	47.0	6.3	17	5	8	47.0	6.3	30.7	2	0.859	0.000	L	17	47.0	577.815	579.802	580.661	580.664	0
1	22071804	166	High	1.5	Precise	1	8	18	14	30.7	84.5	20.4	8	18	14	30.7	84.5	20.4	2	0.840	0.000	D	18	84.5	581.166	582.925	583.765	583.768	0
1	22071804	167	High	1.5	Precise	1	8	18	3	30.7	84.5	5.7	18	3	8	84.5	5.7	30.7	2	0.693	0.001	L	18	84.5	584.271	585.953	586.645	586.648	0
1	22071804	168	High	1.5	Precise	1	12	18	9	32.4	84.5	14.7	9	12	18	14.7	32.4	84.5	2	0.651	0.000	R	18	84.5	587.150	588.498	589.149	589.152	0
1	22071804	169	High	1.5	Precise	1	15	17	14	33.8	47.0	20.4	17	14	15	47.0	20.4	33.8	2	0.912	0.000	L	17	47.0	589.655	592.645	593.557	593.560	0
1	22071804	170	High	1.5	Precise	1	8	17	9	30.7	47.0	14.7	8	17	9	30.7	47.0	14.7	2	0.694	0.000	D	17	47.0	594.063	596.399	597.093	597.095	0
1	22071804	171	High	1.5	Precise	1	8	18	10	30.7	84.5	25.5	18	10	8	84.5	25.5	30.7	2	0.687	0.000	L	18	84.5	597.598	599.710	600.397	600.399	0
1	22071804	172	High	1.5	Vague	2	16	18	25	54.2	84.5	15.1	25	16	18	15.1	54.2	84.5	2	0.759	0.001	R	18	84.5	600.902	602.830	603.589	603.592	0
1	22071804	173	High	1.5	Vague	2	15	17	21	33.8	47.0	5.2	15	21	17	33.8	5.2	47.0	2	0.897	0.000	R	17	47.0	604.094	605.468	606.365	606.368	0
1	22071804	174	High	1.5	Vague	2	12	15	31	32.4	33.8	17.9	31	15	12	17.9	33.8	32.4	2	1.322	0.001	D	15	33.8	606.870	607.779	609.101	609.104	0
1	22071804	175	High	1.5	Vague	2	15	16	25	33.8	54.2	15.1	25	16	15	15.1	54.2	33.8	2	0.905	0.001	D	16	54.2	609.606	612.125	613.029	613.032	0
1	22071804	176	High	1.5	Vague	2	17	18	25	47.0	84.5	15.1	18	25	17	84.5	15.1	47.0	1	0.663	0.001	R	17	47.0	613.534	615.750	616.413	616.416	0
1	22071804	177	High	1.5	Precise	1	12	16	14	32.4	54.2	20.4	16	12	14	54.2	32.4	20.4	2	1.076	0.000	L	16	54.2	616.918	619.745	620.821	620.824	0
1	22071804	178	High	1.5	Vague	2	12	18	25	32.4	84.5	15.1	18	12	25	84.5	32.4	15.1	2	0.702	0.000	L	18	84.5	621.327	622.351	623.053	623.056	0
1	22071804	179	High	1.5	Precise	1	15	18	6	33.8	84.5	4.4	6	15	18	4.4	33.8	84.5	2	0.524	0.000	R	18	84.5	623.558	625.865	626.389	626.391	0
1	22071804	180	High	1.5	Precise	1	17	18	5	47.0	84.5	6.3	17	18	5	47.0	84.5	6.3	2	0.902	0.000	D	18	84.5	626.895	629.655	630.557	630.560	0
1	22071804	181	Low	10.0	Vague	2	15	17	23	33.8	47.0	4.1	17	15	23	47.0	33.8	4.1	2	1.957	0.000	L	17	47.0	637.384	637.896	639.853	639.856	0
1	22071804	182	Low	10.0	Precise	1	8	16	11	30.7	54.2	29.7	11	8	16	29.7	30.7	54.2	2	1.471	0.000	R	16	54.2	640.359	641.559	643.029	643.032	0
1	22071804	183	Low	10.0	Precise	1	15	17	11	33.8	47.0	29.7	17	15	11	47.0	33.8	29.7	2	2.077	0.000	L	17	47.0	643.534	644.144	646.221	646.224	0
1	22071804	184	Low	10.0	Vague	2	12	15	24	32.4	33.8	1.4	12	15	24	32.4	33.8	1.4	1	2.172	0.000	L	12	32.4	646.727	649.129	651.301	651.304	0
1	22071804	185	Low	10.0	Precise	1	12	15	7	32.4	33.8	6.7	7	12	15	6.7	32.4	33.8	1	1.239	0.000	D	12	32.4	651.807	653.134	654.373	654.375	0
1	22071804	186	Low	10.0	Precise	1	15	17	4	33.8	47.0	23.7	4	17	15	23.7	47.0	33.8	2	1.543	0.000	D	17	47.0	654.879	657.486	659.029	659.032	0
1	22071804	187	Low	10.0	Precise	1	8	16	13	30.7	54.2	17.8	13	8	16	17.8	30.7	54.2	1	1.535	0.001	D	8	30.7	659.535	660.255	661.789	661.792	0
1	22071804	188	Low	10.0	Vague	2	16	18	30	54.2	84.5	19.1	16	30	18	54.2	19.1	84.5	1	1.594	0.001	L	16	54.2	662.295	662.916	664.509	664.512	0
1	22071804	189	Low	10.0	Precise	1	8	15	4	30.7	33.8	23.7	15	8	4	33.8	30.7	23.7	1	1.449	0.001	D	8	30.7	665.014	666.988	668.437	668.440	0
1	22071804	190	Low	10.0	Vague	2	17	18	19	47.0	84.5	8.2	18	17	19	84.5	47.0	8.2	2	1.506	0.000	L	18	84.5	668.943	670.692	672.197	672.200	0
1	22071804	191	Low	10.0	Vague	2	16	18	24	54.2	84.5	1.4	24	16	18	1.4	54.2	84.5	2	1.237	0.000	R	18	84.5	672.703	673.240	674.477	674.480	0
1	22071804	192	Low	10.0	Precise	1	12	16	13	32.4	54.2	17.8	13	12	16	17.8	32.4	54.2	2	1.516	0.000	R	16	54.2	674.982	676.601	678.117	678.120	0
1	22071804	193	Low	10.0	Precise	1	15	16	4	33.8	54.2	23.7	16	15	4	54.2	33.8	23.7	2	1.726	0.001	L	16	54.2	678.622	679.263	680.989	680.992	0
1	22071804	194	Low	10.0	Vague	2	8	16	22	30.7	54.2	20.1	22	8	16	20.1	30.7	54.2	1	1.846	0.001	D	8	30.7	681.494	682.032	683.877	683.880	0
1	22071804	195	Low	10.0	Vague	2	17	18	23	47.0	84.5	4.1	23	18	17	4.1	84.5	47.0	2	1.930	0.000	D	18	84.5	684.382	687.195	689.125	689.127	0
1	22071804	196	Low	10.0	Precise	1	12	15	2	32.4	33.8	4.7	15	12	2	33.8	32.4	4.7	1	2.673	0.000	D	12	32.4	689.630	690.468	693.141	693.143	0
1	22071804	197	Low	10.0	Vague	2	15	18	28	33.8	84.5	17.4	28	15	18	17.4	33.8	84.5	2	1.477	0.000	R	18	84.5	693.646	696.400	697.877	697.880	0
1	22071804	198	Low	10.0	Vague	2	8	12	23	30.7	32.4	4.1	8	23	12	30.7	4.1	32.4	1	2.195	0.001	L	8	30.7	698.384	701.267	703.461	703.464	0
1	22071804	199	Low	10.0	Vague	2	8	17	22	30.7	47.0	20.1	8	17	22	30.7	47.0	20.1	2	1.938	0.000	D	17	47.0	703.966	705.148	707.085	707.088	0
1	22071804	200	Low	10.0	Vague	2	15	18	22	33.8	84.5	20.1	15	18	22	33.8	84.5	20.1	2	1.316	0.000	D	18	84.5	707.590	709.498	710.813	710.816	0
1	22071804	201	Low	10.0	Vague	2	8	18	19	30.7	84.5	8.2	18	19	8	84.5	8.2	30.7	2	1.056	0.000	L	18	84.5	711.319	713.726	714.781	714.783	0
1	22071804	202	Low	10.0	Vague	2	15	18	24	33.8	84.5	1.4	15	18	24	33.8	84.5	1.4	2	1.147	0.001	D	18	84.5	715.287	715.939	717.085	717.088	0
1	22071804	203	Low	10.0	Vague	2	12	17	19	32.4	47.0	8.2	12	19	17	32.4	8.2	47.0	2	1.273	0.000	R	17	47.0	717.590	718.389	719.661	719.663	0
1	22071804	204	Low	10.0	Precise	1	17	16	7	47.0	54.2	6.7	17	7	16	47.0	6.7	54.2	1	1.283	0.000	L	17	47.0	720.166	723.075	724.357	724.359	0
1	22071804	205	Low	10.0	Vague	2	12	15	22	32.4	33.8	20.1	22	12	15	20.1	32.4	33.8	1	1.537	0.001	D	12	32.4	724.862	727.580	729.117	729.120	0
1	22071804	206	Low	10.0	Vague	2	17	18	24	47.0	84.5	1.4	24	18	17	1.4	84.5	47.0	1	0.737	0.001	R	17	47.0	729.623	730.428	731.165	731.168	0
1	22071804	207	Low	10.0	Precise	1	17	18	4	47.0	84.5	23.7	18	4	17	84.5	23.7	47.0	2	1.936	0.000	L	18	84.5	731.670	734.653	736.589	736.592	0
1	22071804	208	Low	10.0	Precise	1	12	17	2	32.4	47.0	4.7	17	2	12	47.0	4.7	32.4	2	1.809	0.000	L	17	47.0	737.094	738.141	739.949	739.951	0
1	22071804	209	Low	10.0	Vague	2	12	18	22	32.4	84.5	20.1	18	12	22	84.5	32.4	20.1	2	1.263	0.000	L	18	84.5	740.454	742.014	743.277	743.279	0
1	22071804	210	Low	10.0	Precise	1	8	18	2	30.7	84.5	4.7	2	18	8	4.7	84.5	30.7	2	1.439	0.000	D	18	84.5	743.783	745.926	747.365	747.368	0
1	22071804	211	Low	10.0	Vague	2	15	17	19	33.8	47.0	8.2	15	19	17	33.8	8.2	47.0	2	2.172	0.001	R	17	47.0	747.871	750.169	752.341	752.343	0
1	22071804	212	Low	10.0	Precise	1	8	17	1	30.7	47.0	6.1	17	1	8	47.0	6.1	30.7	2	2.597	0.000	L	17	47.0	752.846	753.984	756.581	756.584	0
1	22071804	213	Low	10.0	Vague	2	12	17	28	32.4	47.0	17.4	12	28	17	32.4	17.4	47.0	2	1.329	0.000	R	17	47.0	757.087	759.804	761.133	761.136	0
1	22071804	214	Low	10.0	Precise	1	15	16	11	33.8	54.2	29.7	11	15	16	29.7	33.8	54.2	2	1.896	0.000	R	16	54.2	761.639	763.661	765.557	765.560	0
1	22071804	215	Low	10.0	Vague	2	16	18	22	54.2	84.5	20.1	22	18	16	20.1	84.5	54.2	2	1.061	0.000	D	18	84.5	766.063	766.640	767.701	767.704	0
1	22071804	216	Low	10.0	Vague	2	8	17	19	30.7	47.0	8.2	17	19	8	47.0	8.2	30.7	2	1.270	0.000	L	17	47.0	768.206	770.463	771.733	771.736	0
1	22071804	217	Low	10.0	Precise	1	8	12	13	30.7	32.4	17.8	8	12	13	30.7	32.4	17.8	1	1.816	0.000	L	8	30.7	772.238	773.110	774.925	774.928	0
1	22071804	218	Low	10.0	Vague	2	8	15	28	30.7	33.8	17.4	28	8	15	17.4	30.7	33.8	1	1.219	0.000	D	8	30.7	775.431	776.098	777.317	777.320	0
1	22071804	219	Low	10.0	Vague	2	8	16	23	30.7	54.2	4.1	23	8	16	4.1	30.7	54.2	1	1.988	0.000	D	8	30.7	777.823	780.104	782.093	782.096	0
1	22071804	220	Low	10.0	Vague	2	12	16	23	32.4	54.2	4.1	16	23	12	54.2	4.1	32.4	2	2.073	0.001	L	16	54.2	782.598	783.700	785.773	785.776	0
1	22071804	221	Low	10.0	Precise	1	15	17	1	33.8	47.0	6.1	1	15	17	6.1	33.8	47.0	2	2.233	0.000	R	17	47.0	786.279	787.724	789.957	789.960	0
1	22071804	222	Low	10.0	Vague	2	8	18	23	30.7	84.5	4.1	18	8	23	84.5	30.7	4.1	2	0.997	0.000	L	18	84.5	790.462	791.288	792.285	792.288	0
1	22071804	223	Low	10.0	Precise	1	8	17	4	30.7	47.0	23.7	17	4	8	47.0	23.7	30.7	2	1.397	0.000	L	17	47.0	792.790	794.271	795.669	795.671	0
1	22071804	224	Low	10.0	Precise	1	8	15	7	30.7	33.8	6.7	8	7	15	30.7	6.7	33.8	1	1.621	0.001	L	8	30.7	796.175	798.856	800.477	800.480	0
1	22071804	225	Low	10.0	Vague	2	15	16	23	33.8	54.2	4.1	16	15	23	54.2	33.8	4.1	2	1.070	0.000	L	16	54.2	800.982	803.959	805.029	805.032	0
1	22071804	226	Low	10.0	Vague	2	8	12	19	30.7	32.4	8.2	12	8	19	32.4	30.7	8.2	1	1.151	0.001	D	8	30.7	805.534	807.358	808.509	808.512	0
1	22071804	227	Low	10.0	Precise	1	8	18	1	30.7	84.5	6.1	1	18	8	6.1	84.5	30.7	1	1.156	0.001	R	8	30.7	809.014	810.562	811.717	811.720	0
1	22071804	228	Low	10.0	Vague	2	8	12	30	30.7	32.4	19.1	8	12	30	30.7	32.4	19.1	1	1.902	0.001	L	8	30.7	812.222	813.368	815.269	815.272	0
1	22071804	229	Low	10.0	Vague	2	12	18	23	32.4	84.5	4.1	18	12	23	84.5	32.4	4.1	2	1.341	0.000	L	18	84.5	815.775	816.416	817.757	817.760	0
1	22071804	230	Low	10.0	Precise	1	8	15	2	30.7	33.8	4.7	2	15	8	4.7	33.8	30.7	1	0.962	0.000	R	8	30.7	818.262	820.539	821.501	821.503	0
1	22071804	231	Low	10.0	Precise	1	8	18	7	30.7	84.5	6.7	18	7	8	84.5	6.7	30.7	2	0.917	0.001	L	18	84.5	822.006	823.769	824.685	824.688	0
1	22071804	232	Low	10.0	Vague	2	15	17	24	33.8	47.0	1.4	24	17	15	1.4	47.0	33.8	2	1.349	0.000	D	17	47.0	825.191	826.216	827.565	827.568	0
1	22071804	233	Low	10.0	Precise	1	8	15	11	30.7	33.8	29.7	11	15	8	29.7	33.8	30.7	1	1.711	0.001	R	8	30.7	828.072	829.526	831.237	831.240	0
1	22071804	234	Low	10.0	Vague	2	8	12	22	30.7	32.4	20.1	22	8	12	20.1	30.7	32.4	1	1.426	0.000	D	8	30.7	831.742	833.163	834.589	834.591	0
1	22071804	235	Low	10.0	Vague	2	17	18	28	47.0	84.5	17.4	28	18	17	17.4	84.5	47.0	2	1.349	0.000	D	18	84.5	835.095	836.280	837.629	837.632	0
1	22071804	236	Low	10.0	Vague	2	8	17	28	30.7	47.0	17.4	28	8	17	17.4	30.7	47.0	2	1.338	0.000	R	17	47.0	838.134	839.259	840.597	840.600	0
1	22071804	237	Low	10.0	Precise	1	12	18	4	32.4	84.5	23.7	12	18	4	32.4	84.5	23.7	2	1.423	0.001	D	18	84.5	841.102	842.175	843.597	843.600	0
1	22071804	238	Low	10.0	Precise	1	12	18	2	32.4	84.5	4.7	12	18	2	32.4	84.5	4.7	2	1.507	0.001	D	18	84.5	844.102	846.938	848.445	848.448	0
1	22071804	239	Low	10.0	Precise	1	15	18	1	33.8	84.5	6.1	18	15	1	84.5	33.8	6.1	2	1.593	0.001	L	18	84.5	848.951	851.093	852.685	852.688	0
1	22071804	240	Low	10.0	Vague	2	8	15	23	30.7	33.8	4.1	8	15	23	30.7	33.8	4.1	1	1.676	0.000	L	8	30.7	853.190	854.761	856.437	856.440	0
1	22071804	241	Low	10.0	Precise	1	17	18	1	47.0	84.5	6.1	1	17	18	6.1	47.0	84.5	2	1.619	0.000	R	18	84.5	867.523	868.202	869.821	869.824	0
1	22071804	242	Low	10.0	Precise	1	12	17	11	32.4	47.0	29.7	11	12	17	29.7	32.4	47.0	2	1.287	0.000	R	17	47.0	870.326	872.222	873.509	873.511	0
1	22071804	243	Low	10.0	Precise	1	15	18	7	33.8	84.5	6.7	7	18	15	6.7	84.5	33.8	2	0.783	0.000	D	18	84.5	874.014	874.542	875.325	875.328	0
1	22071804	244	Low	10.0	Precise	1	12	18	13	32.4	84.5	17.8	18	12	13	84.5	32.4	17.8	2	0.872	0.001	L	18	84.5	875.831	876.581	877.453	877.456	0
1	22071804	245	Low	10.0	Precise	1	17	18	11	47.0	84.5	29.7	17	11	18	47.0	29.7	84.5	1	1.069	0.000	L	17	47.0	877.958	878.792	879.861	879.863	0
1	22071804	246	Low	10.0	Precise	1	8	12	1	30.7	32.4	6.1	1	12	8	6.1	32.4	30.7	1	1.232	0.001	R	8	30.7	880.367	882.717	883.949	883.952	0
1	22071804	247	Low	10.0	Precise	1	8	17	13	30.7	47.0	17.8	8	13	17	30.7	17.8	47.0	2	1.488	0.000	R	17	47.0	884.455	885.373	886.861	886.863	0
1	22071804	248	Low	10.0	Precise	1	12	16	11	32.4	54.2	29.7	16	12	11	54.2	32.4	29.7	2	1.425	0.000	L	16	54.2	887.367	889.300	890.725	890.728	0
1	22071804	249	Low	10.0	Precise	1	15	18	13	33.8	84.5	17.8	15	18	13	33.8	84.5	17.8	2	1.365	0.000	D	18	84.5	891.231	894.081	895.445	895.447	0
1	22071804	250	Low	10.0	Precise	1	8	16	2	30.7	54.2	4.7	8	2	16	30.7	4.7	54.2	1	1.393	0.000	L	8	30.7	895.950	897.252	898.645	898.647	0
1	22071804	251	Low	10.0	Vague	2	15	17	22	33.8	47.0	20.1	15	22	17	33.8	20.1	47.0	2	1.400	0.001	R	17	47.0	899.150	900.182	901.581	901.584	0
1	22071804	252	Low	10.0	Precise	1	8	16	1	30.7	54.2	6.1	16	8	1	54.2	30.7	6.1	1	1.040	0.000	D	8	30.7	902.087	904.949	905.989	905.991	0
1	22071804	253	Low	10.0	Vague	2	12	17	30	32.4	47.0	19.1	12	30	17	32.4	19.1	47.0	2	1.094	0.000	R	17	47.0	906.495	907.695	908.789	908.791	0
1	22071804	254	Low	10.0	Vague	2	12	17	24	32.4	47.0	1.4	17	24	12	47.0	1.4	32.4	2	1.439	0.001	L	17	47.0	909.295	912.254	913.693	913.695	0
1	22071804	255	Low	10.0	Precise	1	16	18	2	54.2	84.5	4.7	18	16	2	84.5	54.2	4.7	2	1.081	0.000	L	18	84.5	914.198	916.196	917.277	917.279	0
1	22071804	256	Low	10.0	Precise	1	17	18	2	47.0	84.5	4.7	18	17	2	84.5	47.0	4.7	2	1.126	0.000	L	18	84.5	917.783	918.383	919.509	919.512	0
1	22071804	257	Low	10.0	Precise	1	16	18	7	54.2	84.5	6.7	16	18	7	54.2	84.5	6.7	2	1.069	0.000	D	18	84.5	920.015	920.920	921.989	921.991	0
1	22071804	258	Low	10.0	Precise	1	12	15	4	32.4	33.8	23.7	15	12	4	33.8	32.4	23.7	1	1.815	0.001	D	12	32.4	922.494	925.078	926.893	926.896	0
1	22071804	259	Low	10.0	Precise	1	17	16	13	47.0	54.2	17.8	17	13	16	47.0	17.8	54.2	1	1.723	0.000	L	17	47.0	927.399	930.130	931.853	931.856	0
1	22071804	260	Low	10.0	Vague	2	16	18	19	54.2	84.5	8.2	18	19	16	84.5	8.2	54.2	2	1.323	0.001	L	18	84.5	932.359	934.275	935.597	935.599	0
1	22071804	261	Low	10.0	Vague	2	17	16	30	47.0	54.2	19.1	17	30	16	47.0	19.1	54.2	1	1.738	0.001	L	17	47.0	936.102	939.003	940.741	940.743	0
1	22071804	262	Low	10.0	Vague	2	12	18	30	32.4	84.5	19.1	12	30	18	32.4	19.1	84.5	2	1.612	0.001	R	18	84.5	941.246	941.913	943.525	943.527	0
1	22071804	263	Low	10.0	Precise	1	16	18	13	54.2	84.5	17.8	18	13	16	84.5	17.8	54.2	2	0.953	0.000	L	18	84.5	944.029	945.876	946.829	946.832	0
1	22071804	264	Low	10.0	Vague	2	12	15	19	32.4	33.8	8.2	19	15	12	8.2	33.8	32.4	1	2.124	0.000	R	12	32.4	947.334	948.697	950.821	950.823	0
1	22071804	265	Low	10.0	Precise	1	15	17	13	33.8	47.0	17.8	17	13	15	47.0	17.8	33.8	2	1.261	0.000	L	17	47.0	951.327	953.319	954.581	954.583	0
1	22071804	266	Low	10.0	Precise	1	8	18	11	30.7	84.5	29.7	18	8	11	84.5	30.7	29.7	2	1.155	0.001	L	18	84.5	955.086	957.706	958.861	958.864	0
1	22071804	267	Low	10.0	Vague	2	8	18	28	30.7	84.5	17.4	28	8	18	17.4	30.7	84.5	2	1.342	0.000	R	18	84.5	959.367	960.303	961.645	961.647	0
1	22071804	268	Low	10.0	Precise	1	8	15	13	30.7	33.8	17.8	15	8	13	33.8	30.7	17.8	1	1.682	0.000	D	8	30.7	962.150	965.123	966.805	966.808	0
1	22071804	269	Low	10.0	Vague	2	12	15	23	32.4	33.8	4.1	23	15	12	4.1	33.8	32.4	1	1.562	0.001	R	12	32.4	967.311	968.787	970.349	970.352	0
1	22071804	270	Low	10.0	Precise	1	15	17	7	33.8	47.0	6.7	7	17	15	6.7	47.0	33.8	2	1.207	0.000	D	17	47.0	970.854	973.070	974.277	974.279	0
1	22071804	271	Low	10.0	Precise	1	12	15	13	32.4	33.8	17.8	15	13	12	33.8	17.8	32.4	1	2.601	0.001	R	12	32.4	974.782	977.516	980.117	980.120	0
1	22071804	272	Low	10.0	Vague	2	8	17	30	30.7	47.0	19.1	8	17	30	30.7	47.0	19.1	2	1.179	0.001	D	17	47.0	980.624	982.058	983.237	983.240	0
1	22071804	273	Low	10.0	Vague	2	8	18	22	30.7	84.5	20.1	18	22	8	84.5	20.1	30.7	2	1.201	0.000	L	18	84.5	983.742	985.547	986.749	986.751	0
1	22071804	274	Low	10.0	Vague	2	16	18	28	54.2	84.5	17.4	16	18	28	54.2	84.5	17.4	2	1.151	0.001	D	18	84.5	987.254	989.766	990.917	990.919	0
1	22071804	275	Low	10.0	Precise	1	12	17	4	32.4	47.0	23.7	17	12	4	47.0	32.4	23.7	2	1.306	0.001	L	17	47.0	991.422	993.587	994.893	994.895	0
1	22071804	276	Low	10.0	Vague	2	8	17	23	30.7	47.0	4.1	17	23	8	47.0	4.1	30.7	2	1.053	0.000	L	17	47.0	995.398	996.984	998.037	998.040	0
1	22071804	277	Low	10.0	Vague	2	15	16	24	33.8	54.2	1.4	16	24	15	54.2	1.4	33.8	2	2.444	0.001	L	16	54.2	998.543	999.353	1001.797	1001.800	0
1	22071804	278	Low	10.0	Vague	2	12	16	22	32.4	54.2	20.1	16	12	22	54.2	32.4	20.1	2	1.720	0.000	L	16	54.2	1002.303	1004.229	1005.949	1005.951	0
1	22071804	279	Low	10.0	Vague	2	12	17	22	32.4	47.0	20.1	17	12	22	47.0	32.4	20.1	2	1.431	0.000	L	17	47.0	1006.454	1008.990	1010.421	1010.423	0
1	22071804	280	Low	10.0	Vague	2	8	18	24	30.7	84.5	1.4	18	8	24	84.5	30.7	1.4	2	1.808	0.000	L	18	84.5	1010.926	1012.572	1014.381	1014.383	0
1	22071804	281	Low	10.0	Precise	1	16	18	1	54.2	84.5	6.1	1	18	16	6.1	84.5	54.2	2	2.056	0.001	D	18	84.5	1014.886	1017.629	1019.685	1019.688	0
1	22071804	282	Low	10.0	Vague	2	15	16	22	33.8	54.2	20.1	22	16	15	20.1	54.2	33.8	2	2.162	0.001	D	16	54.2	1020.190	1021.900	1024.061	1024.064	0
1	22071804	283	Low	10.0	Precise	1	17	16	4	47.0	54.2	23.7	4	17	16	23.7	47.0	54.2	1	1.334	0.000	D	17	47.0	1024.566	1026.927	1028.261	1028.263	0
1	22071804	284	Low	10.0	Vague	2	12	16	24	32.4	54.2	1.4	12	16	24	32.4	54.2	1.4	2	2.480	0.000	D	16	54.2	1028.767	1029.717	1032.197	1032.199	0
1	22071804	285	Low	10.0	Precise	1	12	16	4	32.4	54.2	23.7	12	4	16	32.4	23.7	54.2	2	1.536	0.000	R	16	54.2	1032.702	1035.389	1036.925	1036.927	0
1	22071804	286	Low	10.0	Precise	1	17	18	13	47.0	84.5	17.8	17	13	18	47.0	17.8	84.5	1	1.419	0.000	L	17	47.0	1037.430	1037.946	1039.365	1039.368	0
1	22071804	287	Low	10.0	Vague	2	8	15	19	30.7	33.8	8.2	19	8	15	8.2	30.7	33.8	1	1.301	0.000	D	8	30.7	1039.870	1041.160	1042.461	1042.463	0
1	22071804	288	Low	10.0	Precise	1	15	16	1	33.8	54.2	6.1	16	1	15	54.2	6.1	33.8	2	1.475	0.000	L	16	54.2	1042.966	1045.450	1046.925	1046.927	0
1	22071804	289	Low	10.0	Vague	2	17	16	23	47.0	54.2	4.1	16	23	17	54.2	4.1	47.0	1	1.730	0.000	R	17	47.0	1047.431	1048.075	1049.805	1049.807	0
1	22071804	290	Low	10.0	Vague	2	8	16	19	30.7	54.2	8.2	8	16	19	30.7	54.2	8.2	1	1.229	0.001	L	8	30.7	1050.310	1052.672	1053.901	1053.903	0
1	22071804	291	Low	10.0	Vague	2	17	16	24	47.0	54.2	1.4	24	16	17	1.4	54.2	47.0	1	1.464	0.001	R	17	47.0	1054.406	1055.965	1057.429	1057.431	0
1	22071804	292	Low	10.0	Vague	2	15	16	19	33.8	54.2	8.2	15	19	16	33.8	8.2	54.2	2	1.814	0.001	R	16	54.2	1057.934	1060.343	1062.157	1062.160	0
1	22071804	293	Low	10.0	Precise	1	12	16	2	32.4	54.2	4.7	16	12	2	54.2	32.4	4.7	2	1.192	0.000	L	16	54.2	1062.663	1064.805	1065.997	1065.999	0
1	22071804	294	Low	10.0	Vague	2	17	18	30	47.0	84.5	19.1	18	30	17	84.5	19.1	47.0	2	2.038	0.001	L	18	84.5	1066.502	1067.431	1069.469	1069.471	0
1	22071804	295	Low	10.0	Precise	1	8	17	7	30.7	47.0	6.7	7	17	8	6.7	47.0	30.7	2	1.853	0.000	D	17	47.0	1069.974	1072.544	1074.397	1074.400	0
1	22071804	296	Low	10.0	Vague	2	8	15	22	30.7	33.8	20.1	22	15	8	20.1	33.8	30.7	1	2.117	0.000	R	8	30.7	1074.903	1077.112	1079.229	1079.231	0
1	22071804	297	Low	10.0	Vague	2	12	17	23	32.4	47.0	4.1	12	17	23	32.4	47.0	4.1	2	1.037	0.000	D	17	47.0	1079.735	1081.608	1082.645	1082.648	0
1	22071804	298	Low	10.0	Vague	2	12	18	28	32.4	84.5	17.4	12	28	18	32.4	17.4	84.5	2	1.584	0.001	R	18	84.5	1083.151	1084.197	1085.781	1085.783	0
1	22071804	299	Low	10.0	Precise	1	12	15	11	32.4	33.8	29.7	12	15	11	32.4	33.8	29.7	2	1.867	0.000	D	15	33.8	1086.287	1088.642	1090.509	1090.512	0
1	22071804	300	Low	10.0	Precise	1	16	18	4	54.2	84.5	23.7	18	16	4	84.5	54.2	23.7	2	1.392	0.001	L	18	84.5	1091.014	1093.837	1095.229	1095.232	0
1	22071804	301	Low	10.0	Vague	2	8	18	30	30.7	84.5	19.1	18	8	30	84.5	30.7	19.1	2	1.698	0.000	L	18	84.5	1103.890	1104.667	1106.365	1106.367	0
1	22071804	302	Low	10.0	Vague	2	8	15	30	30.7	33.8	19.1	8	30	15	30.7	19.1	33.8	1	1.095	0.000	L	8	30.7	1106.870	1109.005	1110.101	1110.103	0
1	22071804	303	Low	10.0	Precise	1	17	18	7	47.0	84.5	6.7	17	7	18	47.0	6.7	84.5	2	1.349	0.000	R	18	84.5	1110.607	1112.816	1114.165	1114.167	0
1	22071804	304	Low	10.0	Vague	2	17	16	19	47.0	54.2	8.2	17	19	16	47.0	8.2	54.2	1	1.819	0.000	L	17	47.0	1114.671	1116.770	1118.589	1118.591	0
1	22071804	305	Low	10.0	Precise	1	12	15	1	32.4	33.8	6.1	12	15	1	32.4	33.8	6.1	1	1.799	0.001	L	12	32.4	1119.094	1120.278	1122.077	1122.080	0
1	22071804	306	Low	10.0	Precise	1	15	17	2	33.8	47.0	4.7	15	2	17	33.8	4.7	47.0	2	1.085	0.000	R	17	47.0	1122.583	1124.351	1125.437	1125.439	0
1	22071804	307	Low	10.0	Vague	2	15	17	30	33.8	47.0	19.1	17	15	30	47.0	33.8	19.1	2	1.092	0.000	L	17	47.0	1125.943	1127.657	1128.749	1128.751	0
1	22071804	308	Low	10.0	Precise	1	8	18	4	30.7	84.5	23.7	4	8	18	23.7	30.7	84.5	1	1.747	0.000	D	8	30.7	1129.255	1130.370	1132.117	1132.120	0
1	22071804	309	Low	10.0	Precise	1	12	18	1	32.4	84.5	6.1	12	1	18	32.4	6.1	84.5	2	0.829	0.000	R	18	84.5	1132.623	1134.408	1135.237	1135.239	0
1	22071804	310	Low	10.0	Vague	2	15	16	30	33.8	54.2	19.1	16	30	15	54.2	19.1	33.8	2	2.898	0.000	L	16	54.2	1135.742	1137.219	1140.117	1140.119	0
1	22071804	311	Low	10.0	Vague	2	8	16	24	30.7	54.2	1.4	8	16	24	30.7	54.2	1.4	2	2.165	0.000	D	16	54.2	1140.623	1143.472	1145.637	1145.640	0
1	22071804	312	Low	10.0	Vague	2	17	16	28	47.0	54.2	17.4	16	17	28	54.2	47.0	17.4	1	1.391	0.001	D	17	47.0	1146.143	1146.782	1148.173	1148.176	0
1	22071804	313	Low	10.0	Precise	1	15	18	2	33.8	84.5	4.7	18	15	2	84.5	33.8	4.7	2	1.388	0.000	L	18	84.5	1148.680	1149.433	1150.821	1150.823	0
1	22071804	314	Low	10.0	Precise	1	12	17	7	32.4	47.0	6.7	17	7	12	47.0	6.7	32.4	2	1.554	0.000	L	17	47.0	1151.327	1152.851	1154.405	1154.407	0
1	22071804	315	Low	10.0	Vague	2	12	18	19	32.4	84.5	8.2	12	19	18	32.4	8.2	84.5	2	1.643	0.000	R	18	84.5	1154.910	1155.801	1157.445	1157.447	0
1	22071804	316	Low	10.0	Vague	2	17	18	22	47.0	84.5	20.1	18	17	22	84.5	47.0	20.1	1	2.393	0.001	D	17	47.0	1157.951	1160.500	1162.893	1162.896	0
1	22071804	317	Low	10.0	Vague	2	15	17	28	33.8	47.0	17.4	15	28	17	33.8	17.4	47.0	2	1.179	0.001	R	17	47.0	1163.399	1166.202	1167.381	1167.383	0
1	22071804	318	Low	10.0	Vague	2	12	16	28	32.4	54.2	17.4	28	12	16	17.4	32.4	54.2	2	1.815	0.001	R	16	54.2	1167.886	1168.750	1170.565	1170.567	0
1	22071804	319	Low	10.0	Vague	2	15	18	23	33.8	84.5	4.1	18	23	15	84.5	4.1	33.8	2	1.160	0.000	L	18	84.5	1171.071	1172.388	1173.549	1173.551	0
1	22071804	320	Low	10.0	Precise	1	8	17	11	30.7	47.0	29.7	17	11	8	47.0	29.7	30.7	2	1.672	0.001	L	17	47.0	1174.054	1175.469	1177.141	1177.144	0
1	22071804	321	Low	10.0	Vague	2	8	12	24	30.7	32.4	1.4	12	8	24	32.4	30.7	1.4	1	1.589	0.001	D	8	30.7	1177.646	1180.576	1182.165	1182.168	0
1	22071804	322	Low	10.0	Vague	2	15	18	30	33.8	84.5	19.1	18	15	30	84.5	33.8	19.1	2	1.305	0.001	L	18	84.5	1182.671	1184.740	1186.045	1186.047	0
1	22071804	323	Low	10.0	Vague	2	16	18	23	54.2	84.5	4.1	16	23	18	54.2	4.1	84.5	2	1.308	0.001	R	18	84.5	1186.551	1188.913	1190.221	1190.224	0
1	22071804	324	Low	10.0	Vague	2	8	12	28	30.7	32.4	17.4	28	8	12	17.4	30.7	32.4	1	0.965	0.000	D	8	30.7	1190.727	1191.304	1192.269	1192.271	0
1	22071804	325	Low	10.0	Precise	1	15	18	11	33.8	84.5	29.7	18	11	15	84.5	29.7	33.8	2	1.554	0.000	L	18	84.5	1192.774	1194.866	1196.421	1196.423	0
1	22071804	326	Low	10.0	Precise	1	12	16	1	32.4	54.2	6.1	12	16	1	32.4	54.2	6.1	2	1.825	0.001	D	16	54.2	1196.926	1198.260	1200.085	1200.088	0
1	22071804	327	Low	10.0	Precise	1	8	17	2	30.7	47.0	4.7	2	8	17	4.7	30.7	47.0	2	0.983	0.001	R	17	47.0	1200.591	1201.662	1202.645	1202.647	0
1	22071804	328	Low	10.0	Precise	1	12	16	7	32.4	54.2	6.7	16	7	12	54.2	6.7	32.4	2	1.513	0.000	L	16	54.2	1203.150	1206.131	1207.645	1207.647	0
1	22071804	329	Low	10.0	Precise	1	12	17	13	32.4	47.0	17.8	13	12	17	17.8	32.4	47.0	2	1.358	0.000	R	17	47.0	1208.150	1210.439	1211.797	1211.799	0
1	22071804	330	Low	10.0	Precise	1	17	16	1	47.0	54.2	6.1	17	1	16	47.0	6.1	54.2	1	1.691	0.000	L	17	47.0	1212.303	1213.602	1215.293	1215.295	0
1	22071804	331	Low	10.0	Precise	1	8	18	13	30.7	84.5	17.8	8	18	13	30.7	84.5	17.8	2	1.109	0.000	D	18	84.5	1215.798	1218.288	1219.397	1219.399	0
1	22071804	332	Low	10.0	Vague	2	8	17	24	30.7	47.0	1.4	8	24	17	30.7	1.4	47.0	2	0.917	0.000	R	17	47.0	1219.902	1220.480	1221.397	1221.399	0
1	22071804	333	Low	10.0	Vague	2	15	18	19	33.8	84.5	8.2	15	18	19	33.8	84.5	8.2	2	1.643	0.000	D	18	84.5	1221.902	1222.562	1224.205	1224.207	0
1	22071804	334	Low	10.0	Precise	1	15	16	13	33.8	54.2	17.8	13	15	16	17.8	33.8	54.2	2	2.069	0.001	R	16	54.2	1224.710	1225.776	1227.845	1227.847	0
1	22071804	335	Low	10.0	Precise	1	8	16	7	30.7	54.2	6.7	8	7	16	30.7	6.7	54.2	1	2.106	0.000	L	8	30.7	1228.351	1230.715	1232.821	1232.823	0
1	22071804	336	Low	10.0	Precise	1	8	12	11	30.7	32.4	29.7	12	11	8	32.4	29.7	30.7	1	1.628	0.000	R	8	30.7	1233.327	1234.673	1236.301	1236.304	0
1	22071804	337	Low	10.0	Vague	2	17	16	22	47.0	54.2	20.1	16	17	22	54.2	47.0	20.1	1	1.340	0.000	D	17	47.0	1236.807	1239.577	1240.917	1240.920	0
1	22071804	338	Low	10.0	Precise	1	17	16	11	47.0	54.2	29.7	11	17	16	29.7	47.0	54.2	1	2.323	0.001	D	17	47.0	1241.423	1243.506	1245.829	1245.832	0
1	22071804	339	Low	10.0	Vague	2	12	15	30	32.4	33.8	19.1	15	30	12	33.8	19.1	32.4	1	3.615	0.000	R	12	32.4	1246.335	1247.381	1250.997	1250.999	0
1	22071804	340	Low	10.0	Precise	1	8	16	4	30.7	54.2	23.7	16	8	4	54.2	30.7	23.7	2	2.020	0.001	L	16	54.2	1251.501	1252.809	1254.829	1254.832	0
1	22071804	341	Low	10.0	Precise	1	8	12	2	30.7	32.4	4.7	2	12	8	4.7	32.4	30.7	1	1.328	0.001	R	8	30.7	1255.334	1257.301	1258.629	1258.632	0
1	22071804	342	Low	10.0	Precise	1	8	12	7	30.7	32.4	6.7	7	8	12	6.7	30.7	32.4	1	2.038	0.000	D	8	30.7	1259.135	1259.951	1261.989	1261.991	0
1	22071804	343	Low	10.0	Vague	2	12	16	30	32.4	54.2	19.1	16	12	30	54.2	32.4	19.1	2	1.967	0.000	L	16	54.2	1262.494	1263.589	1265.557	1265.559	0
1	22071804	344	Low	10.0	Precise	1	15	16	2	33.8	54.2	4.7	16	2	15	54.2	4.7	33.8	2	1.887	0.001	L	16	54.2	1266.062	1267.758	1269.645	1269.647	0
1	22071804	345	Low	10.0	Vague	2	8	15	24	30.7	33.8	1.4	8	24	15	30.7	1.4	33.8	1	1.676	0.000	L	8	30.7	1270.151	1272.744	1274.421	1274.423	0
1	22071804	346	Low	10.0	Precise	1	16	18	11	54.2	84.5	29.7	11	18	16	29.7	84.5	54.2	2	1.578	0.000	D	18	84.5	1274.926	1277.291	1278.869	1278.871	0
1	22071804	347	Low	10.0	Vague	2	12	16	19	32.4	54.2	8.2	12	16	19	32.4	54.2	8.2	2	1.305	0.001	D	16	54.2	1279.374	1280.236	1281.541	1281.544	0
1	22071804	348	Low	10.0	Vague	2	15	16	28	33.8	54.2	17.4	28	15	16	17.4	33.8	54.2	2	1.331	0.000	R	16	54.2	1282.046	1284.066	1285.397	1285.399	0
1	22071804	349	Low	10.0	Vague	2	12	15	28	32.4	33.8	17.4	15	28	12	33.8	17.4	32.4	1	2.111	0.000	R	12	32.4	1285.902	1288.334	1290.445	1290.447	0
1	22071804	350	Low	10.0	Precise	1	12	17	1	32.4	47.0	6.1	12	1	17	32.4	6.1	47.0	2	1.927	0.000	R	17	47.0	1290.950	1291.510	1293.437	1293.439	0
1	22071804	351	Low	10.0	Precise	1	8	12	4	30.7	32.4	23.7	8	12	4	30.7	32.4	23.7	1	1.588	0.000	L	8	30.7	1293.942	1294.881	1296.469	1296.471	0
1	22071804	352	Low	10.0	Precise	1	15	18	4	33.8	84.5	23.7	4	18	15	23.7	84.5	33.8	2	1.511	0.000	D	18	84.5	1296.974	1298.510	1300.021	1300.024	0
1	22071804	353	Low	10.0	Vague	2	12	18	24	32.4	84.5	1.4	18	24	12	84.5	1.4	32.4	2	1.647	0.000	L	18	84.5	1300.526	1301.198	1302.845	1302.847	0
1	22071804	354	Low	10.0	Precise	1	17	16	2	47.0	54.2	4.7	2	16	17	4.7	54.2	47.0	1	1.097	0.000	R	17	47.0	1303.350	1305.148	1306.245	1306.247	0
1	22071804	355	Low	10.0	Precise	1	15	16	7	33.8	54.2	6.7	7	16	15	6.7	54.2	33.8	2	1.448	0.001	D	16	54.2	1306.751	1309.501	1310.949	1310.952	0
1	22071804	356	Low	10.0	Precise	1	12	18	11	32.4	84.5	29.7	18	11	12	84.5	29.7	32.4	2	1.147	0.000	L	18	84.5	1311.455	1314.074	1315.221	1315.223	0
1	22071804	357	Low	10.0	Precise	1	8	15	1	30.7	33.8	6.1	1	15	8	6.1	33.8	30.7	1	1.263	0.000	R	8	30.7	1315.727	1318.069	1319.333	1319.335	0
1	22071804	358	Low	10.0	Vague	2	8	16	30	30.7	54.2	19.1	8	30	16	30.7	19.1	54.2	2	2.374	0.000	R	16	54.2	1319.838	1322.166	1324.541	1324.543	0
1	22071804	359	Low	10.0	Precise	1	12	18	7	32.4	84.5	6.7	18	7	12	84.5	6.7	32.4	2	1.404	0.001	L	18	84.5	1325.046	1325.961	1327.365	1327.367	0
1	22071804	360	Low	10.0	Vague	2	8	16	28	30.7	54.2	17.4	8	28	16	30.7	17.4	54.2	2	1.740	0.000	R	16	54.2	1327.871	1329.880	1331.621	1331.623	0
