Group	subID	trial	TimePressure	TimeConstraint	Vagueness	Vaguenesscode	ID1	ID2	ID3	V1	V2	V3	ID_left	ID_middle	ID_right	Bid_left	Bid_middle	Bid_right	chosenItem	RT	RTvariance	chosenPosition	chosenID	chosenValue	fixation_time	option_time	choice_time	feedback_time	timeout
2	22110309	1	Low	10.0	Vague	2	31	30	8	2.4	4.3	1.0	30	31	8	4.3	2.4	1.0	2	3.633	0.000	L	30	4.3	8.632	10.107	13.740	13.744	0
2	22110309	2	Low	10.0	Precise	1	28	34	21	2.3	5.0	0.0	28	34	21	2.3	5.0	0.0	2	1.820	0.000	D	34	5.0	14.249	14.945	16.764	16.767	0
2	22110309	3	Low	10.0	Precise	1	28	31	36	2.3	2.4	0.0	28	31	36	2.3	2.4	0.0	2	3.211	0.000	D	31	2.4	17.273	19.137	22.349	22.351	0
2	22110309	4	Low	10.0	Vague	2	28	34	5	2.3	5.0	0.0	5	28	34	0.0	2.3	5.0	2	2.245	0.001	R	34	5.0	22.854	24.920	27.165	27.167	0
2	22110309	5	Low	10.0	Vague	2	28	30	5	2.3	4.3	0.0	28	5	30	2.3	0.0	4.3	2	2.968	0.001	R	30	4.3	27.672	28.781	31.749	31.753	0
2	22110309	6	Low	10.0	Vague	2	32	30	3	3.1	4.3	0.0	3	32	30	0.0	3.1	4.3	2	2.566	0.001	R	30	4.3	32.258	34.374	36.941	36.943	0
2	22110309	7	Low	10.0	Precise	1	31	32	21	2.4	3.1	0.0	21	31	32	0.0	2.4	3.1	2	2.532	0.000	R	32	3.1	37.445	40.321	42.853	42.855	0
2	22110309	8	Low	10.0	Vague	2	31	34	15	2.4	5.0	0.0	15	34	31	0.0	5.0	2.4	2	1.868	0.000	D	34	5.0	43.358	46.001	47.869	47.871	0
2	22110309	9	Low	10.0	Precise	1	31	30	24	2.4	4.3	0.0	30	24	31	4.3	0.0	2.4	2	2.504	0.000	L	30	4.3	48.374	51.076	53.580	53.584	0
2	22110309	10	Low	10.0	Precise	1	28	33	27	2.3	5.0	0.0	27	28	33	0.0	2.3	5.0	2	2.854	0.000	R	33	5.0	54.087	56.294	59.149	59.151	0
2	22110309	11	Low	10.0	Vague	2	31	32	5	2.4	3.1	0.0	5	31	32	0.0	2.4	3.1	2	1.819	0.000	R	32	3.1	59.654	62.505	64.325	64.327	0
2	22110309	12	Low	10.0	Precise	1	31	34	27	2.4	5.0	0.0	34	27	31	5.0	0.0	2.4	2	1.055	0.000	L	34	5.0	64.829	66.053	67.109	67.111	0
2	22110309	13	Low	10.0	Vague	2	32	33	3	3.1	5.0	0.0	3	33	32	0.0	5.0	3.1	2	2.192	0.001	D	33	5.0	67.614	69.461	71.653	71.655	0
2	22110309	14	Low	10.0	Precise	1	30	33	27	4.3	5.0	0.0	27	30	33	0.0	4.3	5.0	2	2.333	0.000	R	33	5.0	72.158	72.727	75.060	75.063	0
2	22110309	15	Low	10.0	Vague	2	28	32	15	2.3	3.1	0.0	32	28	15	3.1	2.3	0.0	2	1.997	0.001	L	32	3.1	75.565	78.303	80.301	80.303	0
2	22110309	16	Low	10.0	Vague	2	30	33	15	4.3	5.0	0.0	15	30	33	0.0	4.3	5.0	2	1.450	0.001	R	33	5.0	80.806	83.035	84.485	84.487	0
2	22110309	17	Low	10.0	Vague	2	28	33	5	2.3	5.0	0.0	33	5	28	5.0	0.0	2.3	2	1.282	0.000	L	33	5.0	84.989	86.595	87.876	87.879	0
2	22110309	18	Low	10.0	Vague	2	30	33	1	4.3	5.0	0.0	30	1	33	4.3	0.0	5.0	2	1.391	0.000	R	33	5.0	88.382	90.558	91.949	91.951	0
2	22110309	19	Low	10.0	Precise	1	34	33	20	5.0	5.0	0.7	33	20	34	5.0	0.7	5.0	1	1.635	0.001	R	34	5.0	92.454	93.226	94.861	94.863	0
2	22110309	20	Low	10.0	Vague	2	31	32	3	2.4	3.1	0.0	32	3	31	3.1	0.0	2.4	2	1.949	0.000	L	32	3.1	95.365	97.135	99.084	99.087	0
2	22110309	21	Low	10.0	Precise	1	34	33	21	5.0	5.0	0.0	34	33	21	5.0	5.0	0.0	1	1.009	0.000	L	34	5.0	99.589	101.387	102.397	102.399	0
2	22110309	22	Low	10.0	Precise	1	31	34	21	2.4	5.0	0.0	34	31	21	5.0	2.4	0.0	2	0.710	0.001	L	34	5.0	102.901	105.351	106.061	106.063	0
2	22110309	23	Low	10.0	Precise	1	28	32	20	2.3	3.1	0.7	20	32	28	0.7	3.1	2.3	2	2.522	0.000	D	32	3.1	106.565	107.770	110.292	110.295	0
2	22110309	24	Low	10.0	Vague	2	28	33	3	2.3	5.0	0.0	33	28	3	5.0	2.3	0.0	2	3.284	0.000	L	33	5.0	110.797	111.337	114.621	114.623	0
2	22110309	25	Low	10.0	Precise	1	30	33	36	4.3	5.0	0.0	33	30	36	5.0	4.3	0.0	2	3.445	0.001	L	33	5.0	115.125	116.072	119.517	119.520	0
2	22110309	26	Low	10.0	Precise	1	30	33	20	4.3	5.0	0.7	20	33	30	0.7	5.0	4.3	2	3.203	0.001	D	33	5.0	120.023	120.857	124.061	124.063	0
2	22110309	27	Low	10.0	Precise	1	30	34	20	4.3	5.0	0.7	20	34	30	0.7	5.0	4.3	2	1.082	0.000	D	34	5.0	124.566	125.946	127.028	127.031	0
2	22110309	28	Low	10.0	Precise	1	32	30	24	3.1	4.3	0.0	24	32	30	0.0	3.1	4.3	2	2.619	0.000	R	30	4.3	127.533	129.490	132.109	132.111	0
2	22110309	29	Low	10.0	Precise	1	32	33	24	3.1	5.0	0.0	32	24	33	3.1	0.0	5.0	1	3.008	0.000	L	32	3.1	132.613	133.588	136.596	136.599	0
2	22110309	30	Low	10.0	Vague	2	32	34	5	3.1	5.0	0.0	32	5	34	3.1	0.0	5.0	2	1.006	0.001	R	34	5.0	137.101	139.063	140.069	140.071	0
2	22110309	31	Low	10.0	Precise	1	31	32	27	2.4	3.1	0.0	27	32	31	0.0	3.1	2.4	2	2.979	0.000	D	32	3.1	140.574	142.194	145.173	145.175	0
2	22110309	32	Low	10.0	Vague	2	31	32	1	2.4	3.1	0.0	1	32	31	0.0	3.1	2.4	2	2.279	0.000	D	32	3.1	145.677	147.382	149.661	149.663	0
2	22110309	33	Low	10.0	Vague	2	28	32	7	2.3	3.1	0.0	7	32	28	0.0	3.1	2.3	2	1.985	0.000	D	32	3.1	150.165	152.956	154.941	154.943	0
2	22110309	34	Low	10.0	Vague	2	28	30	8	2.3	4.3	1.0	8	28	30	1.0	2.3	4.3	2	2.659	0.000	R	30	4.3	155.446	158.425	161.085	161.087	0
2	22110309	35	Low	10.0	Precise	1	28	34	22	2.3	5.0	2.1	28	22	34	2.3	2.1	5.0	2	1.236	0.000	R	34	5.0	161.589	163.784	165.021	165.023	0
2	22110309	36	Low	10.0	Precise	1	28	32	24	2.3	3.1	0.0	24	28	32	0.0	2.3	3.1	2	1.986	0.000	R	32	3.1	165.525	166.554	168.541	168.543	0
2	22110309	37	Low	10.0	Precise	1	28	33	36	2.3	5.0	0.0	28	33	36	2.3	5.0	0.0	2	2.333	0.001	D	33	5.0	169.045	169.999	172.333	172.335	0
2	22110309	38	Low	10.0	Precise	1	31	33	21	2.4	5.0	0.0	31	33	21	2.4	5.0	0.0	2	1.629	0.000	D	33	5.0	172.838	174.303	175.932	175.935	0
2	22110309	39	Low	10.0	Precise	1	34	33	22	5.0	5.0	2.1	34	22	33	5.0	2.1	5.0	1	1.283	0.000	L	34	5.0	176.437	178.746	180.029	180.031	0
2	22110309	40	Low	10.0	Vague	2	32	34	8	3.1	5.0	1.0	32	34	8	3.1	5.0	1.0	2	1.590	0.000	D	34	5.0	180.533	181.287	182.876	182.879	0
2	22110309	41	Low	10.0	Vague	2	31	33	5	2.4	5.0	0.0	5	33	31	0.0	5.0	2.4	2	2.059	0.000	D	33	5.0	183.381	184.105	186.165	186.167	0
2	22110309	42	Low	10.0	Precise	1	32	34	27	3.1	5.0	0.0	27	32	34	0.0	3.1	5.0	2	0.702	0.000	R	34	5.0	186.670	187.774	188.476	188.479	0
2	22110309	43	Low	10.0	Precise	1	32	30	21	3.1	4.3	0.0	30	32	21	4.3	3.1	0.0	1	2.624	0.000	D	32	3.1	188.981	190.517	193.141	193.143	0
2	22110309	44	Low	10.0	Precise	1	28	31	27	2.3	2.4	0.0	28	31	27	2.3	2.4	0.0	2	2.931	0.000	D	31	2.4	193.645	194.754	197.685	197.687	0
2	22110309	45	Low	10.0	Vague	2	30	34	15	4.3	5.0	0.0	34	15	30	5.0	0.0	4.3	2	0.849	0.001	L	34	5.0	198.190	198.788	199.637	199.639	0
2	22110309	46	Low	10.0	Vague	2	30	33	5	4.3	5.0	0.0	30	5	33	4.3	0.0	5.0	2	3.107	0.001	R	33	5.0	200.142	202.314	205.421	205.423	0
2	22110309	47	Low	10.0	Vague	2	34	33	7	5.0	5.0	0.0	34	7	33	5.0	0.0	5.0	1	0.845	0.001	L	34	5.0	205.926	208.464	209.309	209.311	0
2	22110309	48	Low	10.0	Vague	2	31	32	8	2.4	3.1	1.0	8	31	32	1.0	2.4	3.1	2	2.887	0.000	R	32	3.1	209.813	212.213	215.101	215.104	0
2	22110309	49	Low	10.0	Precise	1	32	30	36	3.1	4.3	0.0	30	32	36	4.3	3.1	0.0	2	2.213	0.000	L	30	4.3	215.606	217.592	219.805	219.807	0
2	22110309	50	Low	10.0	Vague	2	28	33	8	2.3	5.0	1.0	33	28	8	5.0	2.3	1.0	2	3.019	0.000	L	33	5.0	220.309	221.273	224.293	224.295	0
2	22110309	51	Low	10.0	Precise	1	32	34	21	3.1	5.0	0.0	21	34	32	0.0	5.0	3.1	2	1.260	0.000	D	34	5.0	224.798	227.120	228.381	228.383	0
2	22110309	52	Low	10.0	Vague	2	32	33	7	3.1	5.0	0.0	32	7	33	3.1	0.0	5.0	1	1.931	0.001	L	32	3.1	228.885	231.281	233.213	233.215	0
2	22110309	53	Low	10.0	Precise	1	31	33	24	2.4	5.0	0.0	33	24	31	5.0	0.0	2.4	2	3.011	0.001	L	33	5.0	233.718	235.953	238.965	238.967	0
2	22110309	54	Low	10.0	Vague	2	32	30	5	3.1	4.3	0.0	5	32	30	0.0	3.1	4.3	2	2.886	0.001	R	30	4.3	239.470	241.951	244.837	244.839	0
2	22110309	55	Low	10.0	Precise	1	28	33	21	2.3	5.0	0.0	21	33	28	0.0	5.0	2.3	2	2.272	0.001	D	33	5.0	245.342	247.756	250.029	250.031	0
2	22110309	56	Low	10.0	Precise	1	31	30	27	2.4	4.3	0.0	30	31	27	4.3	2.4	0.0	2	1.341	0.000	L	30	4.3	250.534	251.112	252.452	252.455	0
2	22110309	57	Low	10.0	Vague	2	28	32	5	2.3	3.1	0.0	5	32	28	0.0	3.1	2.3	2	2.307	0.000	D	32	3.1	252.958	253.681	255.988	255.991	0
2	22110309	58	Low	10.0	Precise	1	31	34	20	2.4	5.0	0.7	20	31	34	0.7	2.4	5.0	2	0.690	0.001	R	34	5.0	256.493	257.387	258.077	258.079	0
2	22110309	59	Low	10.0	Precise	1	31	32	36	2.4	3.1	0.0	36	31	32	0.0	2.4	3.1	2	2.210	0.000	R	32	3.1	258.581	260.314	262.525	262.527	0
2	22110309	60	Low	10.0	Vague	2	31	33	3	2.4	5.0	0.0	33	3	31	5.0	0.0	2.4	2	2.254	0.001	L	33	5.0	263.030	265.079	267.333	267.335	0
2	22110309	61	Low	10.0	Vague	2	34	33	15	5.0	5.0	0.0	33	34	15	5.0	5.0	0.0	1	0.971	0.000	D	34	5.0	295.109	296.993	297.965	297.967	0
2	22110309	62	Low	10.0	Precise	1	28	32	21	2.3	3.1	0.0	21	32	28	0.0	3.1	2.3	1	1.472	0.000	R	28	2.3	298.470	301.044	302.516	302.519	0
2	22110309	63	Low	10.0	Vague	2	32	30	7	3.1	4.3	0.0	7	32	30	0.0	3.1	4.3	2	1.442	0.001	R	30	4.3	303.021	305.667	307.109	307.111	0
2	22110309	64	Low	10.0	Precise	1	34	33	36	5.0	5.0	0.0	36	34	33	0.0	5.0	5.0	1	1.041	0.000	D	34	5.0	307.614	310.604	311.645	311.647	0
2	22110309	65	Low	10.0	Precise	1	32	33	27	3.1	5.0	0.0	32	27	33	3.1	0.0	5.0	2	2.614	0.000	R	33	5.0	312.149	313.390	316.004	316.007	0
2	22110309	66	Low	10.0	Vague	2	28	30	15	2.3	4.3	0.0	28	30	15	2.3	4.3	0.0	2	3.568	0.001	D	30	4.3	316.509	317.237	320.805	320.807	0
2	22110309	67	Low	10.0	Vague	2	28	30	7	2.3	4.3	0.0	30	7	28	4.3	0.0	2.3	2	2.366	0.000	L	30	4.3	321.309	324.175	326.541	326.543	0
2	22110309	68	Low	10.0	Vague	2	30	33	8	4.3	5.0	1.0	8	33	30	1.0	5.0	4.3	2	1.768	0.000	D	33	5.0	327.045	329.893	331.661	331.664	0
2	22110309	69	Low	10.0	Precise	1	28	30	22	2.3	4.3	2.1	30	22	28	4.3	2.1	2.3	2	1.694	0.000	L	30	4.3	332.166	334.175	335.868	335.871	0
2	22110309	70	Low	10.0	Precise	1	31	30	36	2.4	4.3	0.0	31	30	36	2.4	4.3	0.0	2	2.789	0.000	D	30	4.3	336.373	338.399	341.189	341.191	0
2	22110309	71	Low	10.0	Vague	2	30	34	5	4.3	5.0	0.0	30	5	34	4.3	0.0	5.0	2	0.731	0.000	R	34	5.0	341.693	343.162	343.892	343.895	0
2	22110309	72	Low	10.0	Vague	2	32	33	1	3.1	5.0	0.0	32	1	33	3.1	0.0	5.0	2	2.327	0.000	R	33	5.0	344.398	346.726	349.053	349.055	0
2	22110309	73	Low	10.0	Precise	1	32	33	22	3.1	5.0	2.1	33	32	22	5.0	3.1	2.1	2	2.349	0.000	L	33	5.0	349.558	351.096	353.445	353.447	0
2	22110309	74	Low	10.0	Vague	2	32	30	1	3.1	4.3	0.0	32	30	1	3.1	4.3	0.0	2	1.779	0.000	D	30	4.3	353.949	356.322	358.101	358.104	0
2	22110309	75	Low	10.0	Precise	1	30	34	24	4.3	5.0	0.0	30	24	34	4.3	0.0	5.0	2	0.971	0.000	R	34	5.0	358.606	359.154	360.125	360.127	0
2	22110309	76	Low	10.0	Vague	2	28	34	7	2.3	5.0	0.0	7	34	28	0.0	5.0	2.3	2	0.867	0.000	D	34	5.0	360.630	361.377	362.245	362.247	0
2	22110309	77	Low	10.0	Precise	1	28	32	22	2.3	3.1	2.1	22	28	32	2.1	2.3	3.1	2	1.856	0.000	R	32	3.1	362.749	363.780	365.636	365.639	0
2	22110309	78	Low	10.0	Precise	1	31	34	24	2.4	5.0	0.0	31	24	34	2.4	0.0	5.0	2	0.618	0.000	R	34	5.0	366.141	367.187	367.805	367.807	0
2	22110309	79	Low	10.0	Vague	2	28	31	15	2.3	2.4	0.0	31	15	28	2.4	0.0	2.3	2	2.369	0.000	L	31	2.4	368.309	370.108	372.477	372.479	0
2	22110309	80	Low	10.0	Vague	2	31	34	5	2.4	5.0	0.0	34	5	31	5.0	0.0	2.4	2	0.770	0.001	L	34	5.0	372.982	373.530	374.301	374.304	0
2	22110309	81	Low	10.0	Vague	2	28	33	1	2.3	5.0	0.0	1	33	28	0.0	5.0	2.3	2	2.916	0.000	D	33	5.0	374.806	377.417	380.333	380.335	0
2	22110309	82	Low	10.0	Vague	2	32	34	7	3.1	5.0	0.0	34	32	7	5.0	3.1	0.0	2	0.702	0.000	L	34	5.0	380.837	383.599	384.301	384.304	0
2	22110309	83	Low	10.0	Precise	1	28	33	20	2.3	5.0	0.7	33	28	20	5.0	2.3	0.7	2	2.414	0.000	L	33	5.0	384.806	386.391	388.805	388.807	0
2	22110309	84	Low	10.0	Precise	1	31	30	22	2.4	4.3	2.1	31	30	22	2.4	4.3	2.1	2	1.661	0.001	D	30	4.3	389.309	391.880	393.541	393.543	0
2	22110309	85	Low	10.0	Vague	2	32	33	15	3.1	5.0	0.0	33	32	15	5.0	3.1	0.0	2	1.916	0.000	L	33	5.0	394.046	394.785	396.701	396.704	0
2	22110309	86	Low	10.0	Precise	1	32	34	22	3.1	5.0	2.1	22	34	32	2.1	5.0	3.1	2	0.715	0.001	D	34	5.0	397.206	398.426	399.141	399.143	0
2	22110309	87	Low	10.0	Precise	1	30	33	22	4.3	5.0	2.1	33	30	22	5.0	4.3	2.1	2	2.907	0.001	L	33	5.0	399.646	400.554	403.461	403.463	0
2	22110309	88	Low	10.0	Vague	2	28	34	3	2.3	5.0	0.0	3	34	28	0.0	5.0	2.3	2	0.754	0.001	D	34	5.0	403.965	404.922	405.677	405.679	0
2	22110309	89	Low	10.0	Vague	2	30	33	3	4.3	5.0	0.0	30	33	3	4.3	5.0	0.0	2	1.647	0.000	D	33	5.0	406.182	408.621	410.269	410.271	0
2	22110309	90	Low	10.0	Precise	1	30	34	27	4.3	5.0	0.0	30	34	27	4.3	5.0	0.0	2	0.567	0.000	D	34	5.0	410.773	413.302	413.869	413.871	0
2	22110309	91	Low	10.0	Vague	2	28	34	1	2.3	5.0	0.0	34	1	28	5.0	0.0	2.3	2	0.764	0.000	L	34	5.0	414.373	414.928	415.692	415.695	0
2	22110309	92	Low	10.0	Vague	2	34	33	1	5.0	5.0	0.0	1	33	34	0.0	5.0	5.0	1	0.897	0.001	R	34	5.0	416.198	418.564	419.461	419.463	0
2	22110309	93	Low	10.0	Precise	1	31	33	20	2.4	5.0	0.7	31	33	20	2.4	5.0	0.7	2	1.685	0.000	D	33	5.0	419.966	421.951	423.637	423.639	0
2	22110309	94	Low	10.0	Precise	1	31	30	20	2.4	4.3	0.7	31	20	30	2.4	0.7	4.3	2	1.384	0.000	R	30	4.3	424.141	425.868	427.252	427.255	0
2	22110309	95	Low	10.0	Vague	2	32	30	15	3.1	4.3	0.0	30	32	15	4.3	3.1	0.0	2	2.016	0.000	L	30	4.3	427.758	428.973	430.988	430.991	0
2	22110309	96	Low	10.0	Precise	1	31	33	27	2.4	5.0	0.0	27	33	31	0.0	5.0	2.4	2	1.443	0.001	D	33	5.0	431.493	433.274	434.717	434.719	0
2	22110309	97	Low	10.0	Precise	1	28	34	27	2.3	5.0	0.0	28	27	34	2.3	0.0	5.0	2	0.684	0.000	R	34	5.0	435.222	436.561	437.244	437.247	0
2	22110309	98	Low	10.0	Vague	2	28	33	15	2.3	5.0	0.0	28	15	33	2.3	0.0	5.0	2	1.699	0.001	R	33	5.0	437.750	439.954	441.653	441.655	0
2	22110309	99	Low	10.0	Precise	1	34	33	27	5.0	5.0	0.0	34	27	33	5.0	0.0	5.0	1	0.913	0.000	L	34	5.0	442.157	443.580	444.493	444.495	0
2	22110309	100	Low	10.0	Precise	1	28	30	27	2.3	4.3	0.0	30	27	28	4.3	0.0	2.3	2	2.578	0.001	L	30	4.3	444.997	447.931	450.509	450.511	0
2	22110309	101	Low	10.0	Precise	1	31	32	24	2.4	3.1	0.0	24	31	32	0.0	2.4	3.1	1	2.806	0.001	D	31	2.4	451.014	452.998	455.805	455.807	0
2	22110309	102	Low	10.0	Precise	1	32	34	36	3.1	5.0	0.0	36	32	34	0.0	3.1	5.0	2	0.706	0.000	R	34	5.0	456.309	458.795	459.501	459.504	0
2	22110309	103	Low	10.0	Vague	2	28	31	1	2.3	2.4	0.0	31	1	28	2.4	0.0	2.3	2	1.867	0.001	L	31	2.4	460.006	462.113	463.981	463.983	0
2	22110309	104	Low	10.0	Vague	2	32	30	8	3.1	4.3	1.0	8	32	30	1.0	3.1	4.3	2	1.700	0.000	R	30	4.3	464.486	466.104	467.805	467.807	0
2	22110309	105	Low	10.0	Precise	1	28	32	27	2.3	3.1	0.0	28	32	27	2.3	3.1	0.0	2	2.353	0.001	D	32	3.1	468.309	470.988	473.341	473.343	0
2	22110309	106	Low	10.0	Precise	1	28	34	36	2.3	5.0	0.0	34	28	36	5.0	2.3	0.0	2	0.824	0.000	L	34	5.0	473.846	476.740	477.565	477.567	0
2	22110309	107	Low	10.0	Precise	1	28	33	22	2.3	5.0	2.1	22	33	28	2.1	5.0	2.3	2	1.923	0.000	D	33	5.0	478.069	479.610	481.533	481.535	0
2	22110309	108	Low	10.0	Vague	2	32	34	15	3.1	5.0	0.0	34	32	15	5.0	3.1	0.0	2	1.019	0.000	L	34	5.0	482.038	482.538	483.557	483.559	0
2	22110309	109	Low	10.0	Vague	2	30	34	7	4.3	5.0	0.0	7	34	30	0.0	5.0	4.3	2	0.855	0.000	D	34	5.0	484.061	485.454	486.309	486.311	0
2	22110309	110	Low	10.0	Vague	2	30	34	8	4.3	5.0	1.0	8	30	34	1.0	4.3	5.0	2	1.080	0.000	R	34	5.0	486.814	489.757	490.837	490.839	0
2	22110309	111	Low	10.0	Precise	1	31	33	36	2.4	5.0	0.0	33	31	36	5.0	2.4	0.0	2	1.511	0.000	L	33	5.0	491.342	493.421	494.933	494.935	0
2	22110309	112	Low	10.0	Vague	2	31	30	5	2.4	4.3	0.0	5	30	31	0.0	4.3	2.4	2	1.578	0.001	D	30	4.3	495.437	498.259	499.837	499.839	0
2	22110309	113	Low	10.0	Precise	1	32	30	20	3.1	4.3	0.7	20	32	30	0.7	3.1	4.3	2	1.508	0.000	R	30	4.3	500.342	501.488	502.996	502.999	0
2	22110309	114	Low	10.0	Precise	1	28	31	22	2.3	2.4	2.1	22	31	28	2.1	2.4	2.3	2	1.498	0.000	D	31	2.4	503.502	504.651	506.149	506.151	0
2	22110309	115	Low	10.0	Precise	1	30	34	21	4.3	5.0	0.0	21	30	34	0.0	4.3	5.0	2	0.653	0.001	R	34	5.0	506.654	508.496	509.149	509.151	0
2	22110309	116	Low	10.0	Precise	1	32	30	27	3.1	4.3	0.0	32	27	30	3.1	0.0	4.3	2	1.375	0.000	R	30	4.3	509.654	511.454	512.829	512.831	0
2	22110309	117	Low	10.0	Precise	1	28	34	24	2.3	5.0	0.0	34	24	28	5.0	0.0	2.3	2	0.658	0.000	L	34	5.0	513.334	513.938	514.597	514.599	0
2	22110309	118	Low	10.0	Vague	2	28	30	1	2.3	4.3	0.0	30	1	28	4.3	0.0	2.3	2	1.499	0.000	L	30	4.3	515.101	517.842	519.341	519.343	0
2	22110309	119	Low	10.0	Vague	2	28	34	15	2.3	5.0	0.0	15	28	34	0.0	2.3	5.0	2	0.634	0.000	R	34	5.0	519.846	522.083	522.717	522.719	0
2	22110309	120	Low	10.0	Vague	2	31	30	7	2.4	4.3	0.0	31	30	7	2.4	4.3	0.0	2	1.905	0.000	D	30	4.3	523.222	524.044	525.949	525.951	0
2	22110309	121	Low	10.0	Vague	2	32	33	5	3.1	5.0	0.0	33	32	5	5.0	3.1	0.0	2	2.167	0.001	L	33	5.0	549.591	551.766	553.933	553.935	0
2	22110309	122	Low	10.0	Vague	2	32	33	8	3.1	5.0	1.0	32	8	33	3.1	1.0	5.0	2	1.638	0.000	R	33	5.0	554.438	555.615	557.253	557.255	0
2	22110309	123	Low	10.0	Vague	2	30	34	3	4.3	5.0	0.0	30	34	3	4.3	5.0	0.0	2	0.970	0.000	D	34	5.0	557.758	559.819	560.789	560.791	0
2	22110309	124	Low	10.0	Vague	2	28	32	8	2.3	3.1	1.0	8	28	32	1.0	2.3	3.1	2	1.842	0.000	R	32	3.1	561.293	563.579	565.421	565.423	0
2	22110309	125	Low	10.0	Vague	2	31	30	1	2.4	4.3	0.0	31	30	1	2.4	4.3	0.0	2	1.226	0.001	D	30	4.3	565.926	568.339	569.565	569.567	0
2	22110309	126	Low	10.0	Vague	2	31	33	8	2.4	5.0	1.0	8	31	33	1.0	2.4	5.0	2	2.409	0.000	R	33	5.0	570.071	571.100	573.509	573.511	0
2	22110309	127	Low	10.0	Precise	1	32	34	24	3.1	5.0	0.0	24	32	34	0.0	3.1	5.0	2	0.627	0.000	R	34	5.0	574.014	575.969	576.597	576.599	0
2	22110309	128	Low	10.0	Precise	1	34	33	24	5.0	5.0	0.0	34	33	24	5.0	5.0	0.0	1	1.083	0.000	L	34	5.0	577.101	577.762	578.845	578.847	0
2	22110309	129	Low	10.0	Precise	1	28	30	36	2.3	4.3	0.0	30	28	36	4.3	2.3	0.0	2	1.582	0.000	L	30	4.3	579.349	580.566	582.149	582.151	0
2	22110309	130	Low	10.0	Vague	2	34	33	8	5.0	5.0	1.0	8	34	33	1.0	5.0	5.0	1	0.890	0.000	D	34	5.0	582.654	585.274	586.165	586.167	0
2	22110309	131	Low	10.0	Vague	2	34	33	5	5.0	5.0	0.0	5	34	33	0.0	5.0	5.0	1	0.794	0.000	D	34	5.0	586.669	587.995	588.789	588.791	0
2	22110309	132	Low	10.0	Precise	1	31	32	22	2.4	3.1	2.1	32	31	22	3.1	2.4	2.1	1	2.216	0.001	D	31	2.4	589.293	591.309	593.525	593.527	0
2	22110309	133	Low	10.0	Vague	2	31	30	15	2.4	4.3	0.0	15	30	31	0.0	4.3	2.4	2	1.835	0.001	D	30	4.3	594.030	595.754	597.589	597.591	0
2	22110309	134	Low	10.0	Vague	2	32	34	3	3.1	5.0	0.0	3	32	34	0.0	3.1	5.0	2	0.906	0.000	R	34	5.0	598.093	598.699	599.605	599.607	0
2	22110309	135	Low	10.0	Vague	2	32	34	1	3.1	5.0	0.0	1	32	34	0.0	3.1	5.0	2	0.632	0.001	R	34	5.0	600.109	602.749	603.381	603.383	0
2	22110309	136	Low	10.0	Precise	1	32	33	20	3.1	5.0	0.7	20	32	33	0.7	3.1	5.0	2	1.504	0.000	R	33	5.0	603.885	604.821	606.325	606.327	0
2	22110309	137	Low	10.0	Vague	2	28	32	3	2.3	3.1	0.0	3	32	28	0.0	3.1	2.3	2	2.702	0.000	D	32	3.1	606.830	609.575	612.277	612.279	0
2	22110309	138	Low	10.0	Precise	1	32	33	21	3.1	5.0	0.0	21	33	32	0.0	5.0	3.1	2	1.730	0.000	D	33	5.0	612.782	615.523	617.253	617.255	0
2	22110309	139	Low	10.0	Precise	1	31	33	22	2.4	5.0	2.1	22	33	31	2.1	5.0	2.4	2	3.548	0.000	D	33	5.0	617.758	620.329	623.877	623.879	0
2	22110309	140	Low	10.0	Precise	1	28	34	20	2.3	5.0	0.7	34	28	20	5.0	2.3	0.7	2	0.859	0.001	L	34	5.0	624.382	627.194	628.053	628.055	0
2	22110309	141	Low	10.0	Vague	2	28	31	5	2.3	2.4	0.0	31	28	5	2.4	2.3	0.0	2	2.390	0.001	L	31	2.4	628.558	629.167	631.557	631.559	0
2	22110309	142	Low	10.0	Vague	2	28	31	8	2.3	2.4	1.0	28	8	31	2.3	1.0	2.4	2	4.111	0.000	R	31	2.4	632.061	634.342	638.453	638.455	0
2	22110309	143	Low	10.0	Precise	1	30	34	22	4.3	5.0	2.1	34	22	30	5.0	2.1	4.3	2	1.156	0.000	L	34	5.0	638.957	640.305	641.461	641.463	0
2	22110309	144	Low	10.0	Precise	1	28	31	21	2.3	2.4	0.0	21	31	28	0.0	2.4	2.3	2	2.425	0.000	D	31	2.4	641.965	644.227	646.653	646.655	0
2	22110309	145	Low	10.0	Vague	2	31	33	7	2.4	5.0	0.0	31	7	33	2.4	0.0	5.0	2	1.455	0.000	R	33	5.0	647.158	650.061	651.517	651.519	0
2	22110309	146	Low	10.0	Precise	1	28	33	24	2.3	5.0	0.0	28	24	33	2.3	0.0	5.0	2	1.313	0.001	R	33	5.0	652.021	653.187	654.501	654.503	0
2	22110309	147	Low	10.0	Vague	2	31	34	3	2.4	5.0	0.0	3	34	31	0.0	5.0	2.4	2	0.908	0.000	D	34	5.0	655.006	656.393	657.301	657.303	0
2	22110309	148	Low	10.0	Vague	2	28	31	7	2.3	2.4	0.0	7	31	28	0.0	2.4	2.3	2	2.639	0.000	D	31	2.4	657.806	659.286	661.925	661.927	0
2	22110309	149	Low	10.0	Precise	1	30	33	24	4.3	5.0	0.0	30	33	24	4.3	5.0	0.0	1	1.374	0.000	L	30	4.3	662.430	663.927	665.301	665.303	0
2	22110309	150	Low	10.0	Precise	1	32	34	20	3.1	5.0	0.7	32	20	34	3.1	0.7	5.0	2	0.906	0.000	R	34	5.0	665.806	666.346	667.253	667.255	0
2	22110309	151	Low	10.0	Precise	1	28	32	36	2.3	3.1	0.0	28	36	32	2.3	0.0	3.1	1	3.978	0.000	L	28	2.3	667.757	668.883	672.861	672.863	0
2	22110309	152	Low	10.0	Vague	2	31	34	1	2.4	5.0	0.0	34	1	31	5.0	0.0	2.4	2	0.705	0.001	L	34	5.0	673.365	674.387	675.093	675.095	0
2	22110309	153	Low	10.0	Precise	1	28	31	24	2.3	2.4	0.0	28	24	31	2.3	0.0	2.4	2	1.626	0.000	R	31	2.4	675.598	678.403	680.029	680.031	0
2	22110309	154	Low	10.0	Vague	2	31	33	15	2.4	5.0	0.0	15	33	31	0.0	5.0	2.4	2	2.017	0.000	D	33	5.0	680.534	681.627	683.645	683.647	0
2	22110309	155	Low	10.0	Precise	1	32	30	22	3.1	4.3	2.1	30	22	32	4.3	2.1	3.1	2	2.111	0.000	L	30	4.3	684.150	685.814	687.925	687.927	0
2	22110309	156	Low	10.0	Precise	1	30	34	36	4.3	5.0	0.0	30	36	34	4.3	0.0	5.0	2	0.948	0.000	R	34	5.0	688.430	689.017	689.965	689.967	0
2	22110309	157	Low	10.0	Vague	2	31	34	7	2.4	5.0	0.0	31	7	34	2.4	0.0	5.0	2	0.683	0.000	R	34	5.0	690.470	691.410	692.093	692.095	0
2	22110309	158	Low	10.0	Vague	2	31	30	3	2.4	4.3	0.0	30	31	3	4.3	2.4	0.0	2	1.997	0.000	L	30	4.3	692.598	693.104	695.101	695.103	0
2	22110309	159	Low	10.0	Vague	2	28	30	3	2.3	4.3	0.0	30	3	28	4.3	0.0	2.3	2	1.128	0.000	L	30	4.3	695.606	697.645	698.773	698.775	0
2	22110309	160	Low	10.0	Precise	1	30	33	21	4.3	5.0	0.0	30	33	21	4.3	5.0	0.0	2	3.222	0.000	D	33	5.0	699.277	701.351	704.573	704.575	0
2	22110309	161	Low	10.0	Precise	1	28	30	24	2.3	4.3	0.0	28	30	24	2.3	4.3	0.0	2	1.389	0.000	D	30	4.3	705.078	706.240	707.629	707.631	0
2	22110309	162	Low	10.0	Vague	2	28	31	3	2.3	2.4	0.0	3	31	28	0.0	2.4	2.3	2	1.597	0.000	D	31	2.4	708.133	709.744	711.341	711.343	0
2	22110309	163	Low	10.0	Precise	1	31	32	20	2.4	3.1	0.7	20	32	31	0.7	3.1	2.4	1	0.673	0.000	R	31	2.4	711.845	712.956	713.629	713.631	0
2	22110309	164	Low	10.0	Vague	2	31	33	1	2.4	5.0	0.0	31	33	1	2.4	5.0	0.0	2	2.216	0.000	D	33	5.0	714.134	715.757	717.973	717.975	0
2	22110309	165	Low	10.0	Precise	1	31	34	36	2.4	5.0	0.0	34	31	36	5.0	2.4	0.0	2	0.705	0.000	L	34	5.0	718.477	720.060	720.765	720.767	0
2	22110309	166	Low	10.0	Precise	1	28	30	21	2.3	4.3	0.0	28	21	30	2.3	0.0	4.3	2	1.145	0.000	R	30	4.3	721.269	722.932	724.077	724.079	0
2	22110309	167	Low	10.0	Vague	2	34	33	3	5.0	5.0	0.0	33	3	34	5.0	0.0	5.0	1	0.772	0.000	R	34	5.0	724.581	727.168	727.941	727.943	0
2	22110309	168	Low	10.0	Vague	2	28	33	7	2.3	5.0	0.0	7	33	28	0.0	5.0	2.3	2	1.919	0.000	D	33	5.0	728.445	731.366	733.285	733.288	0
2	22110309	169	Low	10.0	Vague	2	28	34	8	2.3	5.0	1.0	28	34	8	2.3	5.0	1.0	2	0.667	0.001	D	34	5.0	733.790	734.890	735.557	735.559	0
2	22110309	170	Low	10.0	Vague	2	30	34	1	4.3	5.0	0.0	30	1	34	4.3	0.0	5.0	2	0.503	0.000	R	34	5.0	736.062	738.430	738.933	738.935	0
2	22110309	171	Low	10.0	Vague	2	31	32	7	2.4	3.1	0.0	31	7	32	2.4	0.0	3.1	1	1.559	0.001	L	31	2.4	739.438	740.838	742.397	742.399	0
2	22110309	172	Low	10.0	Vague	2	28	32	1	2.3	3.1	0.0	1	28	32	0.0	2.3	3.1	1	2.604	0.001	D	28	2.3	742.902	743.481	746.085	746.088	0
2	22110309	173	Low	10.0	Precise	1	28	30	20	2.3	4.3	0.7	28	30	20	2.3	4.3	0.7	2	1.276	0.001	D	30	4.3	746.590	747.377	748.653	748.655	0
2	22110309	174	Low	10.0	Vague	2	31	32	15	2.4	3.1	0.0	32	15	31	3.1	0.0	2.4	1	2.209	0.001	R	31	2.4	749.158	749.652	751.861	751.863	0
2	22110309	175	Low	10.0	Precise	1	31	30	21	2.4	4.3	0.0	30	31	21	4.3	2.4	0.0	2	2.247	0.001	L	30	4.3	752.366	754.638	756.885	756.888	0
2	22110309	176	Low	10.0	Vague	2	30	33	7	4.3	5.0	0.0	30	7	33	4.3	0.0	5.0	2	2.007	0.001	R	33	5.0	757.390	759.638	761.645	761.647	0
2	22110309	177	Low	10.0	Precise	1	28	31	20	2.3	2.4	0.7	28	31	20	2.3	2.4	0.7	2	3.174	0.000	D	31	2.4	762.150	763.183	766.357	766.360	0
2	22110309	178	Low	10.0	Precise	1	31	34	22	2.4	5.0	2.1	31	34	22	2.4	5.0	2.1	2	0.963	0.000	D	34	5.0	766.862	768.746	769.709	769.711	0
2	22110309	179	Low	10.0	Vague	2	31	34	8	2.4	5.0	1.0	8	34	31	1.0	5.0	2.4	2	0.763	0.000	D	34	5.0	770.214	772.250	773.013	773.015	0
2	22110309	180	Low	10.0	Precise	1	32	33	36	3.1	5.0	0.0	33	32	36	5.0	3.1	0.0	2	1.650	0.001	L	33	5.0	773.517	774.243	775.893	775.895	0
2	22110309	181	High	1.5	Vague	2	32	30	11	3.1	4.3	1.0	32	30	11	3.1	4.3	1.0	2	0.939	0.000	D	30	4.3	798.878	799.497	800.437	800.439	0
2	22110309	182	High	1.5	Vague	2	31	32	6	2.4	3.1	0.0	32	31	6	3.1	2.4	0.0	1	1.129	0.000	D	31	2.4	800.942	802.012	803.141	803.143	0
2	22110309	183	High	1.5	Precise	1	32	30	19	3.1	4.3	0.0	30	19	32	4.3	0.0	3.1	2	0.841	0.001	L	30	4.3	803.646	805.044	805.885	805.889	0
2	22110309	184	High	1.5	Vague	2	30	33	2	4.3	5.0	0.0	2	30	33	0.0	4.3	5.0	NaN	NaN	NaN	NaN	NaN	NaN	806.392	809.068	NaN	810.558	1
2	22110309	185	High	1.5	Vague	2	30	33	4	4.3	5.0	0.0	30	33	4	4.3	5.0	0.0	1	0.992	0.000	L	30	4.3	812.561	813.253	814.245	814.248	0
2	22110309	186	High	1.5	Vague	2	32	34	11	3.1	5.0	1.0	11	34	32	1.0	5.0	3.1	2	0.674	0.000	D	34	5.0	814.751	815.483	816.157	816.159	0
2	22110309	187	High	1.5	Precise	1	31	30	35	2.4	4.3	0.0	30	31	35	4.3	2.4	0.0	2	1.300	0.000	L	30	4.3	816.662	819.153	820.453	820.455	0
2	22110309	188	High	1.5	Precise	1	28	30	35	2.3	4.3	0.0	35	28	30	0.0	2.3	4.3	2	1.203	0.000	R	30	4.3	820.958	822.482	823.685	823.688	0
2	22110309	189	High	1.5	Precise	1	31	34	25	2.4	5.0	0.7	34	25	31	5.0	0.7	2.4	2	0.614	0.001	L	34	5.0	824.190	826.735	827.349	827.351	0
2	22110309	190	High	1.5	Precise	1	32	34	23	3.1	5.0	0.0	32	23	34	3.1	0.0	5.0	2	0.504	0.000	R	34	5.0	827.855	829.629	830.133	830.135	0
2	22110309	191	High	1.5	Precise	1	32	33	29	3.1	5.0	1.8	29	32	33	1.8	3.1	5.0	1	1.153	0.000	D	32	3.1	830.638	831.860	833.013	833.015	0
2	22110309	192	High	1.5	Precise	1	28	33	29	2.3	5.0	1.8	28	33	29	2.3	5.0	1.8	3	1.200	0.000	R	29	1.8	833.518	835.709	836.909	836.911	0
2	22110309	193	High	1.5	Vague	2	30	34	2	4.3	5.0	0.0	30	34	2	4.3	5.0	0.0	2	0.646	0.001	D	34	5.0	837.414	839.327	839.973	839.975	0
2	22110309	194	High	1.5	Vague	2	28	30	2	2.3	4.3	0.0	2	30	28	0.0	4.3	2.3	1	1.200	0.000	R	28	2.3	840.477	842.125	843.325	843.327	0
2	22110309	195	High	1.5	Vague	2	32	30	13	3.1	4.3	0.0	30	32	13	4.3	3.1	0.0	2	1.233	0.000	L	30	4.3	843.829	845.548	846.781	846.783	0
2	22110309	196	High	1.5	Vague	2	31	30	13	2.4	4.3	0.0	13	30	31	0.0	4.3	2.4	2	1.248	0.000	D	30	4.3	847.285	849.757	851.005	851.007	0
2	22110309	197	High	1.5	Vague	2	28	31	9	2.3	2.4	0.7	9	28	31	0.7	2.3	2.4	2	1.422	0.000	R	31	2.4	851.510	853.919	855.341	855.343	0
2	22110309	198	High	1.5	Precise	1	32	34	19	3.1	5.0	0.0	34	32	19	5.0	3.1	0.0	2	0.634	0.000	L	34	5.0	855.845	858.619	859.253	859.255	0
2	22110309	199	High	1.5	Vague	2	30	33	9	4.3	5.0	0.7	30	9	33	4.3	0.7	5.0	2	1.105	0.001	R	33	5.0	859.758	861.732	862.837	862.839	0
2	22110309	200	High	1.5	Precise	1	31	34	29	2.4	5.0	1.8	29	31	34	1.8	2.4	5.0	2	0.547	0.000	R	34	5.0	863.342	864.682	865.229	865.231	0
2	22110309	201	High	1.5	Precise	1	34	33	29	5.0	5.0	1.8	33	29	34	5.0	1.8	5.0	1	0.504	0.000	R	34	5.0	865.734	868.157	868.661	868.663	0
2	22110309	202	High	1.5	Vague	2	32	34	6	3.1	5.0	0.0	34	6	32	5.0	0.0	3.1	2	0.483	0.001	L	34	5.0	869.166	871.386	871.869	871.871	0
2	22110309	203	High	1.5	Precise	1	32	30	35	3.1	4.3	0.0	35	32	30	0.0	3.1	4.3	2	1.089	0.000	R	30	4.3	872.373	873.980	875.069	875.072	0
2	22110309	204	High	1.5	Vague	2	32	34	13	3.1	5.0	0.0	34	32	13	5.0	3.1	0.0	2	0.542	0.001	L	34	5.0	875.574	877.591	878.133	878.136	0
2	22110309	205	High	1.5	Vague	2	28	34	13	2.3	5.0	0.0	13	28	34	0.0	2.3	5.0	2	0.459	0.000	R	34	5.0	878.638	880.506	880.965	880.967	0
2	22110309	206	High	1.5	Precise	1	28	33	23	2.3	5.0	0.0	33	23	28	5.0	0.0	2.3	2	0.962	0.001	L	33	5.0	881.470	883.971	884.933	884.935	0
2	22110309	207	High	1.5	Vague	2	30	34	9	4.3	5.0	0.7	9	34	30	0.7	5.0	4.3	2	0.627	0.000	D	34	5.0	885.438	886.890	887.517	887.519	0
2	22110309	208	High	1.5	Vague	2	32	34	9	3.1	5.0	0.7	32	9	34	3.1	0.7	5.0	2	0.471	0.000	R	34	5.0	888.022	890.758	891.229	891.231	0
2	22110309	209	High	1.5	Vague	2	31	32	13	2.4	3.1	0.0	32	31	13	3.1	2.4	0.0	1	1.159	0.000	D	31	2.4	891.734	893.414	894.573	894.575	0
2	22110309	210	High	1.5	Vague	2	28	33	2	2.3	5.0	0.0	28	33	2	2.3	5.0	0.0	2	1.121	0.000	D	33	5.0	895.078	896.772	897.893	897.895	0
2	22110309	211	High	1.5	Vague	2	34	33	9	5.0	5.0	0.7	34	9	33	5.0	0.7	5.0	1	1.394	0.000	L	34	5.0	898.397	898.971	900.365	900.367	0
2	22110309	212	High	1.5	Precise	1	31	34	26	2.4	5.0	0.0	34	26	31	5.0	0.0	2.4	2	0.481	0.000	L	34	5.0	900.870	902.596	903.077	903.079	0
2	22110309	213	High	1.5	Precise	1	28	32	35	2.3	3.1	0.0	32	28	35	3.1	2.3	0.0	2	1.031	0.000	L	32	3.1	903.582	905.534	906.565	906.567	0
2	22110309	214	High	1.5	Precise	1	30	33	25	4.3	5.0	0.7	33	30	25	5.0	4.3	0.7	2	0.971	0.000	L	33	5.0	907.069	909.417	910.389	910.391	0
2	22110309	215	High	1.5	Precise	1	28	30	26	2.3	4.3	0.0	28	26	30	2.3	0.0	4.3	1	1.038	0.000	L	28	2.3	910.894	912.999	914.037	914.039	0
2	22110309	216	High	1.5	Vague	2	31	30	2	2.4	4.3	0.0	2	31	30	0.0	2.4	4.3	2	0.962	0.000	R	30	4.3	914.542	916.394	917.357	917.359	0
2	22110309	217	High	1.5	Vague	2	28	31	13	2.3	2.4	0.0	28	31	13	2.3	2.4	0.0	2	1.446	0.000	D	31	2.4	917.861	918.967	920.413	920.415	0
2	22110309	218	High	1.5	Precise	1	31	33	26	2.4	5.0	0.0	26	31	33	0.0	2.4	5.0	2	1.020	0.001	R	33	5.0	920.917	923.721	924.741	924.743	0
2	22110309	219	High	1.5	Vague	2	31	33	2	2.4	5.0	0.0	31	2	33	2.4	0.0	5.0	2	1.010	0.001	R	33	5.0	925.246	926.971	927.981	927.983	0
2	22110309	220	High	1.5	Precise	1	32	30	26	3.1	4.3	0.0	32	30	26	3.1	4.3	0.0	2	1.136	0.000	D	30	4.3	928.485	931.077	932.213	932.215	0
2	22110309	221	High	1.5	Precise	1	31	33	25	2.4	5.0	0.7	31	25	33	2.4	0.7	5.0	1	1.281	0.000	L	31	2.4	932.718	934.708	935.989	935.991	0
2	22110309	222	High	1.5	Precise	1	28	34	26	2.3	5.0	0.0	26	34	28	0.0	5.0	2.3	2	0.730	0.001	D	34	5.0	936.493	937.092	937.821	937.823	0
2	22110309	223	High	1.5	Precise	1	28	30	25	2.3	4.3	0.7	28	25	30	2.3	0.7	4.3	2	0.668	0.001	R	30	4.3	938.326	939.945	940.613	940.615	0
2	22110309	224	High	1.5	Precise	1	34	33	25	5.0	5.0	0.7	25	33	34	0.7	5.0	5.0	1	0.601	0.001	R	34	5.0	941.118	942.884	943.485	943.488	0
2	22110309	225	High	1.5	Vague	2	28	30	9	2.3	4.3	0.7	28	9	30	2.3	0.7	4.3	2	0.941	0.000	R	30	4.3	943.991	946.320	947.261	947.263	0
2	22110309	226	High	1.5	Precise	1	31	33	35	2.4	5.0	0.0	35	31	33	0.0	2.4	5.0	2	1.007	0.001	R	33	5.0	947.765	950.222	951.229	951.231	0
2	22110309	227	High	1.5	Precise	1	31	32	19	2.4	3.1	0.0	19	31	32	0.0	2.4	3.1	1	0.958	0.001	D	31	2.4	951.734	953.615	954.573	954.575	0
2	22110309	228	High	1.5	Vague	2	28	32	6	2.3	3.1	0.0	28	6	32	2.3	0.0	3.1	2	0.946	0.000	R	32	3.1	955.078	957.827	958.773	958.775	0
2	22110309	229	High	1.5	Precise	1	28	34	29	2.3	5.0	1.8	29	34	28	1.8	5.0	2.3	2	0.612	0.000	D	34	5.0	959.277	960.697	961.309	961.311	0
2	22110309	230	High	1.5	Precise	1	31	34	35	2.4	5.0	0.0	31	35	34	2.4	0.0	5.0	2	0.518	0.001	R	34	5.0	961.814	962.911	963.429	963.431	0
2	22110309	231	High	1.5	Vague	2	28	30	4	2.3	4.3	0.0	30	4	28	4.3	0.0	2.3	1	1.021	0.000	R	28	2.3	963.934	966.400	967.421	967.423	0
2	22110309	232	High	1.5	Vague	2	32	30	9	3.1	4.3	0.7	32	30	9	3.1	4.3	0.7	1	1.123	0.001	L	32	3.1	967.926	970.442	971.565	971.567	0
2	22110309	233	High	1.5	Precise	1	28	30	23	2.3	4.3	0.0	23	28	30	0.0	2.3	4.3	2	0.640	0.000	R	30	4.3	972.070	974.261	974.901	974.903	0
2	22110309	234	High	1.5	Precise	1	32	33	35	3.1	5.0	0.0	33	35	32	5.0	0.0	3.1	1	0.847	0.000	R	32	3.1	975.405	977.990	978.837	978.839	0
2	22110309	235	High	1.5	Precise	1	28	31	23	2.3	2.4	0.0	31	23	28	2.4	0.0	2.3	2	0.844	0.001	L	31	2.4	979.342	981.681	982.525	982.527	0
2	22110309	236	High	1.5	Vague	2	34	33	13	5.0	5.0	0.0	33	13	34	5.0	0.0	5.0	1	0.547	0.000	R	34	5.0	983.030	984.730	985.277	985.279	0
2	22110309	237	High	1.5	Precise	1	34	33	35	5.0	5.0	0.0	33	35	34	5.0	0.0	5.0	1	0.541	0.000	R	34	5.0	985.781	987.688	988.229	988.231	0
2	22110309	238	High	1.5	Vague	2	31	30	9	2.4	4.3	0.7	9	30	31	0.7	4.3	2.4	1	0.740	0.000	R	31	2.4	988.734	990.809	991.549	991.551	0
2	22110309	239	High	1.5	Vague	2	31	32	9	2.4	3.1	0.7	31	9	32	2.4	0.7	3.1	1	1.156	0.000	L	31	2.4	992.055	993.649	994.805	994.807	0
2	22110309	240	High	1.5	Precise	1	34	33	23	5.0	5.0	0.0	33	34	23	5.0	5.0	0.0	1	0.633	0.001	D	34	5.0	995.310	996.844	997.477	997.480	0
2	22110309	241	High	1.5	Vague	2	28	33	6	2.3	5.0	0.0	33	28	6	5.0	2.3	0.0	2	1.152	0.001	L	33	5.0	1019.873	1021.373	1022.525	1022.528	0
2	22110309	242	High	1.5	Precise	1	31	32	25	2.4	3.1	0.7	25	32	31	0.7	3.1	2.4	2	0.995	0.000	D	32	3.1	1023.030	1024.490	1025.485	1025.489	0
2	22110309	243	High	1.5	Precise	1	32	34	35	3.1	5.0	0.0	32	35	34	3.1	0.0	5.0	2	0.751	0.000	R	34	5.0	1025.991	1026.662	1027.413	1027.415	0
2	22110309	244	High	1.5	Precise	1	31	30	26	2.4	4.3	0.0	26	31	30	0.0	2.4	4.3	2	1.041	0.000	R	30	4.3	1027.918	1029.812	1030.853	1030.855	0
2	22110309	245	High	1.5	Precise	1	31	30	25	2.4	4.3	0.7	31	30	25	2.4	4.3	0.7	2	1.168	0.001	D	30	4.3	1031.358	1032.862	1034.029	1034.031	0
2	22110309	246	High	1.5	Precise	1	30	34	35	4.3	5.0	0.0	30	35	34	4.3	0.0	5.0	2	0.564	0.001	R	34	5.0	1034.534	1035.977	1036.541	1036.543	0
2	22110309	247	High	1.5	Vague	2	28	34	6	2.3	5.0	0.0	6	28	34	0.0	2.3	5.0	2	0.484	0.000	R	34	5.0	1037.046	1039.185	1039.669	1039.672	0
2	22110309	248	High	1.5	Precise	1	30	34	25	4.3	5.0	0.7	34	25	30	5.0	0.7	4.3	2	0.495	0.000	L	34	5.0	1040.174	1042.502	1042.997	1042.999	0
2	22110309	249	High	1.5	Precise	1	32	30	25	3.1	4.3	0.7	30	32	25	4.3	3.1	0.7	2	1.054	0.000	L	30	4.3	1043.502	1045.407	1046.461	1046.463	0
2	22110309	250	High	1.5	Vague	2	30	34	4	4.3	5.0	0.0	4	34	30	0.0	5.0	4.3	2	0.579	0.000	D	34	5.0	1046.966	1048.962	1049.541	1049.543	0
2	22110309	251	High	1.5	Vague	2	31	33	4	2.4	5.0	0.0	33	31	4	5.0	2.4	0.0	1	1.026	0.000	D	31	2.4	1050.046	1051.283	1052.309	1052.311	0
2	22110309	252	High	1.5	Vague	2	28	30	13	2.3	4.3	0.0	13	28	30	0.0	2.3	4.3	2	0.868	0.000	R	30	4.3	1052.814	1054.105	1054.973	1054.975	0
2	22110309	253	High	1.5	Vague	2	28	33	13	2.3	5.0	0.0	28	13	33	2.3	0.0	5.0	2	1.000	0.000	R	33	5.0	1055.478	1057.229	1058.229	1058.231	0
2	22110309	254	High	1.5	Precise	1	30	33	29	4.3	5.0	1.8	29	30	33	1.8	4.3	5.0	1	0.844	0.001	D	30	4.3	1058.733	1060.490	1061.333	1061.336	0
2	22110309	255	High	1.5	Precise	1	32	33	25	3.1	5.0	0.7	33	25	32	5.0	0.7	3.1	2	1.267	0.001	L	33	5.0	1061.838	1062.754	1064.021	1064.023	0
2	22110309	256	High	1.5	Vague	2	28	32	13	2.3	3.1	0.0	28	13	32	2.3	0.0	3.1	2	0.951	0.000	R	32	3.1	1064.526	1066.014	1066.965	1066.967	0
2	22110309	257	High	1.5	Precise	1	28	30	19	2.3	4.3	0.0	19	28	30	0.0	2.3	4.3	2	0.827	0.000	R	30	4.3	1067.470	1068.138	1068.965	1068.967	0
2	22110309	258	High	1.5	Vague	2	34	33	2	5.0	5.0	0.0	33	2	34	5.0	0.0	5.0	1	0.633	0.000	R	34	5.0	1069.470	1071.075	1071.709	1071.711	0
2	22110309	259	High	1.5	Vague	2	28	30	6	2.3	4.3	0.0	6	28	30	0.0	2.3	4.3	2	0.679	0.000	R	30	4.3	1072.214	1073.285	1073.965	1073.968	0
2	22110309	260	High	1.5	Vague	2	31	34	2	2.4	5.0	0.0	31	34	2	2.4	5.0	0.0	2	0.689	0.000	D	34	5.0	1074.470	1077.092	1077.781	1077.783	0
2	22110309	261	High	1.5	Vague	2	30	33	6	4.3	5.0	0.0	30	6	33	4.3	0.0	5.0	2	0.850	0.000	R	33	5.0	1078.285	1080.067	1080.917	1080.919	0
2	22110309	262	High	1.5	Precise	1	31	32	26	2.4	3.1	0.0	32	26	31	3.1	0.0	2.4	1	1.221	0.001	R	31	2.4	1081.422	1083.665	1084.885	1084.888	0
2	22110309	263	High	1.5	Vague	2	32	33	13	3.1	5.0	0.0	32	33	13	3.1	5.0	0.0	1	1.003	0.000	L	32	3.1	1085.391	1085.986	1086.989	1086.991	0
2	22110309	264	High	1.5	Precise	1	28	31	35	2.3	2.4	0.0	28	35	31	2.3	0.0	2.4	2	0.907	0.000	R	31	2.4	1087.494	1090.322	1091.229	1091.231	0
2	22110309	265	High	1.5	Vague	2	28	33	9	2.3	5.0	0.7	33	28	9	5.0	2.3	0.7	2	0.955	0.001	L	33	5.0	1091.734	1094.578	1095.533	1095.535	0
2	22110309	266	High	1.5	Precise	1	30	33	19	4.3	5.0	0.0	33	19	30	5.0	0.0	4.3	2	0.831	0.000	L	33	5.0	1096.038	1097.182	1098.013	1098.015	0
2	22110309	267	High	1.5	Precise	1	28	34	23	2.3	5.0	0.0	34	28	23	5.0	2.3	0.0	2	0.797	0.000	L	34	5.0	1098.517	1100.911	1101.709	1101.711	0
2	22110309	268	High	1.5	Precise	1	28	32	26	2.3	3.1	0.0	32	26	28	3.1	0.0	2.3	2	1.240	0.000	L	32	3.1	1102.214	1104.565	1105.805	1105.807	0
2	22110309	269	High	1.5	Precise	1	31	33	29	2.4	5.0	1.8	33	31	29	5.0	2.4	1.8	2	1.348	0.000	L	33	5.0	1106.310	1108.441	1109.789	1109.791	0
2	22110309	270	High	1.5	Precise	1	31	34	19	2.4	5.0	0.0	19	34	31	0.0	5.0	2.4	2	0.709	0.000	D	34	5.0	1110.294	1112.008	1112.717	1112.719	0
2	22110309	271	High	1.5	Precise	1	31	30	29	2.4	4.3	1.8	31	30	29	2.4	4.3	1.8	1	1.047	0.000	L	31	2.4	1113.222	1114.710	1115.757	1115.759	0
2	22110309	272	High	1.5	Vague	2	31	32	2	2.4	3.1	0.0	32	2	31	3.1	0.0	2.4	1	1.230	0.000	R	31	2.4	1116.261	1117.384	1118.613	1118.616	0
2	22110309	273	High	1.5	Vague	2	34	33	11	5.0	5.0	1.0	11	33	34	1.0	5.0	5.0	1	0.545	0.000	R	34	5.0	1119.118	1120.372	1120.917	1120.919	0
2	22110309	274	High	1.5	Precise	1	31	30	23	2.4	4.3	0.0	30	23	31	4.3	0.0	2.4	2	0.885	0.001	L	30	4.3	1121.422	1123.896	1124.781	1124.783	0
2	22110309	275	High	1.5	Precise	1	32	30	23	3.1	4.3	0.0	30	23	32	4.3	0.0	3.1	2	0.725	0.000	L	30	4.3	1125.285	1126.745	1127.469	1127.472	0
2	22110309	276	High	1.5	Precise	1	28	30	29	2.3	4.3	1.8	28	29	30	2.3	1.8	4.3	2	0.931	0.000	R	30	4.3	1127.974	1128.802	1129.733	1129.735	0
2	22110309	277	High	1.5	Precise	1	31	32	29	2.4	3.1	1.8	32	29	31	3.1	1.8	2.4	1	1.029	0.000	R	31	2.4	1130.238	1131.016	1132.045	1132.047	0
2	22110309	278	High	1.5	Vague	2	30	34	13	4.3	5.0	0.0	34	30	13	5.0	4.3	0.0	2	0.579	0.001	L	34	5.0	1132.550	1134.803	1135.381	1135.384	0
2	22110309	279	High	1.5	Precise	1	30	33	35	4.3	5.0	0.0	30	35	33	4.3	0.0	5.0	1	0.812	0.000	L	30	4.3	1135.886	1138.145	1138.957	1138.959	0
2	22110309	280	High	1.5	Precise	1	34	33	26	5.0	5.0	0.0	34	26	33	5.0	0.0	5.0	1	0.519	0.000	L	34	5.0	1139.462	1141.198	1141.717	1141.719	0
2	22110309	281	High	1.5	Precise	1	32	34	25	3.1	5.0	0.7	34	32	25	5.0	3.1	0.7	2	0.512	0.000	L	34	5.0	1142.222	1143.109	1143.621	1143.623	0
2	22110309	282	High	1.5	Vague	2	30	33	11	4.3	5.0	1.0	33	11	30	5.0	1.0	4.3	1	0.600	0.000	R	30	4.3	1144.126	1145.149	1145.749	1145.751	0
2	22110309	283	High	1.5	Precise	1	30	34	19	4.3	5.0	0.0	34	19	30	5.0	0.0	4.3	2	0.504	0.000	L	34	5.0	1146.255	1147.149	1147.653	1147.655	0
2	22110309	284	High	1.5	Precise	1	30	34	26	4.3	5.0	0.0	30	34	26	4.3	5.0	0.0	2	0.557	0.000	D	34	5.0	1148.158	1149.616	1150.173	1150.175	0
2	22110309	285	High	1.5	Precise	1	28	33	26	2.3	5.0	0.0	26	33	28	0.0	5.0	2.3	2	1.114	0.000	D	33	5.0	1150.678	1152.963	1154.077	1154.079	0
2	22110309	286	High	1.5	Vague	2	28	34	4	2.3	5.0	0.0	4	34	28	0.0	5.0	2.3	2	0.567	0.000	D	34	5.0	1154.582	1156.958	1157.525	1157.527	0
2	22110309	287	High	1.5	Vague	2	28	32	2	2.3	3.1	0.0	28	32	2	2.3	3.1	0.0	2	1.100	0.000	D	32	3.1	1158.030	1160.010	1161.109	1161.111	0
2	22110309	288	High	1.5	Precise	1	31	32	35	2.4	3.1	0.0	35	31	32	0.0	2.4	3.1	2	0.932	0.000	R	32	3.1	1161.614	1163.169	1164.101	1164.103	0
2	22110309	289	High	1.5	Precise	1	28	31	29	2.3	2.4	1.8	29	31	28	1.8	2.4	2.3	2	0.998	0.001	D	31	2.4	1164.606	1165.855	1166.853	1166.856	0
2	22110309	290	High	1.5	Precise	1	28	32	23	2.3	3.1	0.0	23	32	28	0.0	3.1	2.3	2	1.101	0.001	D	32	3.1	1167.358	1169.664	1170.765	1170.767	0
2	22110309	291	High	1.5	Vague	2	32	30	4	3.1	4.3	0.0	30	4	32	4.3	0.0	3.1	2	1.230	0.000	L	30	4.3	1171.270	1173.662	1174.893	1174.895	0
2	22110309	292	High	1.5	Vague	2	32	33	4	3.1	5.0	0.0	33	32	4	5.0	3.1	0.0	2	1.476	0.001	L	33	5.0	1175.398	1177.585	1179.061	1179.064	0
2	22110309	293	High	1.5	Vague	2	32	30	2	3.1	4.3	0.0	2	30	32	0.0	4.3	3.1	2	1.203	0.001	D	30	4.3	1179.566	1181.371	1182.573	1182.576	0
2	22110309	294	High	1.5	Vague	2	32	30	6	3.1	4.3	0.0	32	6	30	3.1	0.0	4.3	2	1.147	0.000	R	30	4.3	1183.078	1184.682	1185.829	1185.831	0
2	22110309	295	High	1.5	Precise	1	28	33	19	2.3	5.0	0.0	33	28	19	5.0	2.3	0.0	2	1.081	0.001	L	33	5.0	1186.334	1187.588	1188.669	1188.672	0
2	22110309	296	High	1.5	Precise	1	32	33	26	3.1	5.0	0.0	32	33	26	3.1	5.0	0.0	2	1.233	0.000	D	33	5.0	1189.174	1190.588	1191.821	1191.823	0
2	22110309	297	High	1.5	Vague	2	30	34	11	4.3	5.0	1.0	30	34	11	4.3	5.0	1.0	2	0.659	0.000	D	34	5.0	1192.326	1194.138	1194.797	1194.799	0
2	22110309	298	High	1.5	Vague	2	31	34	9	2.4	5.0	0.7	9	34	31	0.7	5.0	2.4	2	0.700	0.000	D	34	5.0	1195.302	1195.977	1196.677	1196.679	0
2	22110309	299	High	1.5	Vague	2	32	34	2	3.1	5.0	0.0	32	2	34	3.1	0.0	5.0	2	0.529	0.001	R	34	5.0	1197.182	1198.412	1198.941	1198.943	0
2	22110309	300	High	1.5	Vague	2	31	33	11	2.4	5.0	1.0	33	31	11	5.0	2.4	1.0	1	1.366	0.000	D	31	2.4	1199.446	1199.991	1201.357	1201.359	0
2	22110309	301	High	1.5	Vague	2	31	33	9	2.4	5.0	0.7	31	33	9	2.4	5.0	0.7	2	1.304	0.000	D	33	5.0	1212.959	1215.205	1216.509	1216.511	0
2	22110309	302	High	1.5	Vague	2	32	33	2	3.1	5.0	0.0	32	33	2	3.1	5.0	0.0	2	1.118	0.000	D	33	5.0	1217.014	1218.655	1219.773	1219.776	0
2	22110309	303	High	1.5	Vague	2	31	30	11	2.4	4.3	1.0	31	30	11	2.4	4.3	1.0	2	0.936	0.000	D	30	4.3	1220.278	1223.229	1224.165	1224.168	0
2	22110309	304	High	1.5	Vague	2	28	34	2	2.3	5.0	0.0	28	2	34	2.3	0.0	5.0	2	0.691	0.001	R	34	5.0	1224.670	1227.394	1228.085	1228.089	0
2	22110309	305	High	1.5	Vague	2	31	34	11	2.4	5.0	1.0	31	34	11	2.4	5.0	1.0	2	0.648	0.000	D	34	5.0	1228.591	1231.461	1232.109	1232.111	0
2	22110309	306	High	1.5	Precise	1	31	33	19	2.4	5.0	0.0	33	19	31	5.0	0.0	2.4	2	1.144	0.000	L	33	5.0	1232.614	1234.397	1235.541	1235.543	0
2	22110309	307	High	1.5	Vague	2	30	34	6	4.3	5.0	0.0	34	6	30	5.0	0.0	4.3	2	0.508	0.000	L	34	5.0	1236.045	1238.993	1239.501	1239.504	0
2	22110309	308	High	1.5	Vague	2	32	34	4	3.1	5.0	0.0	32	4	34	3.1	0.0	5.0	2	0.785	0.000	R	34	5.0	1240.006	1241.220	1242.005	1242.007	0
2	22110309	309	High	1.5	Precise	1	31	32	23	2.4	3.1	0.0	32	31	23	3.1	2.4	0.0	1	1.180	0.000	D	31	2.4	1242.510	1244.241	1245.421	1245.424	0
2	22110309	310	High	1.5	Vague	2	31	30	4	2.4	4.3	0.0	30	4	31	4.3	0.0	2.4	2	1.232	0.000	L	30	4.3	1245.926	1248.325	1249.557	1249.559	0
2	22110309	311	High	1.5	Precise	1	32	34	26	3.1	5.0	0.0	26	34	32	0.0	5.0	3.1	2	0.503	0.000	D	34	5.0	1250.062	1250.767	1251.269	1251.272	0
2	22110309	312	High	1.5	Precise	1	32	33	23	3.1	5.0	0.0	32	23	33	3.1	0.0	5.0	2	1.172	0.001	R	33	5.0	1251.774	1252.417	1253.589	1253.592	0
2	22110309	313	High	1.5	Vague	2	28	31	2	2.3	2.4	0.0	2	31	28	0.0	2.4	2.3	2	1.263	0.000	D	31	2.4	1254.094	1254.846	1256.109	1256.112	0
2	22110309	314	High	1.5	Vague	2	28	34	9	2.3	5.0	0.7	34	9	28	5.0	0.7	2.3	2	0.653	0.000	L	34	5.0	1256.614	1258.552	1259.205	1259.208	0
2	22110309	315	High	1.5	Precise	1	30	33	23	4.3	5.0	0.0	30	33	23	4.3	5.0	0.0	1	1.222	0.000	L	30	4.3	1259.710	1260.439	1261.661	1261.663	0
2	22110309	316	High	1.5	Vague	2	28	34	11	2.3	5.0	1.0	11	34	28	1.0	5.0	2.3	2	0.618	0.001	D	34	5.0	1262.166	1263.123	1263.741	1263.744	0
2	22110309	317	High	1.5	Vague	2	31	33	6	2.4	5.0	0.0	6	33	31	0.0	5.0	2.4	2	1.252	0.000	D	33	5.0	1264.246	1266.321	1267.573	1267.575	0
2	22110309	318	High	1.5	Vague	2	31	34	13	2.4	5.0	0.0	34	31	13	5.0	2.4	0.0	2	0.555	0.000	L	34	5.0	1268.077	1268.706	1269.261	1269.263	0
2	22110309	319	High	1.5	Precise	1	28	33	25	2.3	5.0	0.7	25	33	28	0.7	5.0	2.3	2	1.124	0.000	D	33	5.0	1269.766	1271.129	1272.253	1272.255	0
2	22110309	320	High	1.5	Vague	2	28	32	9	2.3	3.1	0.7	32	9	28	3.1	0.7	2.3	NaN	NaN	NaN	NaN	NaN	NaN	1272.758	1275.452	NaN	1276.942	1
2	22110309	321	High	1.5	Vague	2	32	33	9	3.1	5.0	0.7	32	33	9	3.1	5.0	0.7	2	1.250	0.000	D	33	5.0	1278.944	1279.659	1280.909	1280.911	0
2	22110309	322	High	1.5	Vague	2	28	33	4	2.3	5.0	0.0	28	4	33	2.3	0.0	5.0	2	1.030	0.000	R	33	5.0	1281.415	1283.991	1285.021	1285.023	0
2	22110309	323	High	1.5	Vague	2	28	32	4	2.3	3.1	0.0	4	28	32	0.0	2.3	3.1	NaN	NaN	NaN	NaN	NaN	NaN	1285.526	1287.883	NaN	1289.370	1
2	22110309	324	High	1.5	Vague	2	28	31	6	2.3	2.4	0.0	28	6	31	2.3	0.0	2.4	2	1.090	0.000	R	31	2.4	1291.373	1293.108	1294.197	1294.200	0
2	22110309	325	High	1.5	Precise	1	31	30	19	2.4	4.3	0.0	19	31	30	0.0	2.4	4.3	2	0.968	0.000	R	30	4.3	1294.702	1297.069	1298.037	1298.039	0
2	22110309	326	High	1.5	Precise	1	30	34	23	4.3	5.0	0.0	23	30	34	0.0	4.3	5.0	2	0.582	0.000	R	34	5.0	1298.542	1300.279	1300.861	1300.863	0
2	22110309	327	High	1.5	Precise	1	28	33	35	2.3	5.0	0.0	33	28	35	5.0	2.3	0.0	2	1.066	0.000	L	33	5.0	1301.365	1301.995	1303.061	1303.063	0
2	22110309	328	High	1.5	Precise	1	31	34	23	2.4	5.0	0.0	31	23	34	2.4	0.0	5.0	2	0.658	0.000	R	34	5.0	1303.566	1305.363	1306.021	1306.023	0
2	22110309	329	High	1.5	Precise	1	30	33	26	4.3	5.0	0.0	30	33	26	4.3	5.0	0.0	1	0.853	0.000	L	30	4.3	1306.526	1308.576	1309.429	1309.431	0
2	22110309	330	High	1.5	Vague	2	31	34	4	2.4	5.0	0.0	34	4	31	5.0	0.0	2.4	2	0.492	0.000	L	34	5.0	1309.934	1311.409	1311.901	1311.903	0
2	22110309	331	High	1.5	Precise	1	28	34	35	2.3	5.0	0.0	28	34	35	2.3	5.0	0.0	2	0.567	0.000	D	34	5.0	1312.406	1314.718	1315.285	1315.288	0
2	22110309	332	High	1.5	Precise	1	28	32	19	2.3	3.1	0.0	19	32	28	0.0	3.1	2.3	1	1.304	0.001	R	28	2.3	1315.790	1318.333	1319.637	1319.640	0
2	22110309	333	High	1.5	Precise	1	32	30	29	3.1	4.3	1.8	29	30	32	1.8	4.3	3.1	2	1.157	0.000	D	30	4.3	1320.142	1321.472	1322.629	1322.631	0
2	22110309	334	High	1.5	Vague	2	28	33	11	2.3	5.0	1.0	11	33	28	1.0	5.0	2.3	2	1.240	0.000	D	33	5.0	1323.134	1325.357	1326.597	1326.600	0
2	22110309	335	High	1.5	Precise	1	34	33	19	5.0	5.0	0.0	19	33	34	0.0	5.0	5.0	1	0.505	0.000	R	34	5.0	1327.102	1328.572	1329.077	1329.079	0
2	22110309	336	High	1.5	Precise	1	28	31	19	2.3	2.4	0.0	19	31	28	0.0	2.4	2.3	2	0.932	0.001	D	31	2.4	1329.582	1331.705	1332.637	1332.640	0
2	22110309	337	High	1.5	Vague	2	31	32	11	2.4	3.1	1.0	32	31	11	3.1	2.4	1.0	1	0.807	0.000	D	31	2.4	1333.142	1333.686	1334.493	1334.495	0
2	22110309	338	High	1.5	Precise	1	28	32	29	2.3	3.1	1.8	32	29	28	3.1	1.8	2.3	NaN	NaN	NaN	NaN	NaN	NaN	1334.998	1336.009	NaN	1337.496	1
2	22110309	339	High	1.5	Vague	2	31	30	6	2.4	4.3	0.0	6	31	30	0.0	2.4	4.3	2	1.122	0.000	R	30	4.3	1339.499	1340.027	1341.149	1341.152	0
2	22110309	340	High	1.5	Vague	2	31	32	4	2.4	3.1	0.0	31	4	32	2.4	0.0	3.1	1	1.138	0.000	L	31	2.4	1341.654	1342.931	1344.069	1344.072	0
2	22110309	341	High	1.5	Vague	2	32	33	11	3.1	5.0	1.0	33	32	11	5.0	3.1	1.0	2	0.974	0.000	L	33	5.0	1344.574	1346.775	1347.749	1347.752	0
2	22110309	342	High	1.5	Precise	1	28	34	19	2.3	5.0	0.0	28	34	19	2.3	5.0	0.0	2	0.604	0.001	D	34	5.0	1348.254	1349.881	1350.485	1350.488	0
2	22110309	343	High	1.5	Precise	1	32	34	29	3.1	5.0	1.8	34	29	32	5.0	1.8	3.1	2	0.626	0.000	L	34	5.0	1350.990	1352.715	1353.341	1353.343	0
2	22110309	344	High	1.5	Vague	2	34	33	4	5.0	5.0	0.0	34	33	4	5.0	5.0	0.0	1	0.574	0.001	L	34	5.0	1353.846	1356.008	1356.581	1356.584	0
2	22110309	345	High	1.5	Precise	1	28	31	26	2.3	2.4	0.0	31	26	28	2.4	0.0	2.3	2	1.123	0.001	L	31	2.4	1357.086	1358.171	1359.293	1359.295	0
2	22110309	346	High	1.5	Precise	1	32	33	19	3.1	5.0	0.0	33	32	19	5.0	3.1	0.0	NaN	NaN	NaN	NaN	NaN	NaN	1359.798	1361.283	NaN	1362.770	1
2	22110309	347	High	1.5	Vague	2	31	34	6	2.4	5.0	0.0	6	34	31	0.0	5.0	2.4	2	0.555	0.000	D	34	5.0	1364.774	1366.946	1367.501	1367.504	0
2	22110309	348	High	1.5	Precise	1	28	34	25	2.3	5.0	0.7	25	28	34	0.7	2.3	5.0	2	0.498	0.001	R	34	5.0	1368.006	1370.516	1371.013	1371.016	0
2	22110309	349	High	1.5	Vague	2	32	33	6	3.1	5.0	0.0	6	33	32	0.0	5.0	3.1	2	1.063	0.001	D	33	5.0	1371.518	1372.822	1373.885	1373.888	0
2	22110309	350	High	1.5	Vague	2	28	32	11	2.3	3.1	1.0	28	32	11	2.3	3.1	1.0	2	0.947	0.001	D	32	3.1	1374.390	1375.994	1376.941	1376.944	0
2	22110309	351	High	1.5	Precise	1	30	34	29	4.3	5.0	1.8	29	34	30	1.8	5.0	4.3	2	0.536	0.000	D	34	5.0	1377.446	1379.566	1380.101	1380.104	0
2	22110309	352	High	1.5	Vague	2	34	33	6	5.0	5.0	0.0	33	6	34	5.0	0.0	5.0	1	0.548	0.000	R	34	5.0	1380.606	1382.001	1382.549	1382.551	0
2	22110309	353	High	1.5	Vague	2	30	33	13	4.3	5.0	0.0	33	13	30	5.0	0.0	4.3	1	0.959	0.000	R	30	4.3	1383.054	1384.806	1385.765	1385.768	0
2	22110309	354	High	1.5	Vague	2	28	31	11	2.3	2.4	1.0	11	31	28	1.0	2.4	2.3	2	0.886	0.000	D	31	2.4	1386.270	1387.991	1388.877	1388.879	0
2	22110309	355	High	1.5	Vague	2	28	30	11	2.3	4.3	1.0	11	30	28	1.0	4.3	2.3	2	0.794	0.000	D	30	4.3	1389.382	1391.979	1392.773	1392.776	0
2	22110309	356	High	1.5	Precise	1	31	33	23	2.4	5.0	0.0	23	31	33	0.0	2.4	5.0	1	1.139	0.000	D	31	2.4	1393.278	1394.034	1395.173	1395.176	0
2	22110309	357	High	1.5	Precise	1	28	32	25	2.3	3.1	0.7	32	25	28	3.1	0.7	2.3	2	0.978	0.001	L	32	3.1	1395.678	1397.875	1398.853	1398.856	0
2	22110309	358	High	1.5	Vague	2	28	31	4	2.3	2.4	0.0	28	4	31	2.3	0.0	2.4	2	0.831	0.000	R	31	2.4	1399.358	1402.071	1402.901	1402.904	0
2	22110309	359	High	1.5	Precise	1	28	31	25	2.3	2.4	0.7	31	28	25	2.4	2.3	0.7	2	0.910	0.001	L	31	2.4	1403.406	1404.792	1405.701	1405.704	0
2	22110309	360	High	1.5	Vague	2	31	33	13	2.4	5.0	0.0	13	33	31	0.0	5.0	2.4	1	0.737	0.001	R	31	2.4	1406.206	1408.172	1408.909	1408.912	0
