Group	subID	trial	TimePressure	TimeConstraint	Vagueness	Vaguenesscode	ID1	ID2	ID3	V1	V2	V3	ID_left	ID_middle	ID_right	Bid_left	Bid_middle	Bid_right	chosenItem	RT	RTvariance	chosenPosition	chosenID	chosenValue	fixation_time	option_time	choice_time	feedback_time	timeout
2	22071911	1	Low	10.0	Precise	1	27	34	36	4.0	6.7	0.0	34	27	36	6.7	4.0	0.0	2	1.313	0.001	L	34	6.7	5.050	7.662	8.975	8.980	0
2	22071911	2	Low	10.0	Precise	1	26	33	36	3.4	5.4	0.0	36	33	26	0.0	5.4	3.4	2	3.320	0.001	D	33	5.4	9.484	12.152	15.472	15.474	0
2	22071911	3	Low	10.0	Precise	1	29	27	31	2.3	4.0	0.0	31	27	29	0.0	4.0	2.3	1	2.528	0.000	R	29	2.3	15.978	17.487	20.015	20.018	0
2	22071911	4	Low	10.0	Vague	2	27	33	6	4.0	5.4	0.0	33	6	27	5.4	0.0	4.0	1	1.326	0.000	R	27	4.0	20.521	21.585	22.911	22.914	0
2	22071911	5	Low	10.0	Vague	2	26	32	16	3.4	5.5	0.0	26	32	16	3.4	5.5	0.0	2	2.929	0.001	D	32	5.5	23.419	24.526	27.456	27.461	0
2	22071911	6	Low	10.0	Precise	1	26	27	31	3.4	4.0	0.0	26	31	27	3.4	0.0	4.0	1	2.356	0.001	L	26	3.4	27.966	28.875	31.232	31.234	0
2	22071911	7	Low	10.0	Precise	1	27	34	19	4.0	6.7	0.0	19	27	34	0.0	4.0	6.7	2	0.764	0.000	R	34	6.7	31.737	34.419	35.184	35.186	0
2	22071911	8	Low	10.0	Vague	2	29	34	6	2.3	6.7	0.0	34	29	6	6.7	2.3	0.0	2	0.739	0.000	L	34	6.7	35.690	38.652	39.391	39.394	0
2	22071911	9	Low	10.0	Vague	2	33	34	9	5.4	6.7	0.8	33	9	34	5.4	0.8	6.7	2	1.529	0.001	R	34	6.7	39.897	40.630	42.160	42.162	0
2	22071911	10	Low	10.0	Precise	1	27	33	21	4.0	5.4	0.0	21	33	27	0.0	5.4	4.0	2	1.698	0.001	D	33	5.4	42.665	45.582	47.280	47.282	0
2	22071911	11	Low	10.0	Precise	1	29	27	21	2.3	4.0	0.0	21	29	27	0.0	2.3	4.0	1	1.336	0.000	D	29	2.3	47.785	48.968	50.303	50.306	0
2	22071911	12	Low	10.0	Precise	1	26	27	23	3.4	4.0	0.0	23	26	27	0.0	3.4	4.0	2	1.206	0.001	R	27	4.0	50.808	52.266	53.472	53.474	0
2	22071911	13	Low	10.0	Precise	1	29	34	31	2.3	6.7	0.0	31	29	34	0.0	2.3	6.7	2	0.807	0.001	R	34	6.7	53.976	55.529	56.336	56.338	0
2	22071911	14	Low	10.0	Precise	1	33	32	19	5.4	5.5	0.0	33	32	19	5.4	5.5	0.0	2	0.962	0.001	D	32	5.5	56.841	57.918	58.880	58.882	0
2	22071911	15	Low	10.0	Vague	2	33	34	13	5.4	6.7	0.0	13	34	33	0.0	6.7	5.4	1	0.816	0.001	R	33	5.4	59.385	60.975	61.791	61.794	0
2	22071911	16	Low	10.0	Precise	1	29	32	36	2.3	5.5	0.0	29	32	36	2.3	5.5	0.0	2	1.718	0.000	D	32	5.5	62.297	62.890	64.607	64.610	0
2	22071911	17	Low	10.0	Precise	1	29	26	23	2.3	3.4	0.0	29	23	26	2.3	0.0	3.4	1	1.633	0.001	L	29	2.3	65.112	67.775	69.408	69.410	0
2	22071911	18	Low	10.0	Vague	2	26	34	4	3.4	6.7	0.6	4	34	26	0.6	6.7	3.4	2	1.344	0.001	D	34	6.7	69.912	70.768	72.112	72.114	0
2	22071911	19	Low	10.0	Precise	1	33	32	36	5.4	5.5	0.0	36	33	32	0.0	5.4	5.5	1	1.023	0.001	D	33	5.4	72.617	75.568	76.592	76.594	0
2	22071911	20	Low	10.0	Vague	2	26	32	4	3.4	5.5	0.6	4	26	32	0.6	3.4	5.5	2	1.336	0.000	R	32	5.5	77.097	80.071	81.407	81.410	0
2	22071911	21	Low	10.0	Precise	1	29	32	21	2.3	5.5	0.0	32	29	21	5.5	2.3	0.0	2	0.824	0.000	L	32	5.5	81.913	82.423	83.247	83.250	0
2	22071911	22	Low	10.0	Precise	1	27	34	23	4.0	6.7	0.0	27	23	34	4.0	0.0	6.7	2	0.970	0.000	R	34	6.7	83.753	86.549	87.519	87.522	0
2	22071911	23	Low	10.0	Vague	2	33	32	9	5.4	5.5	0.8	32	9	33	5.5	0.8	5.4	2	0.985	0.000	L	32	5.5	88.025	90.311	91.295	91.298	0
2	22071911	24	Low	10.0	Vague	2	33	32	16	5.4	5.5	0.0	16	33	32	0.0	5.4	5.5	1	1.077	0.000	D	33	5.4	91.801	92.410	93.488	93.490	0
2	22071911	25	Low	10.0	Vague	2	29	26	4	2.3	3.4	0.6	29	26	4	2.3	3.4	0.6	1	1.158	0.000	L	29	2.3	93.992	95.641	96.799	96.802	0
2	22071911	26	Low	10.0	Vague	2	26	32	3	3.4	5.5	0.0	3	32	26	0.0	5.5	3.4	2	0.780	0.001	D	32	5.5	97.304	98.419	99.199	99.202	0
2	22071911	27	Low	10.0	Precise	1	27	32	21	4.0	5.5	0.0	27	32	21	4.0	5.5	0.0	2	1.183	0.000	D	32	5.5	99.704	102.529	103.712	103.714	0
2	22071911	28	Low	10.0	Vague	2	26	32	13	3.4	5.5	0.0	13	26	32	0.0	3.4	5.5	1	0.859	0.001	D	26	3.4	104.217	105.172	106.031	106.034	0
2	22071911	29	Low	10.0	Vague	2	29	32	16	2.3	5.5	0.0	16	29	32	0.0	2.3	5.5	2	0.959	0.000	R	32	5.5	106.537	109.136	110.095	110.098	0
2	22071911	30	Low	10.0	Vague	2	26	27	4	3.4	4.0	0.6	26	27	4	3.4	4.0	0.6	1	1.658	0.000	L	26	3.4	110.601	112.518	114.175	114.178	0
2	22071911	31	Low	10.0	Vague	2	33	32	6	5.4	5.5	0.0	6	33	32	0.0	5.4	5.5	1	0.856	0.001	D	33	5.4	114.681	116.984	117.840	117.842	0
2	22071911	32	Low	10.0	Precise	1	26	32	19	3.4	5.5	0.0	32	26	19	5.5	3.4	0.0	2	1.889	0.000	L	32	5.5	118.345	119.902	121.791	121.794	0
2	22071911	33	Low	10.0	Precise	1	29	33	21	2.3	5.4	0.0	29	33	21	2.3	5.4	0.0	2	1.085	0.000	D	33	5.4	122.296	124.115	125.199	125.202	0
2	22071911	34	Low	10.0	Precise	1	26	32	21	3.4	5.5	0.0	26	21	32	3.4	0.0	5.5	2	0.877	0.001	R	32	5.5	125.706	126.771	127.648	127.650	0
2	22071911	35	Low	10.0	Vague	2	29	32	4	2.3	5.5	0.6	4	29	32	0.6	2.3	5.5	2	0.816	0.001	R	32	5.5	128.153	130.799	131.616	131.618	0
2	22071911	36	Low	10.0	Precise	1	32	34	23	5.5	6.7	0.0	23	32	34	0.0	5.5	6.7	1	0.921	0.001	D	32	5.5	132.120	134.055	134.976	134.978	0
2	22071911	37	Low	10.0	Vague	2	26	33	4	3.4	5.4	0.6	4	33	26	0.6	5.4	3.4	2	0.973	0.001	D	33	5.4	135.481	137.699	138.672	138.674	0
2	22071911	38	Low	10.0	Vague	2	26	34	6	3.4	6.7	0.0	6	34	26	0.0	6.7	3.4	2	0.927	0.000	D	34	6.7	139.177	141.824	142.751	142.754	0
2	22071911	39	Low	10.0	Vague	2	29	32	3	2.3	5.5	0.0	29	32	3	2.3	5.5	0.0	2	1.037	0.000	D	32	5.5	143.256	144.771	145.807	145.810	0
2	22071911	40	Low	10.0	Precise	1	26	27	19	3.4	4.0	0.0	27	26	19	4.0	3.4	0.0	2	1.005	0.001	L	27	4.0	146.312	148.514	149.520	149.523	0
2	22071911	41	Low	10.0	Precise	1	33	34	25	5.4	6.7	0.0	34	25	33	6.7	0.0	5.4	2	0.689	0.001	L	34	6.7	150.025	152.271	152.959	152.962	0
2	22071911	42	Low	10.0	Vague	2	29	32	13	2.3	5.5	0.0	32	29	13	5.5	2.3	0.0	2	0.979	0.000	L	32	5.5	153.465	154.653	155.631	155.634	0
2	22071911	43	Low	10.0	Vague	2	27	32	4	4.0	5.5	0.6	32	27	4	5.5	4.0	0.6	2	1.813	0.000	L	32	5.5	156.136	158.971	160.784	160.786	0
2	22071911	44	Low	10.0	Precise	1	29	34	23	2.3	6.7	0.0	29	23	34	2.3	0.0	6.7	2	1.268	0.001	R	34	6.7	161.289	162.635	163.904	163.906	0
2	22071911	45	Low	10.0	Vague	2	26	33	6	3.4	5.4	0.0	26	33	6	3.4	5.4	0.0	2	1.130	0.000	D	33	5.4	164.409	167.141	168.271	168.274	0
2	22071911	46	Low	10.0	Precise	1	32	34	31	5.5	6.7	0.0	32	31	34	5.5	0.0	6.7	2	0.851	0.001	R	34	6.7	168.777	169.837	170.688	170.690	0
2	22071911	47	Low	10.0	Vague	2	26	34	9	3.4	6.7	0.8	34	26	9	6.7	3.4	0.8	2	1.169	0.000	L	34	6.7	171.192	172.622	173.791	173.794	0
2	22071911	48	Low	10.0	Vague	2	29	26	6	2.3	3.4	0.0	29	6	26	2.3	0.0	3.4	1	2.085	0.000	L	29	2.3	174.297	176.506	178.591	178.594	0
2	22071911	49	Low	10.0	Precise	1	29	33	23	2.3	5.4	0.0	33	23	29	5.4	0.0	2.3	2	1.283	0.001	L	33	5.4	179.097	179.773	181.056	181.058	0
2	22071911	50	Low	10.0	Precise	1	27	34	31	4.0	6.7	0.0	34	27	31	6.7	4.0	0.0	2	0.868	0.001	L	34	6.7	181.561	182.668	183.536	183.538	0
2	22071911	51	Low	10.0	Precise	1	26	33	25	3.4	5.4	0.0	33	25	26	5.4	0.0	3.4	2	1.132	0.001	L	33	5.4	184.040	185.635	186.768	186.770	0
2	22071911	52	Low	10.0	Precise	1	27	32	19	4.0	5.5	0.0	32	19	27	5.5	0.0	4.0	2	0.666	0.001	L	32	5.5	187.273	189.749	190.415	190.418	0
2	22071911	53	Low	10.0	Vague	2	29	33	6	2.3	5.4	0.0	6	33	29	0.0	5.4	2.3	2	1.238	0.001	D	33	5.4	190.920	193.770	195.008	195.010	0
2	22071911	54	Low	10.0	Vague	2	33	34	16	5.4	6.7	0.0	33	16	34	5.4	0.0	6.7	1	1.163	0.000	L	33	5.4	195.512	197.973	199.135	199.138	0
2	22071911	55	Low	10.0	Precise	1	27	33	36	4.0	5.4	0.0	36	27	33	0.0	4.0	5.4	2	0.912	0.001	R	33	5.4	199.641	201.519	202.432	202.434	0
2	22071911	56	Low	10.0	Precise	1	26	32	31	3.4	5.5	0.0	31	26	32	0.0	3.4	5.5	2	1.064	0.000	R	32	5.5	202.936	204.360	205.424	205.426	0
2	22071911	57	Low	10.0	Precise	1	29	26	36	2.3	3.4	0.0	36	26	29	0.0	3.4	2.3	1	1.197	0.001	R	29	2.3	205.928	208.770	209.967	209.970	0
2	22071911	58	Low	10.0	Precise	1	29	27	25	2.3	4.0	0.0	29	27	25	2.3	4.0	0.0	1	0.723	0.001	L	29	2.3	210.473	212.172	212.895	212.898	0
2	22071911	59	Low	10.0	Vague	2	29	33	4	2.3	5.4	0.6	4	29	33	0.6	2.3	5.4	2	1.252	0.001	R	33	5.4	213.401	213.931	215.184	215.187	0
2	22071911	60	Low	10.0	Vague	2	26	33	16	3.4	5.4	0.0	33	26	16	5.4	3.4	0.0	2	0.983	0.001	L	33	5.4	215.690	216.425	217.408	217.410	0
2	22071911	61	Low	10.0	Vague	2	29	34	13	2.3	6.7	0.0	34	13	29	6.7	0.0	2.3	2	0.831	0.000	L	34	6.7	238.654	240.432	241.263	241.266	0
2	22071911	62	Low	10.0	Vague	2	29	27	9	2.3	4.0	0.8	27	29	9	4.0	2.3	0.8	1	0.870	0.001	D	29	2.3	241.768	243.353	244.223	244.226	0
2	22071911	63	Low	10.0	Vague	2	29	27	6	2.3	4.0	0.0	29	27	6	2.3	4.0	0.0	1	1.332	0.000	L	29	2.3	244.729	246.155	247.487	247.490	0
2	22071911	64	Low	10.0	Vague	2	29	26	3	2.3	3.4	0.0	26	3	29	3.4	0.0	2.3	1	1.575	0.000	R	29	2.3	247.993	250.696	252.271	252.274	0
2	22071911	65	Low	10.0	Precise	1	27	34	21	4.0	6.7	0.0	21	34	27	0.0	6.7	4.0	2	0.915	0.000	D	34	6.7	252.777	254.940	255.855	255.858	0
2	22071911	66	Low	10.0	Precise	1	26	34	21	3.4	6.7	0.0	21	34	26	0.0	6.7	3.4	2	0.809	0.000	D	34	6.7	256.360	257.670	258.479	258.482	0
2	22071911	67	Low	10.0	Vague	2	33	32	4	5.4	5.5	0.6	4	33	32	0.6	5.4	5.5	1	1.253	0.001	D	33	5.4	258.984	261.450	262.704	262.706	0
2	22071911	68	Low	10.0	Vague	2	26	33	3	3.4	5.4	0.0	26	33	3	3.4	5.4	0.0	2	0.731	0.001	D	33	5.4	263.208	265.076	265.808	265.810	0
2	22071911	69	Low	10.0	Vague	2	32	34	4	5.5	6.7	0.6	4	32	34	0.6	5.5	6.7	1	0.780	0.001	D	32	5.5	266.312	268.787	269.567	269.570	0
2	22071911	70	Low	10.0	Precise	1	26	34	23	3.4	6.7	0.0	26	23	34	3.4	0.0	6.7	2	0.785	0.001	R	34	6.7	270.072	272.702	273.488	273.490	0
2	22071911	71	Low	10.0	Vague	2	29	33	3	2.3	5.4	0.0	29	3	33	2.3	0.0	5.4	1	1.078	0.001	L	29	2.3	273.993	276.586	277.664	277.666	0
2	22071911	72	Low	10.0	Precise	1	29	26	25	2.3	3.4	0.0	29	25	26	2.3	0.0	3.4	1	0.594	0.001	L	29	2.3	278.168	279.550	280.144	280.146	0
2	22071911	73	Low	10.0	Vague	2	27	32	6	4.0	5.5	0.0	27	32	6	4.0	5.5	0.0	2	0.705	0.001	D	32	5.5	280.650	283.519	284.224	284.226	0
2	22071911	74	Low	10.0	Vague	2	27	33	9	4.0	5.4	0.8	33	27	9	5.4	4.0	0.8	2	1.035	0.000	L	33	5.4	284.729	285.381	286.416	286.418	0
2	22071911	75	Low	10.0	Precise	1	29	26	31	2.3	3.4	0.0	31	26	29	0.0	3.4	2.3	1	1.166	0.000	R	29	2.3	286.922	288.354	289.520	289.522	0
2	22071911	76	Low	10.0	Precise	1	33	34	31	5.4	6.7	0.0	31	33	34	0.0	5.4	6.7	2	0.895	0.001	R	34	6.7	290.024	292.800	293.696	293.698	0
2	22071911	77	Low	10.0	Vague	2	29	26	13	2.3	3.4	0.0	26	29	13	3.4	2.3	0.0	1	1.166	0.000	D	29	2.3	294.201	296.977	298.143	298.146	0
2	22071911	78	Low	10.0	Vague	2	29	34	4	2.3	6.7	0.6	29	34	4	2.3	6.7	0.6	2	0.846	0.000	D	34	6.7	298.649	299.473	300.319	300.322	0
2	22071911	79	Low	10.0	Precise	1	26	32	25	3.4	5.5	0.0	26	25	32	3.4	0.0	5.5	2	1.403	0.001	R	32	5.5	300.825	301.412	302.816	302.818	0
2	22071911	80	Low	10.0	Precise	1	29	32	19	2.3	5.5	0.0	32	19	29	5.5	0.0	2.3	2	0.867	0.000	L	32	5.5	303.321	304.108	304.975	304.978	0
2	22071911	81	Low	10.0	Precise	1	29	34	19	2.3	6.7	0.0	19	29	34	0.0	2.3	6.7	2	0.648	0.001	R	34	6.7	305.480	307.704	308.352	308.354	0
2	22071911	82	Low	10.0	Precise	1	29	34	36	2.3	6.7	0.0	29	36	34	2.3	0.0	6.7	2	0.521	0.001	R	34	6.7	308.857	310.023	310.544	310.546	0
2	22071911	83	Low	10.0	Precise	1	26	34	19	3.4	6.7	0.0	19	26	34	0.0	3.4	6.7	2	0.411	0.001	R	34	6.7	311.048	311.877	312.288	312.290	0
2	22071911	84	Low	10.0	Vague	2	27	34	4	4.0	6.7	0.6	4	34	27	0.6	6.7	4.0	2	0.698	0.000	D	34	6.7	312.793	314.006	314.703	314.706	0
2	22071911	85	Low	10.0	Precise	1	29	34	25	2.3	6.7	0.0	29	25	34	2.3	0.0	6.7	2	0.474	0.000	R	34	6.7	315.209	316.582	317.056	317.058	0
2	22071911	86	Low	10.0	Precise	1	27	34	25	4.0	6.7	0.0	27	25	34	4.0	0.0	6.7	2	0.369	0.001	R	34	6.7	317.561	318.223	318.592	318.594	0
2	22071911	87	Low	10.0	Precise	1	29	26	21	2.3	3.4	0.0	21	26	29	0.0	3.4	2.3	1	0.704	0.001	R	29	2.3	319.096	320.816	321.520	321.522	0
2	22071911	88	Low	10.0	Precise	1	33	32	25	5.4	5.5	0.0	33	32	25	5.4	5.5	0.0	2	0.659	0.001	D	32	5.5	322.026	323.820	324.480	324.482	0
2	22071911	89	Low	10.0	Vague	2	32	34	6	5.5	6.7	0.0	32	6	34	5.5	0.0	6.7	1	1.203	0.000	L	32	5.5	324.984	325.965	327.168	327.170	0
2	22071911	90	Low	10.0	Vague	2	29	33	13	2.3	5.4	0.0	29	13	33	2.3	0.0	5.4	2	1.117	0.000	R	33	5.4	327.673	329.858	330.975	330.978	0
2	22071911	91	Low	10.0	Vague	2	27	33	16	4.0	5.4	0.0	27	33	16	4.0	5.4	0.0	2	0.669	0.000	D	33	5.4	331.481	332.995	333.663	333.666	0
2	22071911	92	Low	10.0	Vague	2	26	27	3	3.4	4.0	0.0	27	26	3	4.0	3.4	0.0	2	1.265	0.000	L	27	4.0	334.169	335.822	337.087	337.090	0
2	22071911	93	Low	10.0	Precise	1	27	33	31	4.0	5.4	0.0	33	27	31	5.4	4.0	0.0	2	0.862	0.001	L	33	5.4	337.593	340.578	341.440	341.442	0
2	22071911	94	Low	10.0	Vague	2	29	34	16	2.3	6.7	0.0	29	34	16	2.3	6.7	0.0	1	0.903	0.000	L	29	2.3	341.944	344.744	345.648	345.650	0
2	22071911	95	Low	10.0	Vague	2	27	32	3	4.0	5.5	0.0	3	32	27	0.0	5.5	4.0	2	0.808	0.000	D	32	5.5	346.152	347.495	348.303	348.306	0
2	22071911	96	Low	10.0	Vague	2	33	32	3	5.4	5.5	0.0	3	33	32	0.0	5.4	5.5	1	1.093	0.001	D	33	5.4	348.808	351.274	352.368	352.370	0
2	22071911	97	Low	10.0	Vague	2	26	34	13	3.4	6.7	0.0	34	26	13	6.7	3.4	0.0	2	0.731	0.000	L	34	6.7	352.872	355.829	356.560	356.562	0
2	22071911	98	Low	10.0	Vague	2	33	34	6	5.4	6.7	0.0	34	33	6	6.7	5.4	0.0	2	0.564	0.000	L	34	6.7	357.065	358.540	359.104	359.106	0
2	22071911	99	Low	10.0	Vague	2	29	33	9	2.3	5.4	0.8	33	29	9	5.4	2.3	0.8	1	1.195	0.001	D	29	2.3	359.609	361.652	362.848	362.850	0
2	22071911	100	Low	10.0	Vague	2	29	27	16	2.3	4.0	0.0	16	27	29	0.0	4.0	2.3	1	0.768	0.000	R	29	2.3	363.352	365.583	366.351	366.354	0
2	22071911	101	Low	10.0	Precise	1	26	27	25	3.4	4.0	0.0	27	26	25	4.0	3.4	0.0	2	1.163	0.001	L	27	4.0	366.856	367.492	368.656	368.659	0
2	22071911	102	Low	10.0	Vague	2	29	32	9	2.3	5.5	0.8	29	9	32	2.3	0.8	5.5	2	0.956	0.001	R	32	5.5	369.161	370.804	371.760	371.762	0
2	22071911	103	Low	10.0	Precise	1	29	27	23	2.3	4.0	0.0	23	29	27	0.0	2.3	4.0	1	0.976	0.000	D	29	2.3	372.265	375.039	376.016	376.018	0
2	22071911	104	Low	10.0	Vague	2	27	34	3	4.0	6.7	0.0	3	34	27	0.0	6.7	4.0	2	0.758	0.001	D	34	6.7	376.521	379.082	379.840	379.842	0
2	22071911	105	Low	10.0	Precise	1	29	33	25	2.3	5.4	0.0	33	25	29	5.4	0.0	2.3	2	1.484	0.001	L	33	5.4	380.344	381.955	383.440	383.442	0
2	22071911	106	Low	10.0	Precise	1	27	32	25	4.0	5.5	0.0	32	27	25	5.5	4.0	0.0	2	0.570	0.000	L	32	5.5	383.946	386.597	387.167	387.170	0
2	22071911	107	Low	10.0	Precise	1	29	33	19	2.3	5.4	0.0	33	29	19	5.4	2.3	0.0	1	0.832	0.001	D	29	2.3	387.673	389.040	389.872	389.874	0
2	22071911	108	Low	10.0	Vague	2	26	27	16	3.4	4.0	0.0	26	16	27	3.4	0.0	4.0	2	1.666	0.001	R	27	4.0	390.377	392.301	393.968	393.970	0
2	22071911	109	Low	10.0	Precise	1	27	33	25	4.0	5.4	0.0	25	33	27	0.0	5.4	4.0	2	0.851	0.001	D	33	5.4	394.473	395.821	396.672	396.674	0
2	22071911	110	Low	10.0	Precise	1	33	32	23	5.4	5.5	0.0	32	33	23	5.5	5.4	0.0	1	0.499	0.001	D	33	5.4	397.176	398.893	399.392	399.394	0
2	22071911	111	Low	10.0	Precise	1	26	34	31	3.4	6.7	0.0	26	34	31	3.4	6.7	0.0	2	0.983	0.001	D	34	6.7	399.897	402.664	403.648	403.650	0
2	22071911	112	Low	10.0	Vague	2	26	33	13	3.4	5.4	0.0	26	13	33	3.4	0.0	5.4	2	0.888	0.000	R	33	5.4	404.153	406.264	407.152	407.154	0
2	22071911	113	Low	10.0	Precise	1	29	32	25	2.3	5.5	0.0	25	32	29	0.0	5.5	2.3	2	1.106	0.000	D	32	5.5	407.656	410.541	411.648	411.650	0
2	22071911	114	Low	10.0	Precise	1	26	33	21	3.4	5.4	0.0	26	21	33	3.4	0.0	5.4	2	0.748	0.000	R	33	5.4	412.152	412.852	413.600	413.602	0
2	22071911	115	Low	10.0	Precise	1	26	34	25	3.4	6.7	0.0	34	25	26	6.7	0.0	3.4	2	0.651	0.001	L	34	6.7	414.104	414.612	415.264	415.266	0
2	22071911	116	Low	10.0	Vague	2	29	34	3	2.3	6.7	0.0	3	34	29	0.0	6.7	2.3	2	1.538	0.001	D	34	6.7	415.768	417.549	419.088	419.090	0
2	22071911	117	Low	10.0	Precise	1	33	32	21	5.4	5.5	0.0	32	33	21	5.5	5.4	0.0	1	0.767	0.001	D	33	5.4	419.592	422.256	423.024	423.026	0
2	22071911	118	Low	10.0	Vague	2	29	27	13	2.3	4.0	0.0	29	27	13	2.3	4.0	0.0	1	1.118	0.000	L	29	2.3	423.529	424.753	425.871	425.874	0
2	22071911	119	Low	10.0	Vague	2	32	34	9	5.5	6.7	0.8	34	9	32	6.7	0.8	5.5	2	1.432	0.001	L	34	6.7	426.377	428.888	430.320	430.322	0
2	22071911	120	Low	10.0	Vague	2	33	32	13	5.4	5.5	0.0	13	33	32	0.0	5.4	5.5	1	1.457	0.000	D	33	5.4	430.825	431.695	433.152	433.154	0
2	22071911	121	Low	10.0	Vague	2	27	33	3	4.0	5.4	0.0	33	27	3	5.4	4.0	0.0	2	1.217	0.000	L	33	5.4	448.878	451.647	452.863	452.866	0
2	22071911	122	Low	10.0	Vague	2	33	34	4	5.4	6.7	0.6	34	4	33	6.7	0.6	5.4	1	0.975	0.001	R	33	5.4	453.369	456.257	457.232	457.234	0
2	22071911	123	Low	10.0	Precise	1	26	27	36	3.4	4.0	0.0	36	26	27	0.0	3.4	4.0	2	1.187	0.000	R	27	4.0	457.738	459.836	461.024	461.026	0
2	22071911	124	Low	10.0	Precise	1	32	34	25	5.5	6.7	0.0	34	25	32	6.7	0.0	5.5	1	0.816	0.001	R	32	5.5	461.528	462.032	462.848	462.850	0
2	22071911	125	Low	10.0	Precise	1	26	27	21	3.4	4.0	0.0	26	21	27	3.4	0.0	4.0	2	1.435	0.000	R	27	4.0	463.352	464.644	466.080	466.082	0
2	22071911	126	Low	10.0	Vague	2	29	33	16	2.3	5.4	0.0	16	29	33	0.0	2.3	5.4	2	1.101	0.001	R	33	5.4	466.585	467.282	468.384	468.386	0
2	22071911	127	Low	10.0	Vague	2	26	33	9	3.4	5.4	0.8	9	33	26	0.8	5.4	3.4	2	0.794	0.001	D	33	5.4	468.888	469.830	470.624	470.626	0
2	22071911	128	Low	10.0	Vague	2	26	27	6	3.4	4.0	0.0	27	6	26	4.0	0.0	3.4	1	1.095	0.000	R	26	3.4	471.129	473.160	474.255	474.258	0
2	22071911	129	Low	10.0	Precise	1	33	32	31	5.4	5.5	0.0	33	32	31	5.4	5.5	0.0	2	0.800	0.001	D	32	5.5	474.761	475.423	476.224	476.226	0
2	22071911	130	Low	10.0	Precise	1	29	33	31	2.3	5.4	0.0	29	33	31	2.3	5.4	0.0	2	0.798	0.001	D	33	5.4	476.729	479.618	480.416	480.418	0
2	22071911	131	Low	10.0	Precise	1	29	32	31	2.3	5.5	0.0	31	29	32	0.0	2.3	5.5	2	0.991	0.001	R	32	5.5	480.921	481.889	482.880	482.882	0
2	22071911	132	Low	10.0	Precise	1	26	33	31	3.4	5.4	0.0	33	26	31	5.4	3.4	0.0	2	0.849	0.001	L	33	5.4	483.385	486.207	487.056	487.058	0
2	22071911	133	Low	10.0	Vague	2	26	34	16	3.4	6.7	0.0	34	26	16	6.7	3.4	0.0	2	0.722	0.001	L	34	6.7	487.561	489.981	490.704	490.706	0
2	22071911	134	Low	10.0	Precise	1	26	32	36	3.4	5.5	0.0	32	36	26	5.5	0.0	3.4	2	0.869	0.001	L	32	5.5	491.209	494.090	494.960	494.962	0
2	22071911	135	Low	10.0	Vague	2	27	32	13	4.0	5.5	0.0	27	32	13	4.0	5.5	0.0	2	0.810	0.000	D	32	5.5	495.464	496.534	497.344	497.346	0
2	22071911	136	Low	10.0	Precise	1	29	27	19	2.3	4.0	0.0	29	27	19	2.3	4.0	0.0	1	0.713	0.001	L	29	2.3	497.849	500.838	501.552	501.554	0
2	22071911	137	Low	10.0	Precise	1	29	34	21	2.3	6.7	0.0	29	34	21	2.3	6.7	0.0	1	0.466	0.001	L	29	2.3	502.057	502.942	503.408	503.410	0
2	22071911	138	Low	10.0	Vague	2	29	27	4	2.3	4.0	0.6	29	4	27	2.3	0.6	4.0	1	0.902	0.001	L	29	2.3	503.912	505.114	506.016	506.018	0
2	22071911	139	Low	10.0	Precise	1	26	32	23	3.4	5.5	0.0	32	23	26	5.5	0.0	3.4	2	0.944	0.001	L	32	5.5	506.520	508.704	509.648	509.650	0
2	22071911	140	Low	10.0	Vague	2	29	32	6	2.3	5.5	0.0	6	29	32	0.0	2.3	5.5	2	1.505	0.001	R	32	5.5	510.153	512.991	514.496	514.498	0
2	22071911	141	Low	10.0	Precise	1	26	33	23	3.4	5.4	0.0	33	26	23	5.4	3.4	0.0	2	0.758	0.001	L	33	5.4	515.001	517.642	518.400	518.402	0
2	22071911	142	Low	10.0	Vague	2	33	34	3	5.4	6.7	0.0	34	3	33	6.7	0.0	5.4	1	1.322	0.001	R	33	5.4	518.904	521.365	522.688	522.690	0
2	22071911	143	Low	10.0	Precise	1	29	27	36	2.3	4.0	0.0	27	29	36	4.0	2.3	0.0	1	1.247	0.000	D	29	2.3	523.192	525.729	526.976	526.978	0
2	22071911	144	Low	10.0	Precise	1	32	34	21	5.5	6.7	0.0	34	32	21	6.7	5.5	0.0	1	0.706	0.001	D	32	5.5	527.481	528.910	529.616	529.618	0
2	22071911	145	Low	10.0	Vague	2	27	34	16	4.0	6.7	0.0	16	34	27	0.0	6.7	4.0	2	0.697	0.001	D	34	6.7	530.121	532.887	533.584	533.586	0
2	22071911	146	Low	10.0	Vague	2	32	34	16	5.5	6.7	0.0	34	32	16	6.7	5.5	0.0	1	0.711	0.001	D	32	5.5	534.088	536.824	537.536	537.538	0
2	22071911	147	Low	10.0	Vague	2	27	34	6	4.0	6.7	0.0	27	34	6	4.0	6.7	0.0	2	1.385	0.001	D	34	6.7	538.041	538.535	539.920	539.922	0
2	22071911	148	Low	10.0	Vague	2	29	26	16	2.3	3.4	0.0	29	16	26	2.3	0.0	3.4	1	1.487	0.000	L	29	2.3	540.424	541.424	542.911	542.914	0
2	22071911	149	Low	10.0	Precise	1	33	34	19	5.4	6.7	0.0	33	34	19	5.4	6.7	0.0	1	0.782	0.001	L	33	5.4	543.416	544.338	545.120	545.122	0
2	22071911	150	Low	10.0	Precise	1	27	33	23	4.0	5.4	0.0	33	27	23	5.4	4.0	0.0	2	0.591	0.000	L	33	5.4	545.625	548.368	548.959	548.962	0
2	22071911	151	Low	10.0	Vague	2	26	32	6	3.4	5.5	0.0	6	32	26	0.0	5.5	3.4	2	0.818	0.001	D	32	5.5	549.465	552.141	552.960	552.962	0
2	22071911	152	Low	10.0	Vague	2	27	34	13	4.0	6.7	0.0	27	34	13	4.0	6.7	0.0	2	3.774	0.000	D	34	6.7	553.464	554.465	558.239	558.242	0
2	22071911	153	Low	10.0	Vague	2	27	32	16	4.0	5.5	0.0	32	27	16	5.5	4.0	0.0	2	0.624	0.000	L	32	5.5	558.744	561.471	562.095	562.098	0
2	22071911	154	Low	10.0	Precise	1	29	32	23	2.3	5.5	0.0	29	23	32	2.3	0.0	5.5	2	1.492	0.000	R	32	5.5	562.600	563.803	565.296	565.298	0
2	22071911	155	Low	10.0	Precise	1	27	32	23	4.0	5.5	0.0	23	32	27	0.0	5.5	4.0	2	0.746	0.001	D	32	5.5	565.801	567.845	568.592	568.594	0
2	22071911	156	Low	10.0	Precise	1	26	33	19	3.4	5.4	0.0	33	19	26	5.4	0.0	3.4	2	1.358	0.001	L	33	5.4	569.097	570.194	571.552	571.554	0
2	22071911	157	Low	10.0	Vague	2	32	34	13	5.5	6.7	0.0	13	34	32	0.0	6.7	5.5	2	1.503	0.001	D	34	6.7	572.057	572.673	574.176	574.178	0
2	22071911	158	Low	10.0	Precise	1	27	32	31	4.0	5.5	0.0	31	32	27	0.0	5.5	4.0	2	0.875	0.001	D	32	5.5	574.680	576.261	577.136	577.138	0
2	22071911	159	Low	10.0	Precise	1	33	34	36	5.4	6.7	0.0	33	36	34	5.4	0.0	6.7	2	0.637	0.001	R	34	6.7	577.640	578.531	579.168	579.170	0
2	22071911	160	Low	10.0	Vague	2	27	33	13	4.0	5.4	0.0	13	27	33	0.0	4.0	5.4	2	0.891	0.000	R	33	5.4	579.672	580.532	581.424	581.426	0
2	22071911	161	Low	10.0	Vague	2	26	27	13	3.4	4.0	0.0	26	27	13	3.4	4.0	0.0	2	1.788	0.001	D	27	4.0	581.929	584.804	586.592	586.594	0
2	22071911	162	Low	10.0	Vague	2	27	32	9	4.0	5.5	0.8	32	27	9	5.5	4.0	0.8	2	1.006	0.000	L	32	5.5	587.097	588.370	589.376	589.378	0
2	22071911	163	Low	10.0	Precise	1	33	34	21	5.4	6.7	0.0	21	33	34	0.0	5.4	6.7	2	0.612	0.000	R	34	6.7	589.881	592.172	592.784	592.786	0
2	22071911	164	Low	10.0	Vague	2	29	34	9	2.3	6.7	0.8	9	34	29	0.8	6.7	2.3	2	1.017	0.001	D	34	6.7	593.288	593.847	594.864	594.866	0
2	22071911	165	Low	10.0	Precise	1	33	34	23	5.4	6.7	0.0	33	34	23	5.4	6.7	0.0	2	0.553	0.001	D	34	6.7	595.369	596.903	597.456	597.458	0
2	22071911	166	Low	10.0	Vague	2	27	34	9	4.0	6.7	0.8	34	27	9	6.7	4.0	0.8	2	0.912	0.001	L	34	6.7	597.961	599.935	600.848	600.850	0
2	22071911	167	Low	10.0	Precise	1	29	26	19	2.3	3.4	0.0	26	29	19	3.4	2.3	0.0	1	0.987	0.001	D	29	2.3	601.352	603.044	604.032	604.034	0
2	22071911	168	Low	10.0	Precise	1	26	34	36	3.4	6.7	0.0	26	34	36	3.4	6.7	0.0	2	1.013	0.001	D	34	6.7	604.537	606.219	607.232	607.234	0
2	22071911	169	Low	10.0	Precise	1	32	34	19	5.5	6.7	0.0	34	19	32	6.7	0.0	5.5	2	0.576	0.000	L	34	6.7	607.737	609.263	609.839	609.842	0
2	22071911	170	Low	10.0	Precise	1	32	34	36	5.5	6.7	0.0	32	34	36	5.5	6.7	0.0	2	1.575	0.001	D	34	6.7	610.345	613.065	614.640	614.642	0
2	22071911	171	Low	10.0	Vague	2	26	34	3	3.4	6.7	0.0	26	3	34	3.4	0.0	6.7	2	0.970	0.000	R	34	6.7	615.145	617.125	618.095	618.098	0
2	22071911	172	Low	10.0	Vague	2	26	32	9	3.4	5.5	0.8	9	32	26	0.8	5.5	3.4	2	0.647	0.001	D	32	5.5	618.601	620.329	620.976	620.978	0
2	22071911	173	Low	10.0	Vague	2	26	27	9	3.4	4.0	0.8	9	27	26	0.8	4.0	3.4	2	1.520	0.001	D	27	4.0	621.481	622.032	623.552	623.554	0
2	22071911	174	Low	10.0	Precise	1	29	33	36	2.3	5.4	0.0	33	36	29	5.4	0.0	2.3	2	1.598	0.000	L	33	5.4	624.057	625.553	627.151	627.154	0
2	22071911	175	Low	10.0	Vague	2	29	26	9	2.3	3.4	0.8	29	9	26	2.3	0.8	3.4	1	1.231	0.000	L	29	2.3	627.657	629.617	630.847	630.850	0
2	22071911	176	Low	10.0	Precise	1	27	33	19	4.0	5.4	0.0	19	33	27	0.0	5.4	4.0	2	0.712	0.000	D	33	5.4	631.353	633.143	633.856	633.858	0
2	22071911	177	Low	10.0	Vague	2	29	27	3	2.3	4.0	0.0	27	29	3	4.0	2.3	0.0	1	0.777	0.000	D	29	2.3	634.360	636.119	636.896	636.898	0
2	22071911	178	Low	10.0	Vague	2	27	33	4	4.0	5.4	0.6	33	27	4	5.4	4.0	0.6	2	0.659	0.000	L	33	5.4	637.400	638.860	639.519	639.522	0
2	22071911	179	Low	10.0	Vague	2	32	34	3	5.5	6.7	0.0	32	3	34	5.5	0.0	6.7	1	1.024	0.001	L	32	5.5	640.025	641.104	642.128	642.130	0
2	22071911	180	Low	10.0	Precise	1	27	32	36	4.0	5.5	0.0	36	27	32	0.0	4.0	5.5	2	0.508	0.000	R	32	5.5	642.632	643.827	644.335	644.338	0
2	22071911	181	High	1.5	Precise	1	26	32	30	3.4	5.5	0.0	32	30	26	5.5	0.0	3.4	2	0.681	0.000	L	32	5.5	660.988	663.143	663.823	663.826	0
2	22071911	182	High	1.5	Vague	2	33	32	18	5.4	5.5	0.0	18	33	32	0.0	5.4	5.5	2	0.728	0.000	R	32	5.5	664.330	667.063	667.791	667.794	0
2	22071911	183	High	1.5	Precise	1	33	32	20	5.4	5.5	0.0	20	33	32	0.0	5.4	5.5	1	0.472	0.000	D	33	5.4	668.297	670.728	671.200	671.202	0
2	22071911	184	High	1.5	Vague	2	26	27	5	3.4	4.0	0.0	5	27	26	0.0	4.0	3.4	1	0.968	0.000	R	26	3.4	671.705	672.920	673.887	673.890	0
2	22071911	185	High	1.5	Precise	1	27	32	35	4.0	5.5	0.0	27	35	32	4.0	0.0	5.5	2	0.597	0.001	R	32	5.5	674.393	676.587	677.184	677.186	0
2	22071911	186	High	1.5	Vague	2	26	27	1	3.4	4.0	0.0	26	27	1	3.4	4.0	0.0	1	0.645	0.000	L	26	3.4	677.689	678.539	679.183	679.186	0
2	22071911	187	High	1.5	Precise	1	27	34	22	4.0	6.7	0.0	34	22	27	6.7	0.0	4.0	2	0.547	0.000	L	34	6.7	679.689	682.541	683.088	683.090	0
2	22071911	188	High	1.5	Precise	1	26	34	22	3.4	6.7	0.0	26	22	34	3.4	0.0	6.7	2	0.482	0.001	R	34	6.7	683.593	684.702	685.184	685.187	0
2	22071911	189	High	1.5	Vague	2	26	34	1	3.4	6.7	0.0	34	26	1	6.7	3.4	0.0	2	0.425	0.001	L	34	6.7	685.690	686.839	687.264	687.266	0
2	22071911	190	High	1.5	Vague	2	26	27	18	3.4	4.0	0.0	27	18	26	4.0	0.0	3.4	2	0.705	0.000	L	27	4.0	687.769	689.247	689.951	689.954	0
2	22071911	191	High	1.5	Precise	1	26	27	24	3.4	4.0	0.0	24	26	27	0.0	3.4	4.0	2	0.767	0.000	R	27	4.0	690.456	691.393	692.160	692.162	0
2	22071911	192	High	1.5	Precise	1	27	33	22	4.0	5.4	0.0	33	27	22	5.4	4.0	0.0	1	0.853	0.001	D	27	4.0	692.664	693.195	694.048	694.050	0
2	22071911	193	High	1.5	Vague	2	33	32	14	5.4	5.5	0.0	14	33	32	0.0	5.4	5.5	1	0.502	0.001	D	33	5.4	694.553	695.065	695.568	695.570	0
2	22071911	194	High	1.5	Vague	2	33	32	5	5.4	5.5	0.0	33	32	5	5.4	5.5	0.0	1	0.579	0.001	L	33	5.4	696.073	698.157	698.736	698.738	0
2	22071911	195	High	1.5	Vague	2	27	34	14	4.0	6.7	0.0	27	14	34	4.0	0.0	6.7	2	0.548	0.000	R	34	6.7	699.241	700.524	701.071	701.074	0
2	22071911	196	High	1.5	Precise	1	26	34	20	3.4	6.7	0.0	34	26	20	6.7	3.4	0.0	2	0.506	0.001	L	34	6.7	701.578	704.214	704.720	704.722	0
2	22071911	197	High	1.5	Vague	2	27	33	2	4.0	5.4	0.6	33	2	27	5.4	0.6	4.0	2	0.490	0.000	L	33	5.4	705.224	707.285	707.775	707.778	0
2	22071911	198	High	1.5	Precise	1	29	32	28	2.3	5.5	0.7	29	32	28	2.3	5.5	0.7	2	0.646	0.000	D	32	5.5	708.281	709.801	710.448	710.450	0
2	22071911	199	High	1.5	Vague	2	33	34	7	5.4	6.7	0.0	7	34	33	0.0	6.7	5.4	1	0.541	0.000	R	33	5.4	710.952	711.619	712.159	712.162	0
2	22071911	200	High	1.5	Vague	2	26	34	14	3.4	6.7	0.0	14	26	34	0.0	3.4	6.7	2	0.528	0.001	R	34	6.7	712.664	713.600	714.128	714.130	0
2	22071911	201	High	1.5	Vague	2	32	34	14	5.5	6.7	0.0	32	34	14	5.5	6.7	0.0	2	0.731	0.000	D	34	6.7	714.633	715.429	716.160	716.162	0
2	22071911	202	High	1.5	Vague	2	29	34	5	2.3	6.7	0.0	34	29	5	6.7	2.3	0.0	2	0.567	0.001	L	34	6.7	716.665	719.113	719.680	719.682	0
2	22071911	203	High	1.5	Precise	1	26	32	28	3.4	5.5	0.7	32	26	28	5.5	3.4	0.7	2	0.575	0.000	L	32	5.5	720.185	721.648	722.223	722.226	0
2	22071911	204	High	1.5	Vague	2	26	33	5	3.4	5.4	0.0	5	26	33	0.0	3.4	5.4	2	0.623	0.001	R	33	5.4	722.728	723.681	724.304	724.306	0
2	22071911	205	High	1.5	Precise	1	29	26	24	2.3	3.4	0.0	29	24	26	2.3	0.0	3.4	1	0.999	0.000	L	29	2.3	724.809	727.736	728.735	728.738	0
2	22071911	206	High	1.5	Precise	1	26	27	30	3.4	4.0	0.0	26	27	30	3.4	4.0	0.0	1	0.522	0.000	L	26	3.4	729.242	730.741	731.264	731.266	0
2	22071911	207	High	1.5	Vague	2	29	34	2	2.3	6.7	0.6	34	29	2	6.7	2.3	0.6	2	0.497	0.001	L	34	6.7	731.769	734.559	735.056	735.058	0
2	22071911	208	High	1.5	Precise	1	29	32	24	2.3	5.5	0.0	32	24	29	5.5	0.0	2.3	2	0.647	0.000	L	32	5.5	735.561	736.313	736.960	736.962	0
2	22071911	209	High	1.5	Vague	2	29	33	5	2.3	5.4	0.0	33	5	29	5.4	0.0	2.3	2	0.590	0.000	L	33	5.4	737.465	739.682	740.272	740.274	0
2	22071911	210	High	1.5	Precise	1	27	32	30	4.0	5.5	0.0	27	30	32	4.0	0.0	5.5	2	1.105	0.000	R	32	5.5	740.777	742.655	743.760	743.762	0
2	22071911	211	High	1.5	Vague	2	27	32	5	4.0	5.5	0.0	32	27	5	5.5	4.0	0.0	2	0.508	0.001	L	32	5.5	744.265	747.124	747.632	747.634	0
2	22071911	212	High	1.5	Precise	1	27	34	35	4.0	6.7	0.0	27	34	35	4.0	6.7	0.0	2	0.710	0.000	D	34	6.7	748.137	750.521	751.231	751.234	0
2	22071911	213	High	1.5	Vague	2	26	27	2	3.4	4.0	0.6	26	2	27	3.4	0.6	4.0	1	1.208	0.000	L	26	3.4	751.737	754.167	755.375	755.378	0
2	22071911	214	High	1.5	Vague	2	27	34	18	4.0	6.7	0.0	27	34	18	4.0	6.7	0.0	3	0.627	0.001	R	18	0.0	755.881	756.941	757.568	757.570	0
2	22071911	215	High	1.5	Vague	2	29	26	7	2.3	3.4	0.0	29	26	7	2.3	3.4	0.0	1	0.747	0.000	L	29	2.3	758.073	759.013	759.759	759.762	0
2	22071911	216	High	1.5	Precise	1	29	34	30	2.3	6.7	0.0	30	34	29	0.0	6.7	2.3	2	0.796	0.000	D	34	6.7	760.264	763.107	763.903	763.906	0
2	22071911	217	High	1.5	Precise	1	26	33	30	3.4	5.4	0.0	26	33	30	3.4	5.4	0.0	2	0.652	0.000	D	33	5.4	764.408	765.235	765.887	765.890	0
2	22071911	218	High	1.5	Precise	1	26	32	22	3.4	5.5	0.0	32	22	26	5.5	0.0	3.4	2	0.587	0.000	L	32	5.5	766.392	767.860	768.447	768.450	0
2	22071911	219	High	1.5	Precise	1	29	27	30	2.3	4.0	0.0	29	27	30	2.3	4.0	0.0	1	0.603	0.001	L	29	2.3	768.953	771.509	772.112	772.114	0
2	22071911	220	High	1.5	Precise	1	26	34	35	3.4	6.7	0.0	26	34	35	3.4	6.7	0.0	1	0.596	0.000	L	26	3.4	772.617	773.260	773.855	773.858	0
2	22071911	221	High	1.5	Vague	2	29	26	2	2.3	3.4	0.6	29	26	2	2.3	3.4	0.6	1	0.639	0.000	L	29	2.3	774.361	775.281	775.919	775.922	0
2	22071911	222	High	1.5	Precise	1	29	33	20	2.3	5.4	0.0	20	33	29	0.0	5.4	2.3	2	0.855	0.001	D	33	5.4	776.424	778.057	778.912	778.914	0
2	22071911	223	High	1.5	Precise	1	33	34	30	5.4	6.7	0.0	30	34	33	0.0	6.7	5.4	2	0.429	0.001	D	34	6.7	779.417	781.747	782.176	782.178	0
2	22071911	224	High	1.5	Vague	2	26	34	5	3.4	6.7	0.0	34	5	26	6.7	0.0	3.4	2	0.826	0.000	L	34	6.7	782.682	784.549	785.375	785.378	0
2	22071911	225	High	1.5	Vague	2	33	32	1	5.4	5.5	0.0	1	32	33	0.0	5.5	5.4	1	0.686	0.001	R	33	5.4	785.881	788.530	789.216	789.219	0
2	22071911	226	High	1.5	Vague	2	26	33	1	3.4	5.4	0.0	1	33	26	0.0	5.4	3.4	2	0.525	0.000	D	33	5.4	789.721	790.834	791.359	791.362	0
2	22071911	227	High	1.5	Precise	1	29	27	20	2.3	4.0	0.0	29	27	20	2.3	4.0	0.0	1	0.755	0.000	L	29	2.3	791.865	792.621	793.376	793.378	0
2	22071911	228	High	1.5	Precise	1	33	34	28	5.4	6.7	0.7	28	33	34	0.7	5.4	6.7	1	0.531	0.000	D	33	5.4	793.880	796.701	797.231	797.234	0
2	22071911	229	High	1.5	Vague	2	29	34	1	2.3	6.7	0.0	34	1	29	6.7	0.0	2.3	2	0.617	0.000	L	34	6.7	797.737	799.302	799.919	799.923	0
2	22071911	230	High	1.5	Vague	2	27	32	14	4.0	5.5	0.0	32	27	14	5.5	4.0	0.0	2	0.739	0.000	L	32	5.5	800.425	802.188	802.927	802.930	0
2	22071911	231	High	1.5	Precise	1	29	34	35	2.3	6.7	0.0	34	35	29	6.7	0.0	2.3	2	0.487	0.000	L	34	6.7	803.432	806.088	806.576	806.578	0
2	22071911	232	High	1.5	Vague	2	29	34	18	2.3	6.7	0.0	34	18	29	6.7	0.0	2.3	2	0.430	0.001	L	34	6.7	807.081	808.513	808.944	808.946	0
2	22071911	233	High	1.5	Vague	2	32	34	2	5.5	6.7	0.6	32	2	34	5.5	0.6	6.7	1	0.697	0.001	L	32	5.5	809.449	811.655	812.352	812.354	0
2	22071911	234	High	1.5	Vague	2	29	27	2	2.3	4.0	0.6	29	27	2	2.3	4.0	0.6	1	0.549	0.001	L	29	2.3	812.857	814.491	815.040	815.043	0
2	22071911	235	High	1.5	Precise	1	29	26	28	2.3	3.4	0.7	29	26	28	2.3	3.4	0.7	1	0.677	0.000	L	29	2.3	815.546	818.523	819.200	819.202	0
2	22071911	236	High	1.5	Vague	2	33	34	18	5.4	6.7	0.0	33	34	18	5.4	6.7	0.0	1	0.596	0.000	L	33	5.4	819.705	820.699	821.295	821.298	0
2	22071911	237	High	1.5	Precise	1	29	32	35	2.3	5.5	0.0	29	35	32	2.3	0.0	5.5	2	0.917	0.001	R	32	5.5	821.800	824.507	825.424	825.426	0
2	22071911	238	High	1.5	Vague	2	27	34	1	4.0	6.7	0.0	1	34	27	0.0	6.7	4.0	2	0.695	0.001	D	34	6.7	825.929	827.497	828.192	828.194	0
2	22071911	239	High	1.5	Vague	2	29	26	5	2.3	3.4	0.0	29	26	5	2.3	3.4	0.0	1	0.573	0.000	L	29	2.3	828.697	830.707	831.279	831.283	0
2	22071911	240	High	1.5	Precise	1	27	32	24	4.0	5.5	0.0	32	27	24	5.5	4.0	0.0	2	0.548	0.001	L	32	5.5	831.786	833.708	834.256	834.258	0
2	22071911	241	High	1.5	Vague	2	27	34	5	4.0	6.7	0.0	34	5	27	6.7	0.0	4.0	2	0.740	0.001	L	34	6.7	838.830	839.659	840.400	840.402	0
2	22071911	242	High	1.5	Precise	1	29	34	20	2.3	6.7	0.0	29	20	34	2.3	0.0	6.7	1	0.576	0.001	L	29	2.3	840.905	842.848	843.424	843.426	0
2	22071911	243	High	1.5	Vague	2	26	32	14	3.4	5.5	0.0	26	32	14	3.4	5.5	0.0	2	1.063	0.000	D	32	5.5	843.929	844.457	845.520	845.522	0
2	22071911	244	High	1.5	Precise	1	32	34	20	5.5	6.7	0.0	32	34	20	5.5	6.7	0.0	2	0.683	0.001	D	34	6.7	846.025	847.124	847.808	847.810	0
2	22071911	245	High	1.5	Vague	2	29	27	7	2.3	4.0	0.0	7	27	29	0.0	4.0	2.3	1	0.582	0.001	R	29	2.3	848.313	849.514	850.096	850.099	0
2	22071911	246	High	1.5	Vague	2	29	32	18	2.3	5.5	0.0	29	18	32	2.3	0.0	5.5	3	0.828	0.001	D	18	0.0	850.602	851.844	852.672	852.675	0
2	22071911	247	High	1.5	Vague	2	27	33	1	4.0	5.4	0.0	1	33	27	0.0	5.4	4.0	2	0.595	0.001	D	33	5.4	853.178	855.917	856.512	856.514	0
2	22071911	248	High	1.5	Precise	1	26	33	28	3.4	5.4	0.7	26	28	33	3.4	0.7	5.4	2	0.869	0.001	R	33	5.4	857.016	857.547	858.416	858.418	0
2	22071911	249	High	1.5	Precise	1	33	34	22	5.4	6.7	0.0	22	34	33	0.0	6.7	5.4	1	0.502	0.001	R	33	5.4	858.921	860.442	860.944	860.946	0
2	22071911	250	High	1.5	Precise	1	27	34	30	4.0	6.7	0.0	27	30	34	4.0	0.0	6.7	2	0.677	0.001	R	34	6.7	861.449	863.962	864.640	864.642	0
2	22071911	251	High	1.5	Precise	1	29	26	35	2.3	3.4	0.0	29	35	26	2.3	0.0	3.4	1	0.914	0.000	L	29	2.3	865.145	867.982	868.895	868.898	0
2	22071911	252	High	1.5	Vague	2	29	27	14	2.3	4.0	0.0	27	29	14	4.0	2.3	0.0	1	0.779	0.000	D	29	2.3	869.401	871.076	871.855	871.859	0
2	22071911	253	High	1.5	Vague	2	29	32	14	2.3	5.5	0.0	29	14	32	2.3	0.0	5.5	1	0.991	0.001	L	29	2.3	872.362	872.865	873.856	873.858	0
2	22071911	254	High	1.5	Precise	1	33	32	30	5.4	5.5	0.0	30	33	32	0.0	5.4	5.5	1	0.584	0.001	D	33	5.4	874.361	876.519	877.104	877.106	0
2	22071911	255	High	1.5	Vague	2	29	26	14	2.3	3.4	0.0	26	14	29	3.4	0.0	2.3	1	0.841	0.000	R	29	2.3	877.609	878.982	879.823	879.826	0
2	22071911	256	High	1.5	Vague	2	26	33	14	3.4	5.4	0.0	33	14	26	5.4	0.0	3.4	2	0.557	0.000	L	33	5.4	880.329	882.082	882.639	882.642	0
2	22071911	257	High	1.5	Precise	1	29	26	22	2.3	3.4	0.0	29	22	26	2.3	0.0	3.4	1	0.891	0.001	L	29	2.3	883.145	884.677	885.568	885.570	0
2	22071911	258	High	1.5	Vague	2	29	26	18	2.3	3.4	0.0	18	26	29	0.0	3.4	2.3	3	0.575	0.000	L	18	0.0	886.073	888.736	889.312	889.314	0
2	22071911	259	High	1.5	Vague	2	26	32	7	3.4	5.5	0.0	7	26	32	0.0	3.4	5.5	2	0.758	0.000	R	32	5.5	889.817	890.842	891.600	891.602	0
2	22071911	260	High	1.5	Precise	1	29	32	30	2.3	5.5	0.0	32	30	29	5.5	0.0	2.3	2	0.582	0.000	L	32	5.5	892.105	893.402	893.984	893.986	0
2	22071911	261	High	1.5	Precise	1	26	32	20	3.4	5.5	0.0	26	20	32	3.4	0.0	5.5	2	0.657	0.001	R	32	5.5	894.489	895.231	895.888	895.890	0
2	22071911	262	High	1.5	Vague	2	33	34	1	5.4	6.7	0.0	1	34	33	0.0	6.7	5.4	2	0.588	0.001	D	34	6.7	896.393	897.012	897.600	897.602	0
2	22071911	263	High	1.5	Precise	1	26	27	20	3.4	4.0	0.0	27	26	20	4.0	3.4	0.0	1	0.880	0.001	D	26	3.4	898.106	899.504	900.384	900.386	0
2	22071911	264	High	1.5	Vague	2	27	32	1	4.0	5.5	0.0	32	1	27	5.5	0.0	4.0	2	0.600	0.000	L	32	5.5	900.889	902.072	902.672	902.674	0
2	22071911	265	High	1.5	Vague	2	29	34	14	2.3	6.7	0.0	29	14	34	2.3	0.0	6.7	2	0.500	0.001	R	34	6.7	903.177	905.963	906.464	906.466	0
2	22071911	266	High	1.5	Precise	1	29	27	22	2.3	4.0	0.0	27	22	29	4.0	0.0	2.3	3	1.028	0.000	D	22	0.0	906.969	908.075	909.103	909.106	0
2	22071911	267	High	1.5	Precise	1	33	34	20	5.4	6.7	0.0	20	34	33	0.0	6.7	5.4	1	0.523	0.000	R	33	5.4	909.609	912.228	912.751	912.754	0
2	22071911	268	High	1.5	Precise	1	27	33	30	4.0	5.4	0.0	27	30	33	4.0	0.0	5.4	2	0.479	0.001	R	33	5.4	913.257	915.041	915.520	915.522	0
2	22071911	269	High	1.5	Vague	2	26	33	18	3.4	5.4	0.0	18	26	33	0.0	3.4	5.4	2	0.507	0.001	R	33	5.4	916.025	918.085	918.592	918.594	0
2	22071911	270	High	1.5	Precise	1	26	27	22	3.4	4.0	0.0	26	27	22	3.4	4.0	0.0	2	0.796	0.001	D	27	4.0	919.097	921.604	922.400	922.403	0
2	22071911	271	High	1.5	Precise	1	33	34	24	5.4	6.7	0.0	33	24	34	5.4	0.0	6.7	2	0.461	0.000	R	34	6.7	922.906	925.619	926.079	926.083	0
2	22071911	272	High	1.5	Precise	1	29	33	28	2.3	5.4	0.7	28	33	29	0.7	5.4	2.3	2	0.699	0.000	D	33	5.4	926.585	929.269	929.968	929.970	0
2	22071911	273	High	1.5	Vague	2	27	34	7	4.0	6.7	0.0	7	27	34	0.0	4.0	6.7	2	0.777	0.000	R	34	6.7	930.473	932.246	933.023	933.026	0
2	22071911	274	High	1.5	Precise	1	26	33	24	3.4	5.4	0.0	26	33	24	3.4	5.4	0.0	2	0.530	0.001	D	33	5.4	933.529	934.926	935.456	935.459	0
2	22071911	275	High	1.5	Vague	2	32	34	18	5.5	6.7	0.0	18	32	34	0.0	5.5	6.7	1	0.724	0.000	D	32	5.5	935.962	937.500	938.224	938.226	0
2	22071911	276	High	1.5	Precise	1	26	34	24	3.4	6.7	0.0	26	34	24	3.4	6.7	0.0	2	0.506	0.001	D	34	6.7	938.729	941.190	941.696	941.698	0
2	22071911	277	High	1.5	Precise	1	27	32	20	4.0	5.5	0.0	27	32	20	4.0	5.5	0.0	2	0.670	0.001	D	32	5.5	942.201	945.090	945.760	945.762	0
2	22071911	278	High	1.5	Vague	2	29	33	7	2.3	5.4	0.0	7	29	33	0.0	2.3	5.4	2	0.582	0.001	R	33	5.4	946.265	947.946	948.528	948.530	0
2	22071911	279	High	1.5	Precise	1	27	33	20	4.0	5.4	0.0	27	20	33	4.0	0.0	5.4	2	0.422	0.000	R	33	5.4	949.033	950.554	950.976	950.978	0
2	22071911	280	High	1.5	Vague	2	32	34	1	5.5	6.7	0.0	32	1	34	5.5	0.0	6.7	2	0.506	0.001	R	34	6.7	951.481	953.254	953.760	953.763	0
2	22071911	281	High	1.5	Vague	2	26	34	2	3.4	6.7	0.6	26	2	34	3.4	0.6	6.7	2	0.452	0.000	R	34	6.7	954.266	954.859	955.312	955.314	0
2	22071911	282	High	1.5	Vague	2	27	33	7	4.0	5.4	0.0	7	27	33	0.0	4.0	5.4	2	0.563	0.000	R	33	5.4	955.817	956.925	957.487	957.490	0
2	22071911	283	High	1.5	Vague	2	26	27	14	3.4	4.0	0.0	14	27	26	0.0	4.0	3.4	NaN	NaN	NaN	NaN	NaN	NaN	957.993	958.858	NaN	960.349	1
2	22071911	284	High	1.5	Vague	2	33	32	7	5.4	5.5	0.0	33	32	7	5.4	5.5	0.0	1	0.657	0.001	L	33	5.4	962.352	963.743	964.400	964.404	0
2	22071911	285	High	1.5	Vague	2	29	32	1	2.3	5.5	0.0	1	29	32	0.0	2.3	5.5	1	0.786	0.001	D	29	2.3	964.907	965.758	966.544	966.547	0
2	22071911	286	High	1.5	Vague	2	26	32	2	3.4	5.5	0.6	2	26	32	0.6	3.4	5.5	2	0.568	0.000	R	32	5.5	967.049	968.040	968.607	968.610	0
2	22071911	287	High	1.5	Vague	2	27	32	7	4.0	5.5	0.0	32	27	7	5.5	4.0	0.0	2	0.728	0.000	L	32	5.5	969.113	970.135	970.863	970.866	0
2	22071911	288	High	1.5	Precise	1	29	33	30	2.3	5.4	0.0	29	30	33	2.3	0.0	5.4	2	0.507	0.001	R	33	5.4	971.369	974.149	974.656	974.658	0
2	22071911	289	High	1.5	Precise	1	26	33	35	3.4	5.4	0.0	26	33	35	3.4	5.4	0.0	2	0.545	0.000	D	33	5.4	975.161	977.262	977.808	977.810	0
2	22071911	290	High	1.5	Vague	2	26	33	7	3.4	5.4	0.0	7	26	33	0.0	3.4	5.4	2	0.469	0.001	R	33	5.4	978.313	980.939	981.408	981.410	0
2	22071911	291	High	1.5	Precise	1	29	27	35	2.3	4.0	0.0	27	35	29	4.0	0.0	2.3	1	0.645	0.001	R	29	2.3	981.913	983.818	984.464	984.466	0
2	22071911	292	High	1.5	Precise	1	27	34	28	4.0	6.7	0.7	34	28	27	6.7	0.7	4.0	2	0.789	0.001	L	34	6.7	984.969	985.979	986.768	986.770	0
2	22071911	293	High	1.5	Precise	1	29	34	22	2.3	6.7	0.0	34	29	22	6.7	2.3	0.0	2	0.487	0.000	L	34	6.7	987.274	989.433	989.919	989.922	0
2	22071911	294	High	1.5	Precise	1	26	27	35	3.4	4.0	0.0	26	35	27	3.4	0.0	4.0	2	0.684	0.001	R	27	4.0	990.425	993.156	993.840	993.842	0
2	22071911	295	High	1.5	Precise	1	29	26	20	2.3	3.4	0.0	29	26	20	2.3	3.4	0.0	1	0.551	0.000	L	29	2.3	994.345	996.008	996.559	996.562	0
2	22071911	296	High	1.5	Precise	1	27	33	35	4.0	5.4	0.0	35	27	33	0.0	4.0	5.4	2	0.437	0.000	R	33	5.4	997.065	999.691	1000.128	1000.130	0
2	22071911	297	High	1.5	Vague	2	26	32	18	3.4	5.5	0.0	26	32	18	3.4	5.5	0.0	2	0.564	0.000	D	32	5.5	1000.633	1002.875	1003.440	1003.442	0
2	22071911	298	High	1.5	Precise	1	32	34	35	5.5	6.7	0.0	32	35	34	5.5	0.0	6.7	2	0.565	0.001	R	34	6.7	1003.944	1004.810	1005.376	1005.378	0
2	22071911	299	High	1.5	Vague	2	27	34	2	4.0	6.7	0.6	34	27	2	6.7	4.0	0.6	2	0.493	0.001	L	34	6.7	1005.881	1006.706	1007.200	1007.202	0
2	22071911	300	High	1.5	Vague	2	29	33	1	2.3	5.4	0.0	33	29	1	5.4	2.3	0.0	2	0.610	0.001	L	33	5.4	1007.705	1008.414	1009.024	1009.026	0
2	22071911	301	High	1.5	Precise	1	29	27	24	2.3	4.0	0.0	29	24	27	2.3	0.0	4.0	1	0.407	0.000	L	29	2.3	1014.339	1015.944	1016.351	1016.354	0
2	22071911	302	High	1.5	Vague	2	33	34	14	5.4	6.7	0.0	14	34	33	0.0	6.7	5.4	1	0.453	0.001	R	33	5.4	1016.857	1019.195	1019.648	1019.650	0
2	22071911	303	High	1.5	Precise	1	32	34	30	5.5	6.7	0.0	34	32	30	6.7	5.5	0.0	2	0.643	0.001	L	34	6.7	1020.153	1022.141	1022.784	1022.786	0
2	22071911	304	High	1.5	Precise	1	27	33	28	4.0	5.4	0.7	33	27	28	5.4	4.0	0.7	2	0.669	0.000	L	33	5.4	1023.289	1024.818	1025.487	1025.490	0
2	22071911	305	High	1.5	Vague	2	29	27	1	2.3	4.0	0.0	29	27	1	2.3	4.0	0.0	1	0.822	0.000	L	29	2.3	1025.993	1027.497	1028.319	1028.322	0
2	22071911	306	High	1.5	Precise	1	27	34	24	4.0	6.7	0.0	34	27	24	6.7	4.0	0.0	2	0.432	0.001	L	34	6.7	1028.825	1030.304	1030.736	1030.738	0
2	22071911	307	High	1.5	Precise	1	27	32	28	4.0	5.5	0.7	28	32	27	0.7	5.5	4.0	2	0.537	0.001	D	32	5.5	1031.241	1033.847	1034.384	1034.387	0
2	22071911	308	High	1.5	Precise	1	26	32	24	3.4	5.5	0.0	24	32	26	0.0	5.5	3.4	2	0.566	0.001	D	32	5.5	1034.889	1037.497	1038.064	1038.066	0
2	22071911	309	High	1.5	Vague	2	26	27	7	3.4	4.0	0.0	27	26	7	4.0	3.4	0.0	1	0.713	0.001	D	26	3.4	1038.568	1039.975	1040.688	1040.690	0
2	22071911	310	High	1.5	Precise	1	29	34	24	2.3	6.7	0.0	34	24	29	6.7	0.0	2.3	2	0.533	0.000	L	34	6.7	1041.193	1041.882	1042.416	1042.418	0
2	22071911	311	High	1.5	Vague	2	27	33	5	4.0	5.4	0.0	33	27	5	5.4	4.0	0.0	2	0.610	0.001	L	33	5.4	1042.921	1045.166	1045.776	1045.778	0
2	22071911	312	High	1.5	Vague	2	29	33	2	2.3	5.4	0.6	2	33	29	0.6	5.4	2.3	2	0.490	0.000	D	33	5.4	1046.281	1048.982	1049.472	1049.474	0
2	22071911	313	High	1.5	Precise	1	27	34	20	4.0	6.7	0.0	27	34	20	4.0	6.7	0.0	2	0.851	0.001	D	34	6.7	1049.977	1051.021	1051.872	1051.874	0
2	22071911	314	High	1.5	Precise	1	29	32	22	2.3	5.5	0.0	29	32	22	2.3	5.5	0.0	2	0.700	0.000	D	32	5.5	1052.377	1054.116	1054.816	1054.818	0
2	22071911	315	High	1.5	Precise	1	33	32	24	5.4	5.5	0.0	24	32	33	0.0	5.5	5.4	1	0.458	0.000	R	33	5.4	1055.321	1057.494	1057.951	1057.954	0
2	22071911	316	High	1.5	Vague	2	26	34	18	3.4	6.7	0.0	34	18	26	6.7	0.0	3.4	2	0.587	0.001	L	34	6.7	1058.457	1059.861	1060.448	1060.450	0
2	22071911	317	High	1.5	Vague	2	27	32	18	4.0	5.5	0.0	18	32	27	0.0	5.5	4.0	2	0.848	0.000	D	32	5.5	1060.953	1062.543	1063.392	1063.394	0
2	22071911	318	High	1.5	Vague	2	29	27	5	2.3	4.0	0.0	27	5	29	4.0	0.0	2.3	1	1.000	0.000	R	29	2.3	1063.897	1065.879	1066.879	1066.882	0
2	22071911	319	High	1.5	Vague	2	29	32	2	2.3	5.5	0.6	32	29	2	5.5	2.3	0.6	2	0.844	0.001	L	32	5.5	1067.385	1069.572	1070.416	1070.418	0
2	22071911	320	High	1.5	Vague	2	26	32	5	3.4	5.5	0.0	32	26	5	5.5	3.4	0.0	2	0.556	0.001	L	32	5.5	1070.921	1073.444	1074.000	1074.002	0
2	22071911	321	High	1.5	Precise	1	32	34	28	5.5	6.7	0.7	34	32	28	6.7	5.5	0.7	2	0.495	0.000	L	34	6.7	1074.505	1076.849	1077.344	1077.347	0
2	22071911	322	High	1.5	Vague	2	29	32	5	2.3	5.5	0.0	29	5	32	2.3	0.0	5.5	2	0.749	0.001	R	32	5.5	1077.849	1080.115	1080.864	1080.866	0
2	22071911	323	High	1.5	Precise	1	26	32	35	3.4	5.5	0.0	35	32	26	0.0	5.5	3.4	2	0.561	0.001	D	32	5.5	1081.369	1083.295	1083.856	1083.858	0
2	22071911	324	High	1.5	Vague	2	27	33	14	4.0	5.4	0.0	14	27	33	0.0	4.0	5.4	2	0.678	0.000	R	33	5.4	1084.361	1085.529	1086.207	1086.210	0
2	22071911	325	High	1.5	Vague	2	29	26	1	2.3	3.4	0.0	26	1	29	3.4	0.0	2.3	2	0.592	0.001	L	26	3.4	1086.713	1089.280	1089.872	1089.874	0
2	22071911	326	High	1.5	Vague	2	26	33	2	3.4	5.4	0.6	26	33	2	3.4	5.4	0.6	1	0.457	0.000	L	26	3.4	1090.377	1091.079	1091.536	1091.538	0
2	22071911	327	High	1.5	Precise	1	29	26	30	2.3	3.4	0.0	30	29	26	0.0	2.3	3.4	1	0.868	0.001	D	29	2.3	1092.041	1094.876	1095.744	1095.746	0
2	22071911	328	High	1.5	Precise	1	26	33	20	3.4	5.4	0.0	26	33	20	3.4	5.4	0.0	2	0.762	0.001	D	33	5.4	1096.249	1096.901	1097.664	1097.666	0
2	22071911	329	High	1.5	Vague	2	33	32	2	5.4	5.5	0.6	32	2	33	5.5	0.6	5.4	2	0.513	0.001	L	32	5.5	1098.169	1100.943	1101.456	1101.458	0
2	22071911	330	High	1.5	Precise	1	29	32	20	2.3	5.5	0.0	20	32	29	0.0	5.5	2.3	2	0.929	0.001	D	32	5.5	1101.961	1104.767	1105.696	1105.698	0
2	22071911	331	High	1.5	Precise	1	26	34	28	3.4	6.7	0.7	26	34	28	3.4	6.7	0.7	2	0.819	0.001	D	34	6.7	1106.201	1107.852	1108.672	1108.674	0
2	22071911	332	High	1.5	Precise	1	33	32	28	5.4	5.5	0.7	28	33	32	0.7	5.4	5.5	1	0.557	0.000	D	33	5.4	1109.177	1110.594	1111.152	1111.154	0
2	22071911	333	High	1.5	Precise	1	29	33	22	2.3	5.4	0.0	29	33	22	2.3	5.4	0.0	2	1.129	0.001	D	33	5.4	1111.657	1112.502	1113.632	1113.634	0
2	22071911	334	High	1.5	Vague	2	29	33	18	2.3	5.4	0.0	18	29	33	0.0	2.3	5.4	2	0.465	0.000	R	33	5.4	1114.137	1116.206	1116.672	1116.674	0
2	22071911	335	High	1.5	Vague	2	26	32	1	3.4	5.5	0.0	32	26	1	5.5	3.4	0.0	2	0.576	0.000	L	32	5.5	1117.177	1118.031	1118.608	1118.610	0
2	22071911	336	High	1.5	Precise	1	26	33	22	3.4	5.4	0.0	26	33	22	3.4	5.4	0.0	2	0.524	0.001	D	33	5.4	1119.113	1119.796	1120.320	1120.322	0
2	22071911	337	High	1.5	Vague	2	33	34	2	5.4	6.7	0.6	2	34	33	0.6	6.7	5.4	1	0.407	0.001	R	33	5.4	1120.825	1123.752	1124.160	1124.162	0
2	22071911	338	High	1.5	Precise	1	32	34	24	5.5	6.7	0.0	34	24	32	6.7	0.0	5.5	2	0.395	0.001	L	34	6.7	1124.665	1126.309	1126.704	1126.706	0
2	22071911	339	High	1.5	Precise	1	32	34	22	5.5	6.7	0.0	22	32	34	0.0	5.5	6.7	2	0.483	0.001	R	34	6.7	1127.210	1128.989	1129.472	1129.474	0
2	22071911	340	High	1.5	Precise	1	26	34	30	3.4	6.7	0.0	26	34	30	3.4	6.7	0.0	1	0.621	0.001	L	26	3.4	1129.977	1132.803	1133.424	1133.427	0
2	22071911	341	High	1.5	Precise	1	33	34	35	5.4	6.7	0.0	33	35	34	5.4	0.0	6.7	1	0.600	0.001	L	33	5.4	1133.930	1135.944	1136.544	1136.546	0
2	22071911	342	High	1.5	Vague	2	27	32	2	4.0	5.5	0.6	27	2	32	4.0	0.6	5.5	2	0.454	0.001	R	32	5.5	1137.049	1139.306	1139.760	1139.762	0
2	22071911	343	High	1.5	Vague	2	29	27	18	2.3	4.0	0.0	29	27	18	2.3	4.0	0.0	3	0.517	0.000	R	18	0.0	1140.265	1142.618	1143.136	1143.138	0
2	22071911	344	High	1.5	Vague	2	33	34	5	5.4	6.7	0.0	34	33	5	6.7	5.4	0.0	1	0.599	0.001	D	33	5.4	1143.641	1144.137	1144.736	1144.738	0
2	22071911	345	High	1.5	Precise	1	29	34	28	2.3	6.7	0.7	29	34	28	2.3	6.7	0.7	2	0.917	0.001	D	34	6.7	1145.241	1146.827	1147.744	1147.746	0
2	22071911	346	High	1.5	Precise	1	29	33	35	2.3	5.4	0.0	29	35	33	2.3	0.0	5.4	2	0.489	0.000	R	33	5.4	1148.249	1149.463	1149.952	1149.954	0
2	22071911	347	High	1.5	Precise	1	27	32	22	4.0	5.5	0.0	22	32	27	0.0	5.5	4.0	2	0.485	0.001	D	32	5.5	1150.457	1152.156	1152.640	1152.643	0
2	22071911	348	High	1.5	Precise	1	33	32	22	5.4	5.5	0.0	22	32	33	0.0	5.5	5.4	1	0.581	0.000	R	33	5.4	1153.145	1154.874	1155.456	1155.458	0
2	22071911	349	High	1.5	Vague	2	29	32	7	2.3	5.5	0.0	7	29	32	0.0	2.3	5.5	2	1.062	0.000	R	32	5.5	1155.961	1156.857	1157.920	1157.922	0
2	22071911	350	High	1.5	Vague	2	27	33	18	4.0	5.4	0.0	27	18	33	4.0	0.0	5.4	2	0.560	0.000	R	33	5.4	1158.425	1160.047	1160.608	1160.610	0
2	22071911	351	High	1.5	Vague	2	26	34	7	3.4	6.7	0.0	34	26	7	6.7	3.4	0.0	3	0.417	0.001	R	7	0.0	1161.113	1162.847	1163.264	1163.266	0
2	22071911	352	High	1.5	Vague	2	29	33	14	2.3	5.4	0.0	33	29	14	5.4	2.3	0.0	2	0.797	0.001	L	33	5.4	1163.769	1164.403	1165.200	1165.202	0
2	22071911	353	High	1.5	Precise	1	26	27	28	3.4	4.0	0.7	28	26	27	0.7	3.4	4.0	1	0.724	0.000	D	26	3.4	1165.705	1166.956	1167.680	1167.682	0
2	22071911	354	High	1.5	Precise	1	29	27	28	2.3	4.0	0.7	29	28	27	2.3	0.7	4.0	3	0.708	0.000	D	28	0.7	1168.185	1169.004	1169.712	1169.714	0
2	22071911	355	High	1.5	Precise	1	29	33	24	2.3	5.4	0.0	24	33	29	0.0	5.4	2.3	2	0.630	0.000	D	33	5.4	1170.217	1172.042	1172.672	1172.674	0
2	22071911	356	High	1.5	Precise	1	27	33	24	4.0	5.4	0.0	24	33	27	0.0	5.4	4.0	2	0.541	0.001	D	33	5.4	1173.177	1173.955	1174.496	1174.498	0
2	22071911	357	High	1.5	Vague	2	32	34	5	5.5	6.7	0.0	34	32	5	6.7	5.5	0.0	1	0.759	0.001	D	32	5.5	1175.001	1177.353	1178.112	1178.114	0
2	22071911	358	High	1.5	Vague	2	29	34	7	2.3	6.7	0.0	34	7	29	6.7	0.0	2.3	2	0.411	0.001	L	34	6.7	1178.617	1181.268	1181.680	1181.682	0
2	22071911	359	High	1.5	Precise	1	33	32	35	5.4	5.5	0.0	32	35	33	5.5	0.0	5.4	1	0.813	0.001	R	33	5.4	1182.185	1183.955	1184.768	1184.770	0
2	22071911	360	High	1.5	Vague	2	32	34	7	5.5	6.7	0.0	7	34	32	0.0	6.7	5.5	2	0.942	0.001	D	34	6.7	1185.273	1186.402	1187.344	1187.346	0
