Group	subID	trial	TimePressure	TimeConstraint	Vagueness	Vaguenesscode	ID1	ID2	ID3	V1	V2	V3	ID_left	ID_middle	ID_right	Bid_left	Bid_middle	Bid_right	chosenItem	RT	RTvariance	chosenPosition	chosenID	chosenValue	fixation_time	option_time	choice_time	feedback_time	timeout
1	22102503	1	Low	10.0	Vague	2	10	18	35	26.8	47.4	17.6	35	10	18	17.6	26.8	47.4	2	0.868	0.001	R	18	47.4	5.737	7.304	8.172	8.176	0
1	22102503	2	Low	10.0	Precise	1	16	15	6	47.9	53.9	2.3	15	16	6	53.9	47.9	2.3	2	0.904	0.000	L	15	53.9	8.681	9.364	10.267	10.271	0
1	22102503	3	Low	10.0	Vague	2	9	16	35	27.4	47.9	17.6	16	9	35	47.9	27.4	17.6	2	0.788	0.000	L	16	47.9	10.776	11.448	12.235	12.238	0
1	22102503	4	Low	10.0	Precise	1	10	17	2	26.8	58.5	1.5	10	17	2	26.8	58.5	1.5	2	1.045	0.001	D	17	58.5	12.742	14.103	15.148	15.151	0
1	22102503	5	Low	10.0	Precise	1	10	9	2	26.8	27.4	1.5	9	2	10	27.4	1.5	26.8	2	0.687	0.001	L	9	27.4	15.654	16.509	17.196	17.200	0
1	22102503	6	Low	10.0	Precise	1	15	17	6	53.9	58.5	2.3	15	17	6	53.9	58.5	2.3	1	0.678	0.001	L	15	53.9	17.706	19.182	19.860	19.863	0
1	22102503	7	Low	10.0	Precise	1	15	17	3	53.9	58.5	2.1	17	3	15	58.5	2.1	53.9	1	0.614	0.000	R	15	53.9	20.365	21.541	22.155	22.158	0
1	22102503	8	Low	10.0	Vague	2	18	16	28	47.4	47.9	6.2	16	18	28	47.9	47.4	6.2	2	0.771	0.000	L	16	47.9	22.661	23.689	24.459	24.463	0
1	22102503	9	Low	10.0	Precise	1	16	15	13	47.9	53.9	15.3	15	16	13	53.9	47.9	15.3	1	0.772	0.001	D	16	47.9	24.965	26.104	26.876	26.878	0
1	22102503	10	Low	10.0	Vague	2	15	17	28	53.9	58.5	6.2	15	17	28	53.9	58.5	6.2	1	0.716	0.001	L	15	53.9	27.381	29.672	30.388	30.390	0
1	22102503	11	Low	10.0	Vague	2	9	15	19	27.4	53.9	1.4	9	15	19	27.4	53.9	1.4	1	0.850	0.001	L	9	27.4	30.893	31.498	32.348	32.350	0
1	22102503	12	Low	10.0	Vague	2	10	17	24	26.8	58.5	1.0	24	10	17	1.0	26.8	58.5	1	1.023	0.000	D	10	26.8	32.853	34.685	35.708	35.710	0
1	22102503	13	Low	10.0	Precise	1	18	16	6	47.4	47.9	2.3	6	18	16	2.3	47.4	47.9	2	0.737	0.000	R	16	47.9	36.214	37.827	38.564	38.566	0
1	22102503	14	Low	10.0	Vague	2	15	17	24	53.9	58.5	1.0	17	15	24	58.5	53.9	1.0	1	0.835	0.001	D	15	53.9	39.068	40.377	41.212	41.215	0
1	22102503	15	Low	10.0	Vague	2	16	15	26	47.9	53.9	10.2	15	16	26	53.9	47.9	10.2	2	0.940	0.001	L	15	53.9	41.717	42.720	43.660	43.662	0
1	22102503	16	Low	10.0	Precise	1	9	18	6	27.4	47.4	2.3	18	6	9	47.4	2.3	27.4	1	0.780	0.000	R	9	27.4	44.165	46.672	47.452	47.454	0
1	22102503	17	Low	10.0	Vague	2	9	17	34	27.4	58.5	22.9	17	34	9	58.5	22.9	27.4	1	0.980	0.001	R	9	27.4	47.957	49.160	50.140	50.142	0
1	22102503	18	Low	10.0	Precise	1	10	17	8	26.8	58.5	20.0	8	17	10	20.0	58.5	26.8	1	1.123	0.000	R	10	26.8	50.645	51.512	52.635	52.638	0
1	22102503	19	Low	10.0	Precise	1	9	16	3	27.4	47.9	2.1	3	9	16	2.1	27.4	47.9	2	0.891	0.001	R	16	47.9	53.141	55.569	56.460	56.462	0
1	22102503	20	Low	10.0	Vague	2	9	16	28	27.4	47.9	6.2	9	16	28	27.4	47.9	6.2	2	0.656	0.000	D	16	47.9	56.965	58.900	59.555	59.558	0
1	22102503	21	Low	10.0	Precise	1	9	17	13	27.4	58.5	15.3	13	17	9	15.3	58.5	27.4	1	0.665	0.000	R	9	27.4	60.060	61.146	61.812	61.814	0
1	22102503	22	Low	10.0	Vague	2	18	15	28	47.4	53.9	6.2	18	28	15	47.4	6.2	53.9	2	0.653	0.000	R	15	53.9	62.316	63.766	64.420	64.422	0
1	22102503	23	Low	10.0	Vague	2	10	15	28	26.8	53.9	6.2	28	15	10	6.2	53.9	26.8	1	0.817	0.000	R	10	26.8	64.925	65.554	66.371	66.374	0
1	22102503	24	Low	10.0	Precise	1	16	17	13	47.9	58.5	15.3	17	13	16	58.5	15.3	47.9	1	0.548	0.000	R	16	47.9	66.877	69.488	70.036	70.038	0
1	22102503	25	Low	10.0	Vague	2	9	17	24	27.4	58.5	1.0	9	17	24	27.4	58.5	1.0	1	0.676	0.000	L	9	27.4	70.540	71.144	71.819	71.822	0
1	22102503	26	Low	10.0	Precise	1	10	18	6	26.8	47.4	2.3	18	6	10	47.4	2.3	26.8	1	0.790	0.001	R	10	26.8	72.324	74.254	75.044	75.046	0
1	22102503	27	Low	10.0	Precise	1	16	17	2	47.9	58.5	1.5	2	16	17	1.5	47.9	58.5	1	0.748	0.001	D	16	47.9	75.549	76.415	77.164	77.166	0
1	22102503	28	Low	10.0	Vague	2	9	15	24	27.4	53.9	1.0	9	24	15	27.4	1.0	53.9	1	0.738	0.000	L	9	27.4	77.668	80.625	81.364	81.366	0
1	22102503	29	Low	10.0	Precise	1	18	16	13	47.4	47.9	15.3	18	13	16	47.4	15.3	47.9	2	0.550	0.001	R	16	47.9	81.869	82.917	83.468	83.470	0
1	22102503	30	Low	10.0	Precise	1	9	15	4	27.4	53.9	7.2	4	15	9	7.2	53.9	27.4	1	0.656	0.000	R	9	27.4	83.972	84.548	85.203	85.206	0
1	22102503	31	Low	10.0	Precise	1	18	17	8	47.4	58.5	20.0	8	17	18	20.0	58.5	47.4	3	1.275	0.000	L	8	20.0	85.709	87.744	89.019	89.022	0
1	22102503	32	Low	10.0	Precise	1	18	17	2	47.4	58.5	1.5	18	17	2	47.4	58.5	1.5	1	0.845	0.000	L	18	47.4	89.524	92.494	93.339	93.342	0
1	22102503	33	Low	10.0	Precise	1	18	16	8	47.4	47.9	20.0	8	18	16	20.0	47.4	47.9	2	0.669	0.001	R	16	47.9	93.844	96.711	97.380	97.382	0
1	22102503	34	Low	10.0	Precise	1	9	17	8	27.4	58.5	20.0	17	8	9	58.5	20.0	27.4	1	0.958	0.001	R	9	27.4	97.884	100.534	101.492	101.494	0
1	22102503	35	Low	10.0	Vague	2	16	15	24	47.9	53.9	1.0	24	16	15	1.0	47.9	53.9	1	0.904	0.001	D	16	47.9	101.997	104.180	105.084	105.086	0
1	22102503	36	Low	10.0	Vague	2	10	17	35	26.8	58.5	17.6	10	17	35	26.8	58.5	17.6	1	0.888	0.000	L	10	26.8	105.589	107.091	107.979	107.982	0
1	22102503	37	Low	10.0	Vague	2	18	16	26	47.4	47.9	10.2	16	26	18	47.9	10.2	47.4	2	0.568	0.000	L	16	47.9	108.485	109.532	110.100	110.102	0
1	22102503	38	Low	10.0	Precise	1	9	16	4	27.4	47.9	7.2	4	16	9	7.2	47.9	27.4	2	0.752	0.001	D	16	47.9	110.605	112.651	113.404	113.406	0
1	22102503	39	Low	10.0	Vague	2	10	9	19	26.8	27.4	1.4	9	19	10	27.4	1.4	26.8	2	0.605	0.001	L	9	27.4	113.908	116.111	116.716	116.718	0
1	22102503	40	Low	10.0	Vague	2	10	15	34	26.8	53.9	22.9	34	10	15	22.9	26.8	53.9	2	0.614	0.000	R	15	53.9	117.220	118.702	119.316	119.318	0
1	22102503	41	Low	10.0	Precise	1	18	17	13	47.4	58.5	15.3	17	18	13	58.5	47.4	15.3	2	1.120	0.001	L	17	58.5	119.820	122.780	123.900	123.902	0
1	22102503	42	Low	10.0	Precise	1	9	17	3	27.4	58.5	2.1	9	17	3	27.4	58.5	2.1	1	0.888	0.000	L	9	27.4	124.405	127.275	128.164	128.166	0
1	22102503	43	Low	10.0	Precise	1	15	17	13	53.9	58.5	15.3	13	15	17	15.3	53.9	58.5	1	0.891	0.001	D	15	53.9	128.669	131.593	132.484	132.486	0
1	22102503	44	Low	10.0	Precise	1	9	15	2	27.4	53.9	1.5	15	9	2	53.9	27.4	1.5	1	0.988	0.000	D	9	27.4	132.989	134.672	135.659	135.663	0
1	22102503	45	Low	10.0	Precise	1	18	16	4	47.4	47.9	7.2	4	16	18	7.2	47.9	47.4	2	0.753	0.000	D	16	47.9	136.165	138.859	139.612	139.614	0
1	22102503	46	Low	10.0	Vague	2	18	16	35	47.4	47.9	17.6	16	35	18	47.9	17.6	47.4	2	0.499	0.001	L	16	47.9	140.117	143.081	143.580	143.582	0
1	22102503	47	Low	10.0	Vague	2	16	17	26	47.9	58.5	10.2	16	17	26	47.9	58.5	10.2	1	0.471	0.000	L	16	47.9	144.085	146.916	147.388	147.390	0
1	22102503	48	Low	10.0	Vague	2	9	15	34	27.4	53.9	22.9	9	15	34	27.4	53.9	22.9	1	1.161	0.000	L	9	27.4	147.893	148.763	149.923	149.926	0
1	22102503	49	Low	10.0	Vague	2	10	16	35	26.8	47.9	17.6	10	35	16	26.8	17.6	47.9	2	0.526	0.000	R	16	47.9	150.428	152.797	153.323	153.326	0
1	22102503	50	Low	10.0	Precise	1	9	15	3	27.4	53.9	2.1	3	9	15	2.1	27.4	53.9	2	0.593	0.001	R	15	53.9	153.828	156.235	156.828	156.830	0
1	22102503	51	Low	10.0	Precise	1	16	15	3	47.9	53.9	2.1	15	16	3	53.9	47.9	2.1	1	0.755	0.001	D	16	47.9	157.333	159.825	160.580	160.582	0
1	22102503	52	Low	10.0	Vague	2	10	16	34	26.8	47.9	22.9	34	10	16	22.9	26.8	47.9	2	0.554	0.000	R	16	47.9	161.085	162.433	162.987	162.990	0
1	22102503	53	Low	10.0	Precise	1	10	9	8	26.8	27.4	20.0	9	8	10	27.4	20.0	26.8	2	0.678	0.000	L	9	27.4	163.492	165.957	166.635	166.638	0
1	22102503	54	Low	10.0	Precise	1	18	15	13	47.4	53.9	15.3	15	18	13	53.9	47.4	15.3	2	0.761	0.000	L	15	53.9	167.140	169.339	170.100	170.102	0
1	22102503	55	Low	10.0	Precise	1	10	17	6	26.8	58.5	2.3	6	10	17	2.3	26.8	58.5	2	0.712	0.000	R	17	58.5	170.604	171.228	171.940	171.942	0
1	22102503	56	Low	10.0	Precise	1	16	15	8	47.9	53.9	20.0	16	8	15	47.9	20.0	53.9	1	0.555	0.000	L	16	47.9	172.445	173.256	173.811	173.814	0
1	22102503	57	Low	10.0	Precise	1	10	9	3	26.8	27.4	2.1	3	9	10	2.1	27.4	26.8	2	0.724	0.001	D	9	27.4	174.316	176.248	176.972	176.974	0
1	22102503	58	Low	10.0	Vague	2	9	18	34	27.4	47.4	22.9	34	18	9	22.9	47.4	27.4	1	0.570	0.000	R	9	27.4	177.477	179.217	179.788	179.790	0
1	22102503	59	Low	10.0	Vague	2	9	15	26	27.4	53.9	10.2	9	15	26	27.4	53.9	10.2	1	0.652	0.000	L	9	27.4	180.292	181.007	181.659	181.662	0
1	22102503	60	Low	10.0	Vague	2	15	17	19	53.9	58.5	1.4	19	15	17	1.4	53.9	58.5	1	0.651	0.001	D	15	53.9	182.164	183.481	184.132	184.134	0
1	22102503	61	Low	10.0	Precise	1	10	15	13	26.8	53.9	15.3	10	13	15	26.8	15.3	53.9	1	0.753	0.000	L	10	26.8	190.808	193.635	194.388	194.390	0
1	22102503	62	Low	10.0	Vague	2	10	17	26	26.8	58.5	10.2	17	26	10	58.5	10.2	26.8	1	0.762	0.001	R	10	26.8	194.892	195.482	196.244	196.246	0
1	22102503	63	Low	10.0	Precise	1	10	16	3	26.8	47.9	2.1	10	16	3	26.8	47.9	2.1	2	0.453	0.000	D	16	47.9	196.749	198.727	199.180	199.182	0
1	22102503	64	Low	10.0	Vague	2	15	17	34	53.9	58.5	22.9	34	15	17	22.9	53.9	58.5	1	0.676	0.000	D	15	53.9	199.685	200.480	201.156	201.158	0
1	22102503	65	Low	10.0	Vague	2	18	16	34	47.4	47.9	22.9	34	16	18	22.9	47.9	47.4	2	0.511	0.000	D	16	47.9	201.661	203.589	204.100	204.103	0
1	22102503	66	Low	10.0	Vague	2	10	18	24	26.8	47.4	1.0	18	24	10	47.4	1.0	26.8	1	0.954	0.000	R	10	26.8	204.606	207.337	208.292	208.294	0
1	22102503	67	Low	10.0	Precise	1	10	15	2	26.8	53.9	1.5	2	15	10	1.5	53.9	26.8	2	0.902	0.001	D	15	53.9	208.796	211.638	212.540	212.542	0
1	22102503	68	Low	10.0	Vague	2	10	18	28	26.8	47.4	6.2	10	28	18	26.8	6.2	47.4	1	0.815	0.000	L	10	26.8	213.045	214.428	215.244	215.246	0
1	22102503	69	Low	10.0	Vague	2	10	17	19	26.8	58.5	1.4	19	17	10	1.4	58.5	26.8	1	0.714	0.001	R	10	26.8	215.749	218.378	219.092	219.094	0
1	22102503	70	Low	10.0	Vague	2	10	16	26	26.8	47.9	10.2	16	26	10	47.9	10.2	26.8	2	0.634	0.001	L	16	47.9	219.597	221.425	222.060	222.062	0
1	22102503	71	Low	10.0	Vague	2	9	17	35	27.4	58.5	17.6	17	35	9	58.5	17.6	27.4	1	0.547	0.000	R	9	27.4	222.565	224.809	225.356	225.358	0
1	22102503	72	Low	10.0	Precise	1	10	16	2	26.8	47.9	1.5	10	16	2	26.8	47.9	1.5	2	0.504	0.001	D	16	47.9	225.860	228.163	228.668	228.670	0
1	22102503	73	Low	10.0	Precise	1	18	15	8	47.4	53.9	20.0	15	18	8	53.9	47.4	20.0	2	0.651	0.001	L	15	53.9	229.172	231.689	232.339	232.342	0
1	22102503	74	Low	10.0	Vague	2	10	9	34	26.8	27.4	22.9	9	10	34	27.4	26.8	22.9	2	0.622	0.000	L	9	27.4	232.844	233.845	234.467	234.470	0
1	22102503	75	Low	10.0	Precise	1	18	15	3	47.4	53.9	2.1	15	3	18	53.9	2.1	47.4	2	0.594	0.001	L	15	53.9	234.972	236.170	236.764	236.766	0
1	22102503	76	Low	10.0	Precise	1	10	16	13	26.8	47.9	15.3	13	16	10	15.3	47.9	26.8	2	0.563	0.000	D	16	47.9	237.269	238.696	239.259	239.262	0
1	22102503	77	Low	10.0	Vague	2	9	17	19	27.4	58.5	1.4	9	17	19	27.4	58.5	1.4	1	0.644	0.001	L	9	27.4	239.765	240.703	241.347	241.350	0
1	22102503	78	Low	10.0	Vague	2	9	18	19	27.4	47.4	1.4	18	19	9	47.4	1.4	27.4	1	0.555	0.001	R	9	27.4	241.853	244.616	245.172	245.174	0
1	22102503	79	Low	10.0	Vague	2	18	17	34	47.4	58.5	22.9	18	17	34	47.4	58.5	22.9	1	0.656	0.001	L	18	47.4	245.676	247.259	247.916	247.918	0
1	22102503	80	Low	10.0	Vague	2	9	15	28	27.4	53.9	6.2	28	15	9	6.2	53.9	27.4	1	0.659	0.001	R	9	27.4	248.421	249.945	250.604	250.606	0
1	22102503	81	Low	10.0	Vague	2	16	17	24	47.9	58.5	1.0	17	16	24	58.5	47.9	1.0	1	0.995	0.001	D	16	47.9	251.109	252.176	253.172	253.174	0
1	22102503	82	Low	10.0	Vague	2	10	18	26	26.8	47.4	10.2	18	26	10	47.4	10.2	26.8	2	0.794	0.000	L	18	47.4	253.677	256.465	257.259	257.262	0
1	22102503	83	Low	10.0	Vague	2	16	17	28	47.9	58.5	6.2	16	17	28	47.9	58.5	6.2	1	0.716	0.000	L	16	47.9	257.764	259.231	259.947	259.950	0
1	22102503	84	Low	10.0	Precise	1	10	16	4	26.8	47.9	7.2	16	10	4	47.9	26.8	7.2	2	0.453	0.000	L	16	47.9	260.452	261.358	261.811	261.814	0
1	22102503	85	Low	10.0	Vague	2	18	15	26	47.4	53.9	10.2	15	26	18	53.9	10.2	47.4	2	0.588	0.000	L	15	53.9	262.317	263.752	264.340	264.342	0
1	22102503	86	Low	10.0	Vague	2	10	17	28	26.8	58.5	6.2	17	10	28	58.5	26.8	6.2	2	0.786	0.001	L	17	58.5	264.845	265.858	266.644	266.646	0
1	22102503	87	Low	10.0	Vague	2	9	16	34	27.4	47.9	22.9	9	34	16	27.4	22.9	47.9	2	0.431	0.001	R	16	47.9	267.148	269.772	270.203	270.206	0
1	22102503	88	Low	10.0	Vague	2	9	16	19	27.4	47.9	1.4	19	9	16	1.4	27.4	47.9	2	0.433	0.000	R	16	47.9	270.709	271.946	272.380	272.382	0
1	22102503	89	Low	10.0	Vague	2	15	17	26	53.9	58.5	10.2	17	26	15	58.5	10.2	53.9	1	0.590	0.001	R	15	53.9	272.885	273.541	274.132	274.134	0
1	22102503	90	Low	10.0	Precise	1	18	17	3	47.4	58.5	2.1	18	17	3	47.4	58.5	2.1	1	0.766	0.000	L	18	47.4	274.637	276.150	276.916	276.918	0
1	22102503	91	Low	10.0	Vague	2	9	17	28	27.4	58.5	6.2	9	17	28	27.4	58.5	6.2	1	0.498	0.000	L	9	27.4	277.421	279.161	279.659	279.662	0
1	22102503	92	Low	10.0	Vague	2	9	18	26	27.4	47.4	10.2	18	9	26	47.4	27.4	10.2	1	0.673	0.000	D	9	27.4	280.164	281.291	281.963	281.966	0
1	22102503	93	Low	10.0	Vague	2	16	17	34	47.9	58.5	22.9	16	17	34	47.9	58.5	22.9	1	0.499	0.000	L	16	47.9	282.468	283.880	284.380	284.382	0
1	22102503	94	Low	10.0	Precise	1	10	17	3	26.8	58.5	2.1	3	17	10	2.1	58.5	26.8	2	0.597	0.001	D	17	58.5	284.885	285.607	286.204	286.206	0
1	22102503	95	Low	10.0	Precise	1	9	18	8	27.4	47.4	20.0	8	9	18	20.0	27.4	47.4	3	0.596	0.000	L	8	20.0	286.709	287.463	288.059	288.062	0
1	22102503	96	Low	10.0	Vague	2	18	15	34	47.4	53.9	22.9	34	18	15	22.9	47.4	53.9	2	0.737	0.000	R	15	53.9	288.565	289.738	290.475	290.478	0
1	22102503	97	Low	10.0	Vague	2	18	17	26	47.4	58.5	10.2	18	17	26	47.4	58.5	10.2	1	0.736	0.000	L	18	47.4	290.980	293.459	294.196	294.198	0
1	22102503	98	Low	10.0	Precise	1	18	17	4	47.4	58.5	7.2	4	18	17	7.2	47.4	58.5	3	0.796	0.000	L	4	7.2	294.701	295.864	296.659	296.662	0
1	22102503	99	Low	10.0	Precise	1	9	18	3	27.4	47.4	2.1	9	18	3	27.4	47.4	2.1	1	0.542	0.001	L	9	27.4	297.164	298.214	298.756	298.758	0
1	22102503	100	Low	10.0	Precise	1	9	16	6	27.4	47.9	2.3	9	6	16	27.4	2.3	47.9	2	0.430	0.000	R	16	47.9	299.261	300.973	301.403	301.406	0
1	22102503	101	Low	10.0	Precise	1	9	16	2	27.4	47.9	1.5	16	9	2	47.9	27.4	1.5	2	0.437	0.000	L	16	47.9	301.909	304.215	304.651	304.654	0
1	22102503	102	Low	10.0	Vague	2	10	15	35	26.8	53.9	17.6	15	10	35	53.9	26.8	17.6	2	0.692	0.000	L	15	53.9	305.157	307.087	307.779	307.782	0
1	22102503	103	Low	10.0	Vague	2	18	17	19	47.4	58.5	1.4	19	18	17	1.4	47.4	58.5	3	0.750	0.001	L	19	1.4	308.284	308.886	309.635	309.638	0
1	22102503	104	Low	10.0	Precise	1	9	18	4	27.4	47.4	7.2	9	18	4	27.4	47.4	7.2	1	0.608	0.000	L	9	27.4	310.140	311.459	312.067	312.070	0
1	22102503	105	Low	10.0	Precise	1	18	15	4	47.4	53.9	7.2	15	4	18	53.9	7.2	47.4	2	0.755	0.000	L	15	53.9	312.572	313.721	314.475	314.478	0
1	22102503	106	Low	10.0	Vague	2	10	15	26	26.8	53.9	10.2	10	15	26	26.8	53.9	10.2	1	0.836	0.000	L	10	26.8	314.980	316.807	317.643	317.646	0
1	22102503	107	Low	10.0	Precise	1	9	16	8	27.4	47.9	20.0	9	8	16	27.4	20.0	47.9	2	0.848	0.000	R	16	47.9	318.148	320.995	321.843	321.846	0
1	22102503	108	Low	10.0	Vague	2	9	18	28	27.4	47.4	6.2	18	9	28	47.4	27.4	6.2	1	0.638	0.001	D	9	27.4	322.348	324.037	324.676	324.678	0
1	22102503	109	Low	10.0	Precise	1	10	17	13	26.8	58.5	15.3	13	17	10	15.3	58.5	26.8	1	0.692	0.000	R	10	26.8	325.181	327.519	328.211	328.214	0
1	22102503	110	Low	10.0	Precise	1	10	18	2	26.8	47.4	1.5	10	18	2	26.8	47.4	1.5	2	1.160	0.000	D	18	47.4	328.717	329.332	330.491	330.494	0
1	22102503	111	Low	10.0	Vague	2	18	17	24	47.4	58.5	1.0	17	24	18	58.5	1.0	47.4	2	1.048	0.000	L	17	58.5	330.996	333.148	334.196	334.198	0
1	22102503	112	Low	10.0	Vague	2	9	16	26	27.4	47.9	10.2	16	9	26	47.9	27.4	10.2	2	0.550	0.000	L	16	47.9	334.701	337.533	338.083	338.086	0
1	22102503	113	Low	10.0	Vague	2	10	9	35	26.8	27.4	17.6	10	35	9	26.8	17.6	27.4	2	0.546	0.000	R	9	27.4	338.588	340.897	341.443	341.446	0
1	22102503	114	Low	10.0	Precise	1	10	18	13	26.8	47.4	15.3	10	13	18	26.8	15.3	47.4	2	0.836	0.001	R	18	47.4	341.948	342.448	343.284	343.286	0
1	22102503	115	Low	10.0	Vague	2	15	17	35	53.9	58.5	17.6	15	35	17	53.9	17.6	58.5	1	0.850	0.000	L	15	53.9	343.788	346.033	346.883	346.886	0
1	22102503	116	Low	10.0	Precise	1	10	16	6	26.8	47.9	2.3	16	10	6	47.9	26.8	2.3	2	0.522	0.000	L	16	47.9	347.389	348.273	348.795	348.798	0
1	22102503	117	Low	10.0	Precise	1	10	15	6	26.8	53.9	2.3	10	15	6	26.8	53.9	2.3	2	0.698	0.000	D	15	53.9	349.301	352.082	352.779	352.782	0
1	22102503	118	Low	10.0	Precise	1	16	15	4	47.9	53.9	7.2	16	15	4	47.9	53.9	7.2	1	0.467	0.000	L	16	47.9	353.284	354.544	355.011	355.014	0
1	22102503	119	Low	10.0	Precise	1	9	18	2	27.4	47.4	1.5	18	2	9	47.4	1.5	27.4	1	0.488	0.001	R	9	27.4	355.517	356.419	356.907	356.910	0
1	22102503	120	Low	10.0	Precise	1	16	15	2	47.9	53.9	1.5	15	16	2	53.9	47.9	1.5	1	0.796	0.000	D	16	47.9	357.413	358.047	358.844	358.846	0
1	22102503	121	Low	10.0	Vague	2	18	15	35	47.4	53.9	17.6	18	35	15	47.4	17.6	53.9	2	0.479	0.000	R	15	53.9	364.759	367.204	367.683	367.686	0
1	22102503	122	Low	10.0	Vague	2	16	15	19	47.9	53.9	1.4	16	15	19	47.9	53.9	1.4	1	0.499	0.000	L	16	47.9	368.188	371.040	371.539	371.542	0
1	22102503	123	Low	10.0	Precise	1	10	9	4	26.8	27.4	7.2	9	10	4	27.4	26.8	7.2	2	0.483	0.001	L	9	27.4	372.045	374.056	374.539	374.542	0
1	22102503	124	Low	10.0	Precise	1	18	16	2	47.4	47.9	1.5	18	2	16	47.4	1.5	47.9	2	0.462	0.000	R	16	47.9	375.045	376.701	377.163	377.166	0
1	22102503	125	Low	10.0	Precise	1	9	16	13	27.4	47.9	15.3	16	13	9	47.9	15.3	27.4	1	0.602	0.000	R	9	27.4	377.668	378.921	379.523	379.526	0
1	22102503	126	Low	10.0	Precise	1	16	17	6	47.9	58.5	2.3	6	16	17	2.3	47.9	58.5	1	0.480	0.000	D	16	47.9	380.029	383.019	383.499	383.502	0
1	22102503	127	Low	10.0	Precise	1	10	18	8	26.8	47.4	20.0	10	8	18	26.8	20.0	47.4	3	0.845	0.001	D	8	20.0	384.004	384.958	385.803	385.806	0
1	22102503	128	Low	10.0	Precise	1	9	17	4	27.4	58.5	7.2	9	17	4	27.4	58.5	7.2	1	0.560	0.001	L	9	27.4	386.309	387.859	388.420	388.422	0
1	22102503	129	Low	10.0	Vague	2	10	16	19	26.8	47.9	1.4	10	19	16	26.8	1.4	47.9	2	0.503	0.000	R	16	47.9	388.924	391.724	392.227	392.230	0
1	22102503	130	Low	10.0	Vague	2	18	16	19	47.4	47.9	1.4	16	19	18	47.9	1.4	47.4	2	0.640	0.000	L	16	47.9	392.732	393.803	394.443	394.446	0
1	22102503	131	Low	10.0	Vague	2	10	16	28	26.8	47.9	6.2	10	16	28	26.8	47.9	6.2	2	0.843	0.001	D	16	47.9	394.949	396.888	397.731	397.734	0
1	22102503	132	Low	10.0	Vague	2	18	17	28	47.4	58.5	6.2	17	18	28	58.5	47.4	6.2	2	0.912	0.000	L	17	58.5	398.236	400.572	401.483	401.486	0
1	22102503	133	Low	10.0	Vague	2	16	15	34	47.9	53.9	22.9	16	15	34	47.9	53.9	22.9	1	0.637	0.001	L	16	47.9	401.988	402.646	403.283	403.286	0
1	22102503	134	Low	10.0	Vague	2	16	17	19	47.9	58.5	1.4	19	17	16	1.4	58.5	47.9	1	0.601	0.000	R	16	47.9	403.789	405.411	406.011	406.014	0
1	22102503	135	Low	10.0	Precise	1	10	9	13	26.8	27.4	15.3	13	9	10	15.3	27.4	26.8	2	0.664	0.000	D	9	27.4	406.516	407.339	408.003	408.006	0
1	22102503	136	Low	10.0	Precise	1	18	17	6	47.4	58.5	2.3	17	18	6	58.5	47.4	2.3	2	1.277	0.001	L	17	58.5	408.508	410.391	411.668	411.670	0
1	22102503	137	Low	10.0	Vague	2	18	17	35	47.4	58.5	17.6	17	18	35	58.5	47.4	17.6	2	0.594	0.000	L	17	58.5	412.173	413.209	413.803	413.806	0
1	22102503	138	Low	10.0	Vague	2	10	15	19	26.8	53.9	1.4	10	15	19	26.8	53.9	1.4	2	0.630	0.000	D	15	53.9	414.309	416.893	417.523	417.526	0
1	22102503	139	Low	10.0	Vague	2	16	15	28	47.9	53.9	6.2	15	16	28	53.9	47.9	6.2	1	0.526	0.000	D	16	47.9	418.029	419.094	419.619	419.622	0
1	22102503	140	Low	10.0	Precise	1	18	15	2	47.4	53.9	1.5	2	15	18	1.5	53.9	47.4	2	0.614	0.001	D	15	53.9	420.124	422.982	423.595	423.598	0
1	22102503	141	Low	10.0	Precise	1	9	15	6	27.4	53.9	2.3	9	6	15	27.4	2.3	53.9	1	0.670	0.000	L	9	27.4	424.100	426.718	427.387	427.390	0
1	22102503	142	Low	10.0	Vague	2	9	18	35	27.4	47.4	17.6	35	9	18	17.6	27.4	47.4	1	0.548	0.001	D	9	27.4	427.893	430.376	430.923	430.926	0
1	22102503	143	Low	10.0	Precise	1	16	17	8	47.9	58.5	20.0	17	16	8	58.5	47.9	20.0	1	0.630	0.000	D	16	47.9	431.428	433.261	433.891	433.894	0
1	22102503	144	Low	10.0	Vague	2	9	18	24	27.4	47.4	1.0	24	18	9	1.0	47.4	27.4	1	0.560	0.000	R	9	27.4	434.396	436.931	437.491	437.494	0
1	22102503	145	Low	10.0	Vague	2	16	15	35	47.9	53.9	17.6	15	35	16	53.9	17.6	47.9	1	0.554	0.000	R	16	47.9	437.996	440.681	441.235	441.238	0
1	22102503	146	Low	10.0	Precise	1	10	15	8	26.8	53.9	20.0	10	15	8	26.8	53.9	20.0	2	0.718	0.001	D	15	53.9	441.740	442.525	443.243	443.246	0
1	22102503	147	Low	10.0	Precise	1	10	15	3	26.8	53.9	2.1	15	3	10	53.9	2.1	26.8	2	0.888	0.000	L	15	53.9	443.749	444.843	445.731	445.734	0
1	22102503	148	Low	10.0	Precise	1	15	17	4	53.9	58.5	7.2	4	17	15	7.2	58.5	53.9	1	0.626	0.000	R	15	53.9	446.236	448.601	449.227	449.230	0
1	22102503	149	Low	10.0	Vague	2	16	17	35	47.9	58.5	17.6	35	17	16	17.6	58.5	47.9	1	0.505	0.000	R	16	47.9	449.732	451.170	451.675	451.677	0
1	22102503	150	Low	10.0	Precise	1	9	15	8	27.4	53.9	20.0	8	15	9	20.0	53.9	27.4	1	0.691	0.000	R	9	27.4	452.180	453.368	454.059	454.061	0
1	22102503	151	Low	10.0	Vague	2	10	9	24	26.8	27.4	1.0	24	9	10	1.0	27.4	26.8	2	0.640	0.001	D	9	27.4	454.565	456.556	457.195	457.198	0
1	22102503	152	Low	10.0	Precise	1	10	15	4	26.8	53.9	7.2	15	10	4	53.9	26.8	7.2	2	0.598	0.000	L	15	53.9	457.700	459.436	460.035	460.038	0
1	22102503	153	Low	10.0	Precise	1	9	17	2	27.4	58.5	1.5	9	2	17	27.4	1.5	58.5	1	0.616	0.001	L	9	27.4	460.541	461.516	462.131	462.134	0
1	22102503	154	Low	10.0	Precise	1	10	18	4	26.8	47.4	7.2	4	18	10	7.2	47.4	26.8	1	0.910	0.000	R	10	26.8	462.636	463.782	464.691	464.694	0
1	22102503	155	Low	10.0	Precise	1	18	15	6	47.4	53.9	2.3	15	18	6	53.9	47.4	2.3	2	0.499	0.001	L	15	53.9	465.196	466.536	467.035	467.038	0
1	22102503	156	Low	10.0	Precise	1	15	17	2	53.9	58.5	1.5	2	15	17	1.5	53.9	58.5	1	0.527	0.001	D	15	53.9	467.541	469.660	470.187	470.190	0
1	22102503	157	Low	10.0	Precise	1	10	18	3	26.8	47.4	2.1	18	10	3	47.4	26.8	2.1	1	0.714	0.000	D	10	26.8	470.693	472.473	473.187	473.190	0
1	22102503	158	Low	10.0	Vague	2	18	16	24	47.4	47.9	1.0	24	16	18	1.0	47.9	47.4	2	0.679	0.001	D	16	47.9	473.693	474.716	475.395	475.398	0
1	22102503	159	Low	10.0	Precise	1	10	17	4	26.8	58.5	7.2	17	4	10	58.5	7.2	26.8	2	0.733	0.000	L	17	58.5	475.900	477.030	477.763	477.766	0
1	22102503	160	Low	10.0	Vague	2	10	16	24	26.8	47.9	1.0	24	10	16	1.0	26.8	47.9	2	0.540	0.001	R	16	47.9	478.269	480.199	480.740	480.742	0
1	22102503	161	Low	10.0	Vague	2	18	15	19	47.4	53.9	1.4	19	15	18	1.4	53.9	47.4	2	0.632	0.001	D	15	53.9	481.244	483.971	484.603	484.606	0
1	22102503	162	Low	10.0	Vague	2	10	15	24	26.8	53.9	1.0	24	15	10	1.0	53.9	26.8	2	0.794	0.001	D	15	53.9	485.108	485.977	486.771	486.774	0
1	22102503	163	Low	10.0	Vague	2	10	18	34	26.8	47.4	22.9	10	18	34	26.8	47.4	22.9	2	0.651	0.000	D	18	47.4	487.277	488.465	489.115	489.118	0
1	22102503	164	Low	10.0	Precise	1	9	15	13	27.4	53.9	15.3	9	13	15	27.4	15.3	53.9	2	0.617	0.000	R	15	53.9	489.620	490.554	491.171	491.174	0
1	22102503	165	Low	10.0	Vague	2	9	16	24	27.4	47.9	1.0	9	16	24	27.4	47.9	1.0	1	0.696	0.000	L	9	27.4	491.676	492.803	493.499	493.502	0
1	22102503	166	Low	10.0	Precise	1	10	16	8	26.8	47.9	20.0	16	8	10	47.9	20.0	26.8	2	0.477	0.000	L	16	47.9	494.005	494.766	495.243	495.245	0
1	22102503	167	Low	10.0	Precise	1	16	17	3	47.9	58.5	2.1	17	3	16	58.5	2.1	47.9	1	0.723	0.001	R	16	47.9	495.748	497.928	498.651	498.654	0
1	22102503	168	Low	10.0	Vague	2	9	17	26	27.4	58.5	10.2	9	26	17	27.4	10.2	58.5	1	0.519	0.001	L	9	27.4	499.157	501.677	502.195	502.198	0
1	22102503	169	Low	10.0	Precise	1	9	17	6	27.4	58.5	2.3	6	17	9	2.3	58.5	27.4	1	0.759	0.001	R	9	27.4	502.701	503.381	504.139	504.142	0
1	22102503	170	Low	10.0	Precise	1	16	17	4	47.9	58.5	7.2	16	17	4	47.9	58.5	7.2	1	0.500	0.001	L	16	47.9	504.645	507.336	507.835	507.838	0
1	22102503	171	Low	10.0	Vague	2	18	15	24	47.4	53.9	1.0	18	15	24	47.4	53.9	1.0	3	0.389	0.000	R	24	1.0	508.340	510.782	511.171	511.174	0
1	22102503	172	Low	10.0	Vague	2	10	9	28	26.8	27.4	6.2	28	10	9	6.2	26.8	27.4	2	0.535	0.001	R	9	27.4	511.677	514.068	514.603	514.606	0
1	22102503	173	Low	10.0	Precise	1	9	18	13	27.4	47.4	15.3	13	18	9	15.3	47.4	27.4	1	0.429	0.000	R	9	27.4	515.108	518.014	518.443	518.445	0
1	22102503	174	Low	10.0	Vague	2	10	18	19	26.8	47.4	1.4	10	18	19	26.8	47.4	1.4	2	0.791	0.000	D	18	47.4	518.948	519.460	520.251	520.254	0
1	22102503	175	Low	10.0	Precise	1	18	16	3	47.4	47.9	2.1	18	16	3	47.4	47.9	2.1	2	0.535	0.001	D	16	47.9	520.756	523.700	524.235	524.238	0
1	22102503	176	Low	10.0	Precise	1	15	17	8	53.9	58.5	20.0	17	8	15	58.5	20.0	53.9	3	0.642	0.001	D	8	20.0	524.740	527.617	528.259	528.262	0
1	22102503	177	Low	10.0	Vague	2	9	15	35	27.4	53.9	17.6	35	9	15	17.6	27.4	53.9	1	0.555	0.000	D	9	27.4	528.764	530.736	531.291	531.294	0
1	22102503	178	Low	10.0	Vague	2	10	9	26	26.8	27.4	10.2	10	26	9	26.8	10.2	27.4	2	0.509	0.000	R	9	27.4	531.796	532.614	533.123	533.125	0
1	22102503	179	Low	10.0	Precise	1	10	9	6	26.8	27.4	2.3	10	9	6	26.8	27.4	2.3	2	0.518	0.000	D	9	27.4	533.628	535.262	535.779	535.782	0
1	22102503	180	Low	10.0	Vague	2	10	17	34	26.8	58.5	22.9	34	17	10	22.9	58.5	26.8	2	0.643	0.000	D	17	58.5	536.285	538.185	538.827	538.830	0
1	22102503	181	High	1.5	Vague	2	18	17	27	47.4	58.5	22.0	17	27	18	58.5	22.0	47.4	2	0.545	0.000	L	17	58.5	547.500	549.354	549.899	549.901	0
1	22102503	182	High	1.5	Precise	1	10	15	7	26.8	53.9	2.0	15	10	7	53.9	26.8	2.0	2	0.607	0.000	L	15	53.9	550.404	551.252	551.859	551.861	0
1	22102503	183	High	1.5	Vague	2	10	16	20	26.8	47.9	1.2	20	16	10	1.2	47.9	26.8	2	0.498	0.000	D	16	47.9	552.364	555.282	555.779	555.782	0
1	22102503	184	High	1.5	Vague	2	10	16	25	26.8	47.9	16.5	16	10	25	47.9	26.8	16.5	2	0.498	0.001	L	16	47.9	556.285	557.113	557.611	557.614	0
1	22102503	185	High	1.5	Precise	1	10	9	1	26.8	27.4	2.2	1	10	9	2.2	26.8	27.4	2	0.595	0.001	R	9	27.4	558.117	560.040	560.635	560.638	0
1	22102503	186	High	1.5	Precise	1	9	18	12	27.4	47.4	24.6	12	9	18	24.6	27.4	47.4	1	0.525	0.000	D	9	27.4	561.141	562.918	563.443	563.445	0
1	22102503	187	High	1.5	Vague	2	9	18	25	27.4	47.4	16.5	9	18	25	27.4	47.4	16.5	1	0.443	0.000	L	9	27.4	563.948	565.856	566.299	566.301	0
1	22102503	188	High	1.5	Precise	1	18	15	1	47.4	53.9	2.2	1	15	18	2.2	53.9	47.4	2	0.579	0.000	D	15	53.9	566.804	568.625	569.203	569.205	0
1	22102503	189	High	1.5	Vague	2	16	15	25	47.9	53.9	16.5	16	15	25	47.9	53.9	16.5	1	0.479	0.001	L	16	47.9	569.708	572.140	572.619	572.621	0
1	22102503	190	High	1.5	Vague	2	15	17	25	53.9	58.5	16.5	15	25	17	53.9	16.5	58.5	1	0.470	0.001	L	15	53.9	573.124	575.101	575.571	575.574	0
1	22102503	191	High	1.5	Vague	2	10	17	23	26.8	58.5	0.5	23	17	10	0.5	58.5	26.8	2	0.620	0.000	D	17	58.5	576.076	577.095	577.715	577.717	0
1	22102503	192	High	1.5	Precise	1	18	16	14	47.4	47.9	17.5	16	14	18	47.9	17.5	47.4	2	0.405	0.000	L	16	47.9	578.220	579.437	579.843	579.845	0
1	22102503	193	High	1.5	Vague	2	10	17	25	26.8	58.5	16.5	17	10	25	58.5	26.8	16.5	1	0.540	0.000	D	10	26.8	580.348	582.911	583.451	583.454	0
1	22102503	194	High	1.5	Vague	2	18	17	21	47.4	58.5	1.7	21	17	18	1.7	58.5	47.4	2	0.503	0.001	D	17	58.5	583.956	585.773	586.275	586.278	0
1	22102503	195	High	1.5	Vague	2	18	17	20	47.4	58.5	1.2	18	17	20	47.4	58.5	1.2	2	0.521	0.000	D	17	58.5	586.780	588.994	589.515	589.518	0
1	22102503	196	High	1.5	Vague	2	10	15	20	26.8	53.9	1.2	15	10	20	53.9	26.8	1.2	2	0.606	0.000	L	15	53.9	590.020	590.638	591.243	591.246	0
1	22102503	197	High	1.5	Vague	2	18	15	25	47.4	53.9	16.5	18	15	25	47.4	53.9	16.5	2	0.510	0.001	D	15	53.9	591.748	592.710	593.219	593.222	0
1	22102503	198	High	1.5	Precise	1	16	15	1	47.9	53.9	2.2	15	16	1	53.9	47.9	2.2	1	0.637	0.001	D	16	47.9	593.725	596.223	596.860	596.862	0
1	22102503	199	High	1.5	Precise	1	10	18	11	26.8	47.4	9.7	18	10	11	47.4	26.8	9.7	2	0.681	0.000	L	18	47.4	597.365	598.226	598.907	598.909	0
1	22102503	200	High	1.5	Precise	1	10	17	14	26.8	58.5	17.5	17	10	14	58.5	26.8	17.5	1	0.779	0.001	D	10	26.8	599.412	600.104	600.883	600.886	0
1	22102503	201	High	1.5	Precise	1	9	17	5	27.4	58.5	4.4	9	17	5	27.4	58.5	4.4	1	0.541	0.001	L	9	27.4	601.389	603.967	604.507	604.510	0
1	22102503	202	High	1.5	Vague	2	9	17	21	27.4	58.5	1.7	9	21	17	27.4	1.7	58.5	1	0.440	0.000	L	9	27.4	605.012	605.916	606.355	606.358	0
1	22102503	203	High	1.5	Precise	1	16	17	12	47.9	58.5	24.6	12	17	16	24.6	58.5	47.9	1	0.429	0.000	R	16	47.9	606.860	608.134	608.563	608.565	0
1	22102503	204	High	1.5	Vague	2	9	15	21	27.4	53.9	1.7	21	9	15	1.7	27.4	53.9	1	0.758	0.001	D	9	27.4	609.068	611.085	611.843	611.846	0
1	22102503	205	High	1.5	Vague	2	15	17	27	53.9	58.5	22.0	27	17	15	22.0	58.5	53.9	1	0.833	0.001	R	15	53.9	612.348	613.882	614.715	614.718	0
1	22102503	206	High	1.5	Precise	1	18	17	7	47.4	58.5	2.0	7	18	17	2.0	47.4	58.5	1	0.570	0.001	D	18	47.4	615.220	616.033	616.603	616.606	0
1	22102503	207	High	1.5	Precise	1	9	16	11	27.4	47.9	9.7	16	11	9	47.9	9.7	27.4	2	0.648	0.001	L	16	47.9	617.108	618.011	618.659	618.662	0
1	22102503	208	High	1.5	Precise	1	18	16	11	47.4	47.9	9.7	18	16	11	47.4	47.9	9.7	2	0.437	0.000	D	16	47.9	619.165	620.318	620.755	620.757	0
1	22102503	209	High	1.5	Precise	1	18	16	7	47.4	47.9	2.0	18	16	7	47.4	47.9	2.0	2	0.496	0.001	D	16	47.9	621.260	623.555	624.051	624.054	0
1	22102503	210	High	1.5	Vague	2	9	15	23	27.4	53.9	0.5	23	9	15	0.5	27.4	53.9	1	0.705	0.000	D	9	27.4	624.556	625.418	626.123	626.126	0
1	22102503	211	High	1.5	Vague	2	10	18	23	26.8	47.4	0.5	23	18	10	0.5	47.4	26.8	2	0.413	0.001	D	18	47.4	626.628	627.150	627.563	627.566	0
1	22102503	212	High	1.5	Precise	1	10	16	14	26.8	47.9	17.5	10	16	14	26.8	47.9	17.5	2	0.591	0.000	D	16	47.9	628.068	629.188	629.779	629.781	0
1	22102503	213	High	1.5	Precise	1	9	16	7	27.4	47.9	2.0	16	9	7	47.9	27.4	2.0	2	0.413	0.001	L	16	47.9	630.284	631.110	631.523	631.525	0
1	22102503	214	High	1.5	Vague	2	15	17	23	53.9	58.5	0.5	15	17	23	53.9	58.5	0.5	2	0.688	0.000	D	17	58.5	632.028	633.619	634.307	634.309	0
1	22102503	215	High	1.5	Vague	2	9	16	21	27.4	47.9	1.7	16	9	21	47.9	27.4	1.7	1	0.743	0.000	D	9	27.4	634.812	636.292	637.035	637.037	0
1	22102503	216	High	1.5	Precise	1	9	17	12	27.4	58.5	24.6	9	12	17	27.4	24.6	58.5	1	0.579	0.000	L	9	27.4	637.541	639.960	640.539	640.542	0
1	22102503	217	High	1.5	Precise	1	10	9	5	26.8	27.4	4.4	5	9	10	4.4	27.4	26.8	2	0.498	0.001	D	9	27.4	641.044	643.393	643.891	643.894	0
1	22102503	218	High	1.5	Precise	1	16	17	11	47.9	58.5	9.7	17	11	16	58.5	9.7	47.9	1	0.543	0.001	R	16	47.9	644.397	645.188	645.731	645.734	0
1	22102503	219	High	1.5	Vague	2	16	15	21	47.9	53.9	1.7	15	16	21	53.9	47.9	1.7	1	0.596	0.000	D	16	47.9	646.236	648.575	649.171	649.174	0
1	22102503	220	High	1.5	Precise	1	16	17	5	47.9	58.5	4.4	17	16	5	58.5	47.9	4.4	1	0.497	0.001	D	16	47.9	649.677	651.554	652.051	652.054	0
1	22102503	221	High	1.5	Precise	1	9	18	14	27.4	47.4	17.5	9	14	18	27.4	17.5	47.4	1	0.543	0.000	L	9	27.4	652.556	654.284	654.827	654.829	0
1	22102503	222	High	1.5	Vague	2	18	16	23	47.4	47.9	0.5	23	18	16	0.5	47.4	47.9	2	0.476	0.001	R	16	47.9	655.332	656.407	656.883	656.886	0
1	22102503	223	High	1.5	Precise	1	10	18	7	26.8	47.4	2.0	7	18	10	2.0	47.4	26.8	2	0.784	0.001	D	18	47.4	657.388	660.371	661.155	661.158	0
1	22102503	224	High	1.5	Precise	1	10	15	14	26.8	53.9	17.5	14	15	10	17.5	53.9	26.8	2	0.724	0.001	D	15	53.9	661.660	662.807	663.531	663.534	0
1	22102503	225	High	1.5	Precise	1	10	18	1	26.8	47.4	2.2	18	10	1	47.4	26.8	2.2	1	0.660	0.000	D	10	26.8	664.036	664.871	665.531	665.533	0
1	22102503	226	High	1.5	Vague	2	10	9	23	26.8	27.4	0.5	10	23	9	26.8	0.5	27.4	2	0.595	0.000	R	9	27.4	666.036	666.824	667.419	667.421	0
1	22102503	227	High	1.5	Precise	1	10	17	5	26.8	58.5	4.4	10	17	5	26.8	58.5	4.4	3	0.779	0.001	R	5	4.4	667.924	668.968	669.747	669.750	0
1	22102503	228	High	1.5	Precise	1	18	16	5	47.4	47.9	4.4	5	18	16	4.4	47.4	47.9	2	0.465	0.000	R	16	47.9	670.252	671.145	671.611	671.613	0
1	22102503	229	High	1.5	Precise	1	9	18	7	27.4	47.4	2.0	7	18	9	2.0	47.4	27.4	1	0.601	0.000	R	9	27.4	672.116	673.667	674.267	674.270	0
1	22102503	230	High	1.5	Precise	1	16	17	14	47.9	58.5	17.5	17	14	16	58.5	17.5	47.9	1	0.699	0.000	R	16	47.9	674.773	676.896	677.595	677.598	0
1	22102503	231	High	1.5	Vague	2	10	9	27	26.8	27.4	22.0	27	9	10	22.0	27.4	26.8	2	0.572	0.000	D	9	27.4	678.101	678.743	679.315	679.317	0
1	22102503	232	High	1.5	Precise	1	9	15	1	27.4	53.9	2.2	15	1	9	53.9	2.2	27.4	1	0.459	0.000	R	9	27.4	679.820	680.680	681.139	681.141	0
1	22102503	233	High	1.5	Vague	2	16	17	23	47.9	58.5	0.5	16	17	23	47.9	58.5	0.5	1	0.604	0.001	L	16	47.9	681.644	682.584	683.187	683.189	0
1	22102503	234	High	1.5	Precise	1	18	15	11	47.4	53.9	9.7	18	11	15	47.4	9.7	53.9	2	0.739	0.000	R	15	53.9	683.692	684.336	685.075	685.077	0
1	22102503	235	High	1.5	Vague	2	9	17	20	27.4	58.5	1.2	17	9	20	58.5	27.4	1.2	1	0.685	0.000	D	9	27.4	685.580	688.461	689.147	689.149	0
1	22102503	236	High	1.5	Precise	1	9	16	12	27.4	47.9	24.6	9	16	12	27.4	47.9	24.6	2	0.889	0.000	D	16	47.9	689.652	690.827	691.715	691.717	0
1	22102503	237	High	1.5	Precise	1	10	16	1	26.8	47.9	2.2	1	10	16	2.2	26.8	47.9	2	0.486	0.001	R	16	47.9	692.220	692.829	693.315	693.318	0
1	22102503	238	High	1.5	Precise	1	9	17	11	27.4	58.5	9.7	17	9	11	58.5	27.4	9.7	1	0.515	0.001	D	9	27.4	693.820	694.624	695.139	695.142	0
1	22102503	239	High	1.5	Precise	1	16	17	1	47.9	58.5	2.2	1	16	17	2.2	47.9	58.5	1	0.636	0.000	D	16	47.9	695.645	698.295	698.931	698.934	0
1	22102503	240	High	1.5	Precise	1	18	17	12	47.4	58.5	24.6	12	17	18	24.6	58.5	47.4	3	0.816	0.000	L	12	24.6	699.436	700.203	701.019	701.021	0
1	22102503	241	High	1.5	Precise	1	10	18	14	26.8	47.4	17.5	10	18	14	26.8	47.4	17.5	2	0.913	0.000	D	18	47.4	705.018	705.722	706.635	706.637	0
1	22102503	242	High	1.5	Vague	2	9	18	23	27.4	47.4	0.5	23	18	9	0.5	47.4	27.4	1	0.625	0.000	R	9	27.4	707.140	709.962	710.587	710.589	0
1	22102503	243	High	1.5	Precise	1	18	17	14	47.4	58.5	17.5	18	14	17	47.4	17.5	58.5	2	0.836	0.000	R	17	58.5	711.092	712.022	712.859	712.861	0
1	22102503	244	High	1.5	Precise	1	9	18	5	27.4	47.4	4.4	5	18	9	4.4	47.4	27.4	1	0.459	0.000	R	9	27.4	713.364	715.160	715.619	715.621	0
1	22102503	245	High	1.5	Precise	1	9	16	14	27.4	47.9	17.5	14	16	9	17.5	47.9	27.4	1	0.437	0.000	R	9	27.4	716.124	717.222	717.659	717.662	0
1	22102503	246	High	1.5	Precise	1	10	17	12	26.8	58.5	24.6	10	12	17	26.8	24.6	58.5	2	0.746	0.000	R	17	58.5	718.164	719.601	720.347	720.349	0
1	22102503	247	High	1.5	Vague	2	18	17	22	47.4	58.5	8.2	22	17	18	8.2	58.5	47.4	1	0.751	0.001	R	18	47.4	720.852	721.604	722.355	722.357	0
1	22102503	248	High	1.5	Vague	2	18	16	20	47.4	47.9	1.2	20	16	18	1.2	47.9	47.4	2	0.548	0.000	D	16	47.9	722.860	724.799	725.347	725.349	0
1	22102503	249	High	1.5	Precise	1	15	17	7	53.9	58.5	2.0	7	17	15	2.0	58.5	53.9	1	0.732	0.000	R	15	53.9	725.852	728.831	729.563	729.565	0
1	22102503	250	High	1.5	Vague	2	10	15	22	26.8	53.9	8.2	15	22	10	53.9	8.2	26.8	2	0.636	0.000	L	15	53.9	730.068	730.839	731.475	731.477	0
1	22102503	251	High	1.5	Precise	1	16	17	7	47.9	58.5	2.0	17	7	16	58.5	2.0	47.9	1	0.445	0.000	R	16	47.9	731.980	734.533	734.979	734.981	0
1	22102503	252	High	1.5	Precise	1	18	15	7	47.4	53.9	2.0	18	15	7	47.4	53.9	2.0	3	0.613	0.001	R	7	2.0	735.484	738.454	739.067	739.069	0
1	22102503	253	High	1.5	Vague	2	18	15	27	47.4	53.9	22.0	15	27	18	53.9	22.0	47.4	2	0.560	0.000	L	15	53.9	739.572	741.451	742.011	742.013	0
1	22102503	254	High	1.5	Vague	2	10	17	21	26.8	58.5	1.7	21	10	17	1.7	26.8	58.5	3	0.655	0.000	L	21	1.7	742.516	744.068	744.723	744.725	0
1	22102503	255	High	1.5	Vague	2	9	16	25	27.4	47.9	16.5	9	25	16	27.4	16.5	47.9	2	0.504	0.000	R	16	47.9	745.228	748.067	748.571	748.573	0
1	22102503	256	High	1.5	Precise	1	15	17	11	53.9	58.5	9.7	15	11	17	53.9	9.7	58.5	1	0.615	0.000	L	15	53.9	749.076	750.004	750.619	750.621	0
1	22102503	257	High	1.5	Precise	1	18	17	11	47.4	58.5	9.7	11	18	17	9.7	47.4	58.5	3	0.939	0.001	L	11	9.7	751.124	752.504	753.443	753.445	0
1	22102503	258	High	1.5	Precise	1	18	17	5	47.4	58.5	4.4	17	18	5	58.5	47.4	4.4	3	0.895	0.001	R	5	4.4	753.948	755.332	756.227	756.229	0
1	22102503	259	High	1.5	Precise	1	9	15	11	27.4	53.9	9.7	15	9	11	53.9	27.4	9.7	1	0.726	0.001	D	9	27.4	756.732	758.550	759.275	759.278	0
1	22102503	260	High	1.5	Precise	1	10	9	14	26.8	27.4	17.5	14	9	10	17.5	27.4	26.8	2	0.617	0.001	D	9	27.4	759.780	762.627	763.243	763.246	0
1	22102503	261	High	1.5	Vague	2	9	16	27	27.4	47.9	22.0	9	27	16	27.4	22.0	47.9	1	0.758	0.000	L	9	27.4	763.748	766.189	766.947	766.949	0
1	22102503	262	High	1.5	Vague	2	10	16	21	26.8	47.9	1.7	10	16	21	26.8	47.9	1.7	2	0.645	0.000	D	16	47.9	767.452	769.054	769.699	769.701	0
1	22102503	263	High	1.5	Vague	2	16	17	20	47.9	58.5	1.2	16	20	17	47.9	1.2	58.5	1	0.486	0.001	L	16	47.9	770.204	771.141	771.627	771.629	0
1	22102503	264	High	1.5	Precise	1	15	17	12	53.9	58.5	24.6	15	12	17	53.9	24.6	58.5	1	0.693	0.000	L	15	53.9	772.132	774.230	774.923	774.925	0
1	22102503	265	High	1.5	Vague	2	9	18	20	27.4	47.4	1.2	18	9	20	47.4	27.4	1.2	1	0.617	0.001	D	9	27.4	775.428	777.802	778.419	778.421	0
1	22102503	266	High	1.5	Precise	1	18	16	12	47.4	47.9	24.6	12	16	18	24.6	47.9	47.4	2	0.498	0.000	D	16	47.9	778.924	781.449	781.947	781.949	0
1	22102503	267	High	1.5	Vague	2	10	16	23	26.8	47.9	0.5	10	16	23	26.8	47.9	0.5	2	0.509	0.001	D	16	47.9	782.452	784.582	785.091	785.093	0
1	22102503	268	High	1.5	Vague	2	9	16	20	27.4	47.9	1.2	16	20	9	47.9	1.2	27.4	2	0.812	0.000	L	16	47.9	785.596	786.398	787.211	787.213	0
1	22102503	269	High	1.5	Vague	2	9	17	22	27.4	58.5	8.2	22	17	9	8.2	58.5	27.4	1	0.463	0.000	R	9	27.4	787.716	790.491	790.955	790.957	0
1	22102503	270	High	1.5	Precise	1	18	16	1	47.4	47.9	2.2	16	1	18	47.9	2.2	47.4	2	0.481	0.000	L	16	47.9	791.460	792.394	792.875	792.877	0
1	22102503	271	High	1.5	Vague	2	10	18	27	26.8	47.4	22.0	10	18	27	26.8	47.4	22.0	2	0.465	0.001	D	18	47.4	793.380	794.938	795.403	795.405	0
1	22102503	272	High	1.5	Vague	2	10	9	20	26.8	27.4	1.2	20	9	10	1.2	27.4	26.8	2	0.529	0.000	D	9	27.4	795.907	797.770	798.299	798.301	0
1	22102503	273	High	1.5	Vague	2	16	15	27	47.9	53.9	22.0	16	27	15	47.9	22.0	53.9	1	0.592	0.000	L	16	47.9	798.804	800.306	800.899	800.901	0
1	22102503	274	High	1.5	Vague	2	10	17	20	26.8	58.5	1.2	17	20	10	58.5	1.2	26.8	3	0.801	0.001	D	20	1.2	801.404	803.123	803.923	803.925	0
1	22102503	275	High	1.5	Vague	2	10	18	22	26.8	47.4	8.2	18	10	22	47.4	26.8	8.2	2	0.711	0.000	L	18	47.4	804.428	806.164	806.875	806.877	0
1	22102503	276	High	1.5	Precise	1	9	17	7	27.4	58.5	2.0	17	7	9	58.5	2.0	27.4	1	0.499	0.000	R	9	27.4	807.380	807.911	808.411	808.413	0
1	22102503	277	High	1.5	Precise	1	10	17	7	26.8	58.5	2.0	7	10	17	2.0	26.8	58.5	3	0.674	0.000	L	7	2.0	808.916	811.625	812.299	812.302	0
1	22102503	278	High	1.5	Precise	1	9	15	12	27.4	53.9	24.6	12	9	15	24.6	27.4	53.9	3	0.780	0.000	L	12	24.6	812.804	813.430	814.211	814.213	0
1	22102503	279	High	1.5	Precise	1	10	15	12	26.8	53.9	24.6	10	15	12	26.8	53.9	24.6	1	1.042	0.000	L	10	26.8	814.716	816.713	817.755	817.757	0
1	22102503	280	High	1.5	Vague	2	9	16	23	27.4	47.9	0.5	23	9	16	0.5	27.4	47.9	2	0.566	0.000	R	16	47.9	818.260	818.925	819.491	819.493	0
1	22102503	281	High	1.5	Vague	2	18	16	27	47.4	47.9	22.0	27	18	16	22.0	47.4	47.9	2	0.559	0.000	R	16	47.9	819.996	821.188	821.747	821.749	0
1	22102503	282	High	1.5	Vague	2	9	15	27	27.4	53.9	22.0	9	27	15	27.4	22.0	53.9	1	0.598	0.000	L	9	27.4	822.252	823.613	824.211	824.213	0
1	22102503	283	High	1.5	Vague	2	18	16	22	47.4	47.9	8.2	16	18	22	47.9	47.4	8.2	2	0.573	0.000	L	16	47.9	824.716	825.406	825.979	825.981	0
1	22102503	284	High	1.5	Precise	1	9	17	1	27.4	58.5	2.2	17	9	1	58.5	27.4	2.2	1	0.613	0.000	D	9	27.4	826.483	827.534	828.147	828.149	0
1	22102503	285	High	1.5	Vague	2	10	18	20	26.8	47.4	1.2	10	20	18	26.8	1.2	47.4	3	0.640	0.000	D	20	1.2	828.652	829.292	829.931	829.933	0
1	22102503	286	High	1.5	Precise	1	18	15	14	47.4	53.9	17.5	18	14	15	47.4	17.5	53.9	2	0.704	0.001	R	15	53.9	830.436	831.947	832.651	832.653	0
1	22102503	287	High	1.5	Vague	2	9	18	22	27.4	47.4	8.2	18	9	22	47.4	27.4	8.2	1	0.478	0.000	D	9	27.4	833.156	835.222	835.699	835.701	0
1	22102503	288	High	1.5	Vague	2	16	17	27	47.9	58.5	22.0	17	27	16	58.5	22.0	47.9	1	0.483	0.001	R	16	47.9	836.205	837.024	837.507	837.509	0
1	22102503	289	High	1.5	Precise	1	9	16	1	27.4	47.9	2.2	1	16	9	2.2	47.9	27.4	2	0.730	0.000	D	16	47.9	838.012	839.153	839.883	839.885	0
1	22102503	290	High	1.5	Precise	1	9	17	14	27.4	58.5	17.5	9	17	14	27.4	58.5	17.5	1	0.682	0.001	L	9	27.4	840.388	842.425	843.107	843.110	0
1	22102503	291	High	1.5	Precise	1	15	17	14	53.9	58.5	17.5	14	15	17	17.5	53.9	58.5	1	0.684	0.001	D	15	53.9	843.612	844.687	845.371	845.373	0
1	22102503	292	High	1.5	Vague	2	10	9	25	26.8	27.4	16.5	25	10	9	16.5	26.8	27.4	2	0.424	0.000	R	9	27.4	845.876	846.955	847.379	847.381	0
1	22102503	293	High	1.5	Vague	2	16	15	20	47.9	53.9	1.2	20	15	16	1.2	53.9	47.9	1	0.471	0.000	R	16	47.9	847.884	849.995	850.467	850.469	0
1	22102503	294	High	1.5	Precise	1	10	9	7	26.8	27.4	2.0	7	10	9	2.0	26.8	27.4	2	0.441	0.001	R	9	27.4	850.973	852.106	852.547	852.549	0
1	22102503	295	High	1.5	Vague	2	15	17	22	53.9	58.5	8.2	17	22	15	58.5	8.2	53.9	1	0.616	0.001	R	15	53.9	853.052	853.579	854.195	854.197	0
1	22102503	296	High	1.5	Precise	1	16	15	11	47.9	53.9	9.7	16	11	15	47.9	9.7	53.9	1	0.541	0.000	L	16	47.9	854.700	856.286	856.827	856.829	0
1	22102503	297	High	1.5	Vague	2	9	17	23	27.4	58.5	0.5	9	23	17	27.4	0.5	58.5	1	0.532	0.001	L	9	27.4	857.332	859.383	859.915	859.917	0
1	22102503	298	High	1.5	Precise	1	16	15	14	47.9	53.9	17.5	15	16	14	53.9	47.9	17.5	1	0.484	0.000	D	16	47.9	860.420	861.159	861.643	861.645	0
1	22102503	299	High	1.5	Vague	2	16	15	23	47.9	53.9	0.5	16	15	23	47.9	53.9	0.5	1	0.411	0.000	L	16	47.9	862.148	862.816	863.227	863.229	0
1	22102503	300	High	1.5	Vague	2	9	15	25	27.4	53.9	16.5	9	25	15	27.4	16.5	53.9	1	0.534	0.001	L	9	27.4	863.732	865.701	866.235	866.237	0
1	22102503	301	High	1.5	Precise	1	9	18	1	27.4	47.4	2.2	9	18	1	27.4	47.4	2.2	3	0.513	0.001	R	1	2.2	869.950	870.522	871.035	871.037	0
1	22102503	302	High	1.5	Precise	1	10	15	1	26.8	53.9	2.2	1	15	10	2.2	53.9	26.8	2	0.877	0.000	D	15	53.9	871.540	874.293	875.171	875.173	0
1	22102503	303	High	1.5	Vague	2	10	18	25	26.8	47.4	16.5	18	10	25	47.4	26.8	16.5	2	0.657	0.000	L	18	47.4	875.677	876.402	877.059	877.061	0
1	22102503	304	High	1.5	Precise	1	10	16	7	26.8	47.9	2.0	10	7	16	26.8	2.0	47.9	2	0.554	0.000	R	16	47.9	877.564	878.688	879.243	879.245	0
1	22102503	305	High	1.5	Vague	2	10	16	27	26.8	47.9	22.0	27	16	10	22.0	47.9	26.8	2	0.530	0.000	D	16	47.9	879.748	882.272	882.803	882.805	0
1	22102503	306	High	1.5	Precise	1	15	17	1	53.9	58.5	2.2	1	15	17	2.2	53.9	58.5	1	0.688	0.001	D	15	53.9	883.308	884.955	885.643	885.645	0
1	22102503	307	High	1.5	Vague	2	18	15	20	47.4	53.9	1.2	20	15	18	1.2	53.9	47.4	2	0.540	0.000	D	15	53.9	886.148	888.567	889.107	889.109	0
1	22102503	308	High	1.5	Vague	2	16	17	22	47.9	58.5	8.2	17	16	22	58.5	47.9	8.2	1	0.586	0.001	D	16	47.9	889.612	890.169	890.755	890.757	0
1	22102503	309	High	1.5	Vague	2	16	17	25	47.9	58.5	16.5	17	25	16	58.5	16.5	47.9	1	0.558	0.000	R	16	47.9	891.260	893.349	893.906	893.909	0
1	22102503	310	High	1.5	Vague	2	10	17	22	26.8	58.5	8.2	17	10	22	58.5	26.8	8.2	3	0.738	0.000	R	22	8.2	894.412	896.985	897.723	897.725	0
1	22102503	311	High	1.5	Precise	1	9	15	14	27.4	53.9	17.5	9	15	14	27.4	53.9	17.5	1	0.565	0.001	L	9	27.4	898.228	900.950	901.515	901.517	0
1	22102503	312	High	1.5	Precise	1	9	18	11	27.4	47.4	9.7	18	9	11	47.4	27.4	9.7	1	0.508	0.000	D	9	27.4	902.020	904.823	905.331	905.333	0
1	22102503	313	High	1.5	Precise	1	10	17	1	26.8	58.5	2.2	10	17	1	26.8	58.5	2.2	2	0.501	0.000	D	17	58.5	905.835	908.030	908.531	908.533	0
1	22102503	314	High	1.5	Vague	2	10	9	21	26.8	27.4	1.7	9	21	10	27.4	1.7	26.8	2	0.485	0.000	L	9	27.4	909.035	911.853	912.339	912.341	0
1	22102503	315	High	1.5	Precise	1	10	17	11	26.8	58.5	9.7	17	11	10	58.5	9.7	26.8	2	0.580	0.001	L	17	58.5	912.844	915.815	916.395	916.397	0
1	22102503	316	High	1.5	Vague	2	18	15	21	47.4	53.9	1.7	21	18	15	1.7	47.4	53.9	2	0.789	0.000	R	15	53.9	916.900	917.573	918.363	918.365	0
1	22102503	317	High	1.5	Vague	2	10	9	22	26.8	27.4	8.2	10	22	9	26.8	8.2	27.4	2	0.788	0.001	R	9	27.4	918.867	919.430	920.219	920.221	0
1	22102503	318	High	1.5	Vague	2	9	16	22	27.4	47.9	8.2	22	9	16	8.2	27.4	47.9	2	0.568	0.001	R	16	47.9	920.724	922.243	922.811	922.813	0
1	22102503	319	High	1.5	Vague	2	9	18	21	27.4	47.4	1.7	9	21	18	27.4	1.7	47.4	1	0.427	0.001	L	9	27.4	923.316	925.160	925.587	925.589	0
1	22102503	320	High	1.5	Vague	2	15	17	20	53.9	58.5	1.2	15	17	20	53.9	58.5	1.2	1	0.622	0.001	L	15	53.9	926.092	927.125	927.747	927.749	0
1	22102503	321	High	1.5	Vague	2	10	15	21	26.8	53.9	1.7	10	15	21	26.8	53.9	1.7	2	0.633	0.001	D	15	53.9	928.252	929.290	929.923	929.925	0
1	22102503	322	High	1.5	Precise	1	9	15	5	27.4	53.9	4.4	5	15	9	4.4	53.9	27.4	1	0.523	0.001	R	9	27.4	930.428	932.272	932.795	932.797	0
1	22102503	323	High	1.5	Vague	2	16	17	21	47.9	58.5	1.7	21	17	16	1.7	58.5	47.9	1	0.478	0.001	R	16	47.9	933.300	934.653	935.131	935.133	0
1	22102503	324	High	1.5	Vague	2	9	17	25	27.4	58.5	16.5	25	17	9	16.5	58.5	27.4	1	0.757	0.000	R	9	27.4	935.637	938.294	939.051	939.053	0
1	22102503	325	High	1.5	Vague	2	18	15	23	47.4	53.9	0.5	15	18	23	53.9	47.4	0.5	2	0.716	0.001	L	15	53.9	939.556	942.199	942.915	942.917	0
1	22102503	326	High	1.5	Precise	1	9	16	5	27.4	47.9	4.4	9	5	16	27.4	4.4	47.9	2	0.553	0.001	R	16	47.9	943.420	945.425	945.979	945.981	0
1	22102503	327	High	1.5	Vague	2	10	15	27	26.8	53.9	22.0	15	10	27	53.9	26.8	22.0	2	0.702	0.001	L	15	53.9	946.483	947.021	947.723	947.725	0
1	22102503	328	High	1.5	Precise	1	9	15	7	27.4	53.9	2.0	7	9	15	2.0	27.4	53.9	1	1.018	0.000	D	9	27.4	948.228	948.785	949.803	949.805	0
1	22102503	329	High	1.5	Precise	1	15	17	5	53.9	58.5	4.4	17	15	5	58.5	53.9	4.4	1	0.889	0.000	D	15	53.9	950.308	951.970	952.859	952.861	0
1	22102503	330	High	1.5	Vague	2	15	17	21	53.9	58.5	1.7	15	17	21	53.9	58.5	1.7	1	0.585	0.000	L	15	53.9	953.364	954.209	954.795	954.797	0
1	22102503	331	High	1.5	Precise	1	16	15	5	47.9	53.9	4.4	5	15	16	4.4	53.9	47.9	1	0.728	0.000	R	16	47.9	955.299	956.386	957.115	957.117	0
1	22102503	332	High	1.5	Vague	2	18	17	25	47.4	58.5	16.5	17	25	18	58.5	16.5	47.4	1	0.953	0.001	R	18	47.4	957.619	958.890	959.843	959.845	0
1	22102503	333	High	1.5	Vague	2	10	18	21	26.8	47.4	1.7	10	18	21	26.8	47.4	1.7	3	0.660	0.001	R	21	1.7	960.348	963.199	963.859	963.861	0
1	22102503	334	High	1.5	Precise	1	10	15	11	26.8	53.9	9.7	11	15	10	9.7	53.9	26.8	2	0.947	0.001	D	15	53.9	964.364	964.968	965.915	965.917	0
1	22102503	335	High	1.5	Vague	2	18	17	23	47.4	58.5	0.5	17	18	23	58.5	47.4	0.5	2	0.843	0.000	L	17	58.5	966.420	967.848	968.691	968.693	0
1	22102503	336	High	1.5	Vague	2	9	18	27	27.4	47.4	22.0	9	27	18	27.4	22.0	47.4	1	0.575	0.001	L	9	27.4	969.195	970.908	971.483	971.485	0
1	22102503	337	High	1.5	Precise	1	10	16	5	26.8	47.9	4.4	10	16	5	26.8	47.9	4.4	2	0.559	0.000	D	16	47.9	971.988	974.396	974.955	974.957	0
1	22102503	338	High	1.5	Precise	1	16	15	12	47.9	53.9	24.6	15	16	12	53.9	47.9	24.6	1	0.554	0.001	D	16	47.9	975.460	977.489	978.043	978.045	0
1	22102503	339	High	1.5	Vague	2	9	15	20	27.4	53.9	1.2	15	9	20	53.9	27.4	1.2	1	0.936	0.001	D	9	27.4	978.548	979.643	980.579	980.581	0
1	22102503	340	High	1.5	Precise	1	18	15	12	47.4	53.9	24.6	18	15	12	47.4	53.9	24.6	2	0.515	0.001	D	15	53.9	981.084	982.480	982.995	982.997	0
1	22102503	341	High	1.5	Vague	2	10	15	25	26.8	53.9	16.5	25	10	15	16.5	26.8	53.9	2	0.659	0.000	R	15	53.9	983.500	985.808	986.467	986.469	0
1	22102503	342	High	1.5	Vague	2	10	16	22	26.8	47.9	8.2	10	16	22	26.8	47.9	8.2	2	0.532	0.000	D	16	47.9	986.972	988.350	988.883	988.885	0
1	22102503	343	High	1.5	Precise	1	10	9	12	26.8	27.4	24.6	9	12	10	27.4	24.6	26.8	2	0.542	0.000	L	9	27.4	989.388	990.180	990.722	990.725	0
1	22102503	344	High	1.5	Precise	1	10	16	11	26.8	47.9	9.7	16	11	10	47.9	9.7	26.8	2	0.532	0.000	L	16	47.9	991.227	992.038	992.570	992.573	0
1	22102503	345	High	1.5	Precise	1	18	15	5	47.4	53.9	4.4	15	5	18	53.9	4.4	47.4	2	0.697	0.000	L	15	53.9	993.076	995.458	996.155	996.157	0
1	22102503	346	High	1.5	Precise	1	10	18	5	26.8	47.4	4.4	10	5	18	26.8	4.4	47.4	1	0.875	0.000	L	10	26.8	996.660	997.816	998.691	998.693	0
1	22102503	347	High	1.5	Vague	2	18	16	21	47.4	47.9	1.7	21	16	18	1.7	47.9	47.4	2	0.599	0.000	D	16	47.9	999.195	1000.204	1000.803	1000.805	0
1	22102503	348	High	1.5	Precise	1	18	17	1	47.4	58.5	2.2	1	17	18	2.2	58.5	47.4	1	0.815	0.001	R	18	47.4	1001.307	1002.068	1002.883	1002.885	0
1	22102503	349	High	1.5	Vague	2	9	15	22	27.4	53.9	8.2	22	9	15	8.2	27.4	53.9	1	0.620	0.000	D	9	27.4	1003.388	1005.919	1006.539	1006.541	0
1	22102503	350	High	1.5	Vague	2	10	15	23	26.8	53.9	0.5	23	15	10	0.5	53.9	26.8	2	0.575	0.001	D	15	53.9	1007.044	1009.852	1010.427	1010.429	0
1	22102503	351	High	1.5	Precise	1	10	15	5	26.8	53.9	4.4	10	15	5	26.8	53.9	4.4	2	0.580	0.001	D	15	53.9	1010.931	1012.415	1012.995	1012.997	0
1	22102503	352	High	1.5	Precise	1	16	15	7	47.9	53.9	2.0	15	16	7	53.9	47.9	2.0	1	0.476	0.000	D	16	47.9	1013.500	1015.791	1016.267	1016.270	0
1	22102503	353	High	1.5	Vague	2	18	15	22	47.4	53.9	8.2	22	15	18	8.2	53.9	47.4	2	0.501	0.001	D	15	53.9	1016.773	1018.534	1019.035	1019.037	0
1	22102503	354	High	1.5	Precise	1	10	9	11	26.8	27.4	9.7	11	10	9	9.7	26.8	27.4	2	0.565	0.000	R	9	27.4	1019.540	1021.173	1021.738	1021.741	0
1	22102503	355	High	1.5	Vague	2	10	17	27	26.8	58.5	22.0	17	10	27	58.5	26.8	22.0	2	0.963	0.000	L	17	58.5	1022.244	1022.952	1023.915	1023.917	0
1	22102503	356	High	1.5	Precise	1	10	18	12	26.8	47.4	24.6	10	18	12	26.8	47.4	24.6	3	0.600	0.000	R	12	24.6	1024.420	1026.707	1027.306	1027.309	0
1	22102503	357	High	1.5	Vague	2	18	16	25	47.4	47.9	16.5	16	18	25	47.9	47.4	16.5	2	0.488	0.000	L	16	47.9	1027.812	1029.251	1029.738	1029.741	0
1	22102503	358	High	1.5	Vague	2	16	15	22	47.9	53.9	8.2	16	22	15	47.9	8.2	53.9	1	0.441	0.001	L	16	47.9	1030.243	1031.074	1031.515	1031.517	0
1	22102503	359	High	1.5	Precise	1	10	16	12	26.8	47.9	24.6	10	16	12	26.8	47.9	24.6	2	0.508	0.001	D	16	47.9	1032.020	1034.671	1035.179	1035.181	0
1	22102503	360	High	1.5	Vague	2	9	17	27	27.4	58.5	22.0	9	27	17	27.4	22.0	58.5	1	0.584	0.001	L	9	27.4	1035.684	1036.898	1037.483	1037.485	0
