Group	subID	trial	TimePressure	TimeConstraint	Vagueness	Vaguenesscode	ID1	ID2	ID3	V1	V2	V3	ID_left	ID_middle	ID_right	Bid_left	Bid_middle	Bid_right	chosenItem	RT	RTvariance	chosenPosition	chosenID	chosenValue	fixation_time	option_time	choice_time	feedback_time	timeout
1	22071801	1	Low	10.0	Precise	1	15	16	12	11.7	16.9	0.4	15	12	16	11.7	0.4	16.9	2	0.967	0.001	R	16	16.9	8.243	10.881	11.847	11.851	0
1	22071801	2	Low	10.0	Precise	1	4	16	13	16.7	16.9	1.1	4	13	16	16.7	1.1	16.9	2	0.704	0.000	R	16	16.9	12.355	14.896	15.600	15.603	0
1	22071801	3	Low	10.0	Precise	1	14	8	12	20.0	20.1	0.4	8	14	12	20.1	20.0	0.4	1	3.327	0.001	D	14	20.0	16.107	19.080	22.407	22.410	0
1	22071801	4	Low	10.0	Vague	2	14	8	23	20.0	20.1	0.0	23	14	8	0.0	20.0	20.1	1	0.931	0.001	D	14	20.0	22.913	23.661	24.592	24.594	0
1	22071801	5	Low	10.0	Precise	1	15	14	1	11.7	20.0	3.1	15	14	1	11.7	20.0	3.1	2	1.539	0.000	D	14	20.0	25.098	27.556	29.095	29.100	0
1	22071801	6	Low	10.0	Vague	2	4	16	31	16.7	16.9	2.6	31	4	16	2.6	16.7	16.9	2	0.831	0.000	R	16	16.9	29.605	32.344	33.175	33.178	0
1	22071801	7	Low	10.0	Vague	2	16	8	20	16.9	20.1	0.0	16	20	8	16.9	0.0	20.1	1	1.106	0.000	L	16	16.9	33.681	35.981	37.087	37.090	0
1	22071801	8	Low	10.0	Precise	1	15	14	2	11.7	20.0	0.0	15	14	2	11.7	20.0	0.0	2	1.785	0.001	D	14	20.0	37.593	39.278	41.064	41.066	0
1	22071801	9	Low	10.0	Vague	2	4	14	31	16.7	20.0	2.6	4	31	14	16.7	2.6	20.0	2	1.472	0.000	R	14	20.0	41.569	44.079	45.552	45.554	0
1	22071801	10	Low	10.0	Vague	2	9	4	31	5.2	16.7	2.6	9	31	4	5.2	2.6	16.7	2	1.755	0.000	R	4	16.7	46.057	48.004	49.759	49.762	0
1	22071801	11	Low	10.0	Precise	1	4	16	1	16.7	16.9	3.1	16	1	4	16.9	3.1	16.7	2	1.098	0.000	L	16	16.9	50.264	50.965	52.063	52.066	0
1	22071801	12	Low	10.0	Vague	2	15	14	23	11.7	20.0	0.0	14	23	15	20.0	0.0	11.7	2	1.630	0.000	L	14	20.0	52.569	54.489	56.119	56.122	0
1	22071801	13	Low	10.0	Precise	1	9	15	13	5.2	11.7	1.1	13	15	9	1.1	11.7	5.2	2	3.060	0.001	D	15	11.7	56.624	58.459	61.520	61.522	0
1	22071801	14	Low	10.0	Precise	1	16	14	13	16.9	20.0	1.1	14	16	13	20.0	16.9	1.1	2	0.911	0.000	L	14	20.0	62.024	64.576	65.487	65.490	0
1	22071801	15	Low	10.0	Vague	2	9	16	23	5.2	16.9	0.0	23	16	9	0.0	16.9	5.2	2	1.193	0.000	D	16	16.9	65.993	67.535	68.727	68.730	0
1	22071801	16	Low	10.0	Precise	1	4	14	5	16.7	20.0	0.0	5	4	14	0.0	16.7	20.0	2	0.949	0.000	R	14	20.0	69.232	69.866	70.815	70.818	0
1	22071801	17	Low	10.0	Precise	1	15	14	12	11.7	20.0	0.4	15	14	12	11.7	20.0	0.4	2	1.479	0.000	D	14	20.0	71.320	74.056	75.536	75.538	0
1	22071801	18	Low	10.0	Precise	1	16	8	1	16.9	20.1	3.1	8	16	1	20.1	16.9	3.1	1	1.347	0.001	D	16	16.9	76.040	78.085	79.432	79.434	0
1	22071801	19	Low	10.0	Precise	1	4	16	5	16.7	16.9	0.0	16	4	5	16.9	16.7	0.0	2	0.966	0.000	L	16	16.9	79.937	82.673	83.639	83.642	0
1	22071801	20	Low	10.0	Vague	2	16	14	36	16.9	20.0	0.0	36	14	16	0.0	20.0	16.9	1	0.801	0.000	R	16	16.9	84.145	84.919	85.719	85.722	0
1	22071801	21	Low	10.0	Vague	2	14	8	31	20.0	20.1	2.6	14	8	31	20.0	20.1	2.6	1	0.844	0.000	L	14	20.0	86.225	88.107	88.951	88.954	0
1	22071801	22	Low	10.0	Precise	1	9	14	18	5.2	20.0	0.0	9	18	14	5.2	0.0	20.0	2	0.782	0.000	R	14	20.0	89.456	90.873	91.655	91.658	0
1	22071801	23	Low	10.0	Precise	1	9	8	1	5.2	20.1	3.1	9	1	8	5.2	3.1	20.1	2	3.394	0.000	R	8	20.1	92.160	93.093	96.488	96.490	0
1	22071801	24	Low	10.0	Precise	1	9	4	12	5.2	16.7	0.4	12	9	4	0.4	5.2	16.7	2	1.531	0.000	R	4	16.7	96.992	98.924	100.455	100.458	0
1	22071801	25	Low	10.0	Vague	2	16	8	31	16.9	20.1	2.6	31	16	8	2.6	16.9	20.1	1	1.201	0.001	D	16	16.9	100.961	103.615	104.816	104.818	0
1	22071801	26	Low	10.0	Vague	2	4	16	19	16.7	16.9	0.3	19	4	16	0.3	16.7	16.9	2	0.899	0.000	R	16	16.9	105.321	106.700	107.599	107.602	0
1	22071801	27	Low	10.0	Precise	1	4	14	12	16.7	20.0	0.4	12	14	4	0.4	20.0	16.7	1	1.087	0.001	R	4	16.7	108.104	109.721	110.807	110.810	0
1	22071801	28	Low	10.0	Precise	1	15	16	13	11.7	16.9	1.1	15	13	16	11.7	1.1	16.9	2	0.849	0.000	R	16	16.9	111.313	113.742	114.591	114.594	0
1	22071801	29	Low	10.0	Vague	2	9	16	36	5.2	16.9	0.0	9	16	36	5.2	16.9	0.0	2	0.931	0.001	D	16	16.9	115.096	116.453	117.383	117.386	0
1	22071801	30	Low	10.0	Vague	2	4	14	20	16.7	20.0	0.0	14	20	4	20.0	0.0	16.7	1	1.159	0.000	R	4	16.7	117.888	120.113	121.271	121.274	0
1	22071801	31	Low	10.0	Precise	1	4	8	5	16.7	20.1	0.0	8	4	5	20.1	16.7	0.0	1	1.015	0.000	D	4	16.7	121.776	124.280	125.295	125.298	0
1	22071801	32	Low	10.0	Precise	1	14	8	18	20.0	20.1	0.0	8	14	18	20.1	20.0	0.0	1	1.002	0.000	D	14	20.0	125.800	127.510	128.511	128.514	0
1	22071801	33	Low	10.0	Precise	1	16	14	12	16.9	20.0	0.4	16	12	14	16.9	0.4	20.0	1	1.414	0.000	L	16	16.9	129.017	130.745	132.159	132.162	0
1	22071801	34	Low	10.0	Vague	2	9	15	23	5.2	11.7	0.0	15	23	9	11.7	0.0	5.2	3	2.413	0.000	D	23	0.0	132.665	135.530	137.943	137.946	0
1	22071801	35	Low	10.0	Vague	2	16	14	31	16.9	20.0	2.6	14	31	16	20.0	2.6	16.9	1	1.338	0.000	R	16	16.9	138.449	140.757	142.095	142.098	0
1	22071801	36	Low	10.0	Vague	2	9	14	36	5.2	20.0	0.0	9	14	36	5.2	20.0	0.0	2	1.767	0.000	D	14	20.0	142.601	143.904	145.671	145.675	0
1	22071801	37	Low	10.0	Vague	2	9	15	19	5.2	11.7	0.3	15	19	9	11.7	0.3	5.2	3	3.658	0.000	D	19	0.3	146.178	146.846	150.504	150.506	0
1	22071801	38	Low	10.0	Vague	2	4	8	32	16.7	20.1	0.0	32	4	8	0.0	16.7	20.1	1	0.919	0.000	D	4	16.7	151.010	152.185	153.103	153.106	0
1	22071801	39	Low	10.0	Vague	2	9	8	19	5.2	20.1	0.3	8	19	9	20.1	0.3	5.2	2	2.119	0.000	L	8	20.1	153.608	155.112	157.231	157.234	0
1	22071801	40	Low	10.0	Vague	2	15	16	36	11.7	16.9	0.0	36	16	15	0.0	16.9	11.7	2	1.180	0.001	D	16	16.9	157.737	160.611	161.792	161.794	0
1	22071801	41	Low	10.0	Precise	1	16	14	2	16.9	20.0	0.0	2	14	16	0.0	20.0	16.9	1	0.893	0.000	R	16	16.9	162.297	164.674	165.568	165.570	0
1	22071801	42	Low	10.0	Precise	1	15	4	18	11.7	16.7	0.0	4	18	15	16.7	0.0	11.7	2	1.112	0.000	L	4	16.7	166.073	167.895	169.007	169.009	0
1	22071801	43	Low	10.0	Vague	2	16	8	19	16.9	20.1	0.3	16	19	8	16.9	0.3	20.1	1	0.857	0.001	L	16	16.9	169.513	171.750	172.607	172.610	0
1	22071801	44	Low	10.0	Vague	2	15	4	19	11.7	16.7	0.3	15	4	19	11.7	16.7	0.3	2	1.667	0.001	D	4	16.7	173.112	174.565	176.231	176.234	0
1	22071801	45	Low	10.0	Precise	1	9	4	13	5.2	16.7	1.1	4	13	9	16.7	1.1	5.2	2	0.917	0.001	L	4	16.7	176.736	178.659	179.575	179.578	0
1	22071801	46	Low	10.0	Vague	2	4	8	23	16.7	20.1	0.0	23	4	8	0.0	16.7	20.1	1	0.973	0.001	D	4	16.7	180.081	182.651	183.623	183.626	0
1	22071801	47	Low	10.0	Vague	2	4	16	36	16.7	16.9	0.0	4	16	36	16.7	16.9	0.0	2	1.144	0.000	D	16	16.9	184.129	186.496	187.639	187.642	0
1	22071801	48	Low	10.0	Precise	1	9	15	1	5.2	11.7	3.1	1	9	15	3.1	5.2	11.7	2	3.015	0.000	R	15	11.7	188.145	189.417	192.431	192.434	0
1	22071801	49	Low	10.0	Vague	2	16	14	32	16.9	20.0	0.0	14	16	32	20.0	16.9	0.0	1	0.897	0.000	D	16	16.9	192.937	195.238	196.135	196.138	0
1	22071801	50	Low	10.0	Vague	2	9	15	31	5.2	11.7	2.6	9	31	15	5.2	2.6	11.7	2	1.689	0.000	R	15	11.7	196.641	197.511	199.199	199.202	0
1	22071801	51	Low	10.0	Precise	1	14	8	13	20.0	20.1	1.1	13	8	14	1.1	20.1	20.0	1	1.337	0.001	R	14	20.0	199.705	201.342	202.679	202.682	0
1	22071801	52	Low	10.0	Vague	2	16	14	19	16.9	20.0	0.3	19	16	14	0.3	16.9	20.0	2	0.736	0.000	R	14	20.0	203.185	203.679	204.415	204.418	0
1	22071801	53	Low	10.0	Precise	1	9	15	18	5.2	11.7	0.0	18	15	9	0.0	11.7	5.2	2	2.809	0.000	D	15	11.7	204.921	205.575	208.383	208.386	0
1	22071801	54	Low	10.0	Vague	2	9	16	19	5.2	16.9	0.3	19	9	16	0.3	5.2	16.9	2	0.779	0.000	R	16	16.9	208.888	209.788	210.567	210.570	0
1	22071801	55	Low	10.0	Vague	2	16	8	32	16.9	20.1	0.0	16	8	32	16.9	20.1	0.0	1	0.831	0.000	L	16	16.9	211.073	212.376	213.207	213.209	0
1	22071801	56	Low	10.0	Vague	2	9	4	36	5.2	16.7	0.0	36	9	4	0.0	5.2	16.7	2	0.911	0.000	R	4	16.7	213.713	214.616	215.527	215.530	0
1	22071801	57	Low	10.0	Vague	2	15	16	32	11.7	16.9	0.0	15	16	32	11.7	16.9	0.0	2	1.120	0.000	D	16	16.9	216.032	218.463	219.583	219.586	0
1	22071801	58	Low	10.0	Vague	2	4	14	23	16.7	20.0	0.0	23	14	4	0.0	20.0	16.7	2	1.894	0.000	D	14	20.0	220.088	222.473	224.367	224.370	0
1	22071801	59	Low	10.0	Vague	2	9	14	32	5.2	20.0	0.0	14	9	32	20.0	5.2	0.0	2	0.956	0.000	L	14	20.0	224.872	226.483	227.439	227.442	0
1	22071801	60	Low	10.0	Vague	2	4	8	31	16.7	20.1	2.6	31	4	8	2.6	16.7	20.1	1	1.143	0.000	D	4	16.7	227.945	228.649	229.791	229.794	0
1	22071801	61	Low	10.0	Precise	1	9	15	2	5.2	11.7	0.0	15	2	9	11.7	0.0	5.2	2	2.666	0.000	L	15	11.7	239.392	240.061	242.727	242.730	0
1	22071801	62	Low	10.0	Vague	2	15	8	23	11.7	20.1	0.0	23	8	15	0.0	20.1	11.7	2	2.417	0.000	D	8	20.1	243.232	244.631	247.047	247.050	0
1	22071801	63	Low	10.0	Vague	2	14	8	32	20.0	20.1	0.0	8	14	32	20.1	20.0	0.0	1	1.352	0.000	D	14	20.0	247.552	248.480	249.831	249.834	0
1	22071801	64	Low	10.0	Precise	1	15	8	2	11.7	20.1	0.0	15	2	8	11.7	0.0	20.1	2	2.433	0.001	R	8	20.1	250.337	253.239	255.671	255.674	0
1	22071801	65	Low	10.0	Precise	1	9	14	12	5.2	20.0	0.4	12	9	14	0.4	5.2	20.0	2	0.984	0.001	R	14	20.0	256.176	258.911	259.895	259.898	0
1	22071801	66	Low	10.0	Vague	2	9	14	23	5.2	20.0	0.0	14	23	9	20.0	0.0	5.2	2	1.131	0.000	L	14	20.0	260.400	262.948	264.079	264.082	0
1	22071801	67	Low	10.0	Precise	1	9	8	13	5.2	20.1	1.1	13	8	9	1.1	20.1	5.2	2	1.589	0.001	D	8	20.1	264.585	266.963	268.551	268.554	0
1	22071801	68	Low	10.0	Precise	1	15	8	13	11.7	20.1	1.1	13	8	15	1.1	20.1	11.7	2	1.073	0.001	D	8	20.1	269.056	271.142	272.216	272.219	0
1	22071801	69	Low	10.0	Precise	1	16	8	2	16.9	20.1	0.0	16	2	8	16.9	0.0	20.1	1	1.035	0.001	L	16	16.9	272.722	273.789	274.823	274.826	0
1	22071801	70	Low	10.0	Vague	2	15	16	19	11.7	16.9	0.3	19	15	16	0.3	11.7	16.9	2	0.682	0.000	R	16	16.9	275.328	277.141	277.823	277.826	0
1	22071801	71	Low	10.0	Vague	2	15	16	31	11.7	16.9	2.6	31	16	15	2.6	16.9	11.7	2	0.926	0.001	D	16	16.9	278.329	280.441	281.367	281.370	0
1	22071801	72	Low	10.0	Vague	2	15	8	19	11.7	20.1	0.3	8	19	15	20.1	0.3	11.7	2	2.166	0.001	L	8	20.1	281.872	284.737	286.903	286.906	0
1	22071801	73	Low	10.0	Precise	1	16	8	13	16.9	20.1	1.1	8	16	13	20.1	16.9	1.1	1	1.073	0.000	D	16	16.9	287.408	289.127	290.199	290.202	0
1	22071801	74	Low	10.0	Vague	2	4	14	36	16.7	20.0	0.0	4	36	14	16.7	0.0	20.0	1	1.251	0.001	L	4	16.7	290.705	292.540	293.791	293.794	0
1	22071801	75	Low	10.0	Precise	1	15	4	13	11.7	16.7	1.1	4	13	15	16.7	1.1	11.7	2	1.392	0.000	L	4	16.7	294.297	297.207	298.599	298.602	0
1	22071801	76	Low	10.0	Vague	2	9	14	19	5.2	20.0	0.3	9	19	14	5.2	0.3	20.0	2	1.973	0.001	R	14	20.0	299.104	300.291	302.263	302.266	0
1	22071801	77	Low	10.0	Precise	1	9	16	18	5.2	16.9	0.0	9	16	18	5.2	16.9	0.0	2	0.845	0.001	D	16	16.9	302.768	305.187	306.031	306.034	0
1	22071801	78	Low	10.0	Precise	1	9	16	5	5.2	16.9	0.0	16	9	5	16.9	5.2	0.0	2	0.775	0.000	L	16	16.9	306.537	307.656	308.431	308.434	0
1	22071801	79	Low	10.0	Precise	1	15	4	5	11.7	16.7	0.0	4	15	5	16.7	11.7	0.0	2	1.143	0.001	L	4	16.7	308.937	310.785	311.927	311.930	0
1	22071801	80	Low	10.0	Precise	1	9	16	12	5.2	16.9	0.4	12	16	9	0.4	16.9	5.2	2	0.785	0.000	D	16	16.9	312.432	313.806	314.591	314.594	0
1	22071801	81	Low	10.0	Precise	1	9	14	1	5.2	20.0	3.1	9	1	14	5.2	3.1	20.0	2	1.301	0.000	R	14	20.0	315.097	317.834	319.135	319.138	0
1	22071801	82	Low	10.0	Precise	1	4	16	2	16.7	16.9	0.0	2	16	4	0.0	16.9	16.7	2	1.385	0.000	D	16	16.9	319.641	322.238	323.623	323.626	0
1	22071801	83	Low	10.0	Vague	2	9	16	31	5.2	16.9	2.6	31	16	9	2.6	16.9	5.2	2	0.634	0.001	D	16	16.9	324.129	326.909	327.543	327.546	0
1	22071801	84	Low	10.0	Vague	2	9	14	20	5.2	20.0	0.0	9	20	14	5.2	0.0	20.0	2	1.053	0.001	R	14	20.0	328.049	330.762	331.815	331.818	0
1	22071801	85	Low	10.0	Vague	2	15	8	32	11.7	20.1	0.0	32	15	8	0.0	11.7	20.1	2	2.565	0.000	R	8	20.1	332.321	334.681	337.247	337.250	0
1	22071801	86	Low	10.0	Precise	1	9	14	5	5.2	20.0	0.0	9	5	14	5.2	0.0	20.0	2	0.841	0.000	R	14	20.0	337.752	339.070	339.911	339.913	0
1	22071801	87	Low	10.0	Precise	1	15	14	18	11.7	20.0	0.0	18	15	14	0.0	11.7	20.0	2	0.768	0.000	R	14	20.0	340.416	342.991	343.759	343.761	0
1	22071801	88	Low	10.0	Vague	2	9	4	23	5.2	16.7	0.0	23	4	9	0.0	16.7	5.2	2	1.013	0.001	D	4	16.7	344.264	345.354	346.367	346.397	0
1	22071801	89	Low	10.0	Precise	1	4	14	2	16.7	20.0	0.0	14	4	2	20.0	16.7	0.0	2	2.023	0.000	L	14	20.0	346.900	347.656	349.679	349.682	0
1	22071801	90	Low	10.0	Precise	1	9	16	1	5.2	16.9	3.1	16	1	9	16.9	3.1	5.2	2	0.902	0.001	L	16	16.9	350.185	351.137	352.039	352.042	0
1	22071801	91	Low	10.0	Vague	2	15	4	32	11.7	16.7	0.0	4	15	32	16.7	11.7	0.0	2	1.458	0.000	L	4	16.7	352.545	355.117	356.575	356.578	0
1	22071801	92	Low	10.0	Precise	1	15	16	18	11.7	16.9	0.0	15	18	16	11.7	0.0	16.9	2	1.068	0.001	R	16	16.9	357.081	359.427	360.495	360.498	0
1	22071801	93	Low	10.0	Vague	2	4	16	23	16.7	16.9	0.0	4	16	23	16.7	16.9	0.0	2	0.880	0.000	D	16	16.9	361.000	361.688	362.567	362.570	0
1	22071801	94	Low	10.0	Vague	2	14	8	36	20.0	20.1	0.0	8	14	36	20.1	20.0	0.0	1	1.202	0.000	D	14	20.0	363.072	365.613	366.815	366.818	0
1	22071801	95	Low	10.0	Vague	2	4	16	20	16.7	16.9	0.0	4	16	20	16.7	16.9	0.0	2	0.706	0.000	D	16	16.9	367.321	368.278	368.983	368.986	0
1	22071801	96	Low	10.0	Precise	1	4	14	13	16.7	20.0	1.1	13	14	4	1.1	20.0	16.7	2	1.089	0.001	D	14	20.0	369.488	372.470	373.559	373.562	0
1	22071801	97	Low	10.0	Precise	1	15	16	2	11.7	16.9	0.0	16	15	2	16.9	11.7	0.0	2	0.895	0.000	L	16	16.9	374.064	376.073	376.967	376.970	0
1	22071801	98	Low	10.0	Vague	2	14	8	19	20.0	20.1	0.3	19	8	14	0.3	20.1	20.0	1	1.766	0.000	R	14	20.0	377.473	379.257	381.023	381.026	0
1	22071801	99	Low	10.0	Precise	1	16	14	1	16.9	20.0	3.1	14	16	1	20.0	16.9	3.1	2	0.971	0.001	L	14	20.0	381.529	382.172	383.143	383.146	0
1	22071801	100	Low	10.0	Vague	2	15	14	36	11.7	20.0	0.0	36	14	15	0.0	20.0	11.7	2	2.224	0.001	D	14	20.0	383.649	386.143	388.367	388.370	0
1	22071801	101	Low	10.0	Precise	1	9	8	2	5.2	20.1	0.0	8	2	9	20.1	0.0	5.2	2	1.505	0.000	L	8	20.1	388.873	390.486	391.991	391.993	0
1	22071801	102	Low	10.0	Precise	1	9	4	5	5.2	16.7	0.0	9	5	4	5.2	0.0	16.7	2	1.030	0.001	R	4	16.7	392.497	393.641	394.671	394.674	0
1	22071801	103	Low	10.0	Vague	2	9	14	31	5.2	20.0	2.6	9	31	14	5.2	2.6	20.0	2	1.027	0.001	R	14	20.0	395.176	396.557	397.583	397.586	0
1	22071801	104	Low	10.0	Precise	1	15	16	5	11.7	16.9	0.0	15	5	16	11.7	0.0	16.9	2	0.949	0.001	R	16	16.9	398.089	399.114	400.063	400.066	0
1	22071801	105	Low	10.0	Precise	1	4	16	18	16.7	16.9	0.0	16	4	18	16.9	16.7	0.0	2	0.855	0.000	L	16	16.9	400.569	403.296	404.151	404.153	0
1	22071801	106	Low	10.0	Precise	1	4	16	12	16.7	16.9	0.4	4	12	16	16.7	0.4	16.9	2	0.871	0.000	R	16	16.9	404.656	405.880	406.751	406.754	0
1	22071801	107	Low	10.0	Precise	1	4	14	18	16.7	20.0	0.0	4	18	14	16.7	0.0	20.0	2	1.794	0.000	R	14	20.0	407.256	409.045	410.839	410.841	0
1	22071801	108	Low	10.0	Precise	1	14	8	1	20.0	20.1	3.1	8	1	14	20.1	3.1	20.0	1	0.904	0.000	R	14	20.0	411.344	414.047	414.951	414.954	0
1	22071801	109	Low	10.0	Precise	1	9	15	5	5.2	11.7	0.0	9	15	5	5.2	11.7	0.0	2	2.258	0.000	D	15	11.7	415.457	416.749	419.007	419.010	0
1	22071801	110	Low	10.0	Vague	2	15	4	31	11.7	16.7	2.6	4	31	15	16.7	2.6	11.7	2	2.000	0.000	L	4	16.7	419.513	421.487	423.487	423.490	0
1	22071801	111	Low	10.0	Precise	1	15	8	1	11.7	20.1	3.1	8	15	1	20.1	11.7	3.1	2	2.145	0.000	L	8	20.1	423.992	424.918	427.063	427.066	0
1	22071801	112	Low	10.0	Precise	1	15	8	12	11.7	20.1	0.4	15	8	12	11.7	20.1	0.4	2	1.724	0.001	D	8	20.1	427.569	430.220	431.943	431.946	0
1	22071801	113	Low	10.0	Vague	2	15	8	36	11.7	20.1	0.0	15	8	36	11.7	20.1	0.0	2	1.177	0.001	D	8	20.1	432.449	434.799	435.975	435.978	0
1	22071801	114	Low	10.0	Vague	2	14	8	20	20.0	20.1	0.0	8	20	14	20.1	0.0	20.0	1	0.974	0.001	R	14	20.0	436.481	439.241	440.215	440.218	0
1	22071801	115	Low	10.0	Precise	1	9	14	13	5.2	20.0	1.1	9	14	13	5.2	20.0	1.1	2	0.880	0.000	D	14	20.0	440.721	442.135	443.015	443.018	0
1	22071801	116	Low	10.0	Vague	2	9	16	20	5.2	16.9	0.0	9	20	16	5.2	0.0	16.9	2	0.691	0.001	R	16	16.9	443.522	444.388	445.079	445.082	0
1	22071801	117	Low	10.0	Precise	1	15	14	5	11.7	20.0	0.0	5	14	15	0.0	20.0	11.7	2	1.522	0.000	D	14	20.0	445.584	447.981	449.503	449.506	0
1	22071801	118	Low	10.0	Precise	1	9	4	1	5.2	16.7	3.1	4	9	1	16.7	5.2	3.1	2	1.186	0.000	L	4	16.7	450.009	452.245	453.431	453.433	0
1	22071801	119	Low	10.0	Vague	2	4	8	36	16.7	20.1	0.0	36	4	8	0.0	16.7	20.1	1	2.030	0.000	D	4	16.7	453.937	456.225	458.255	458.258	0
1	22071801	120	Low	10.0	Precise	1	4	14	1	16.7	20.0	3.1	1	4	14	3.1	16.7	20.0	2	1.161	0.000	R	14	20.0	458.761	460.950	462.111	462.113	0
1	22071801	121	Low	10.0	Vague	2	4	8	20	16.7	20.1	0.0	20	8	4	0.0	20.1	16.7	1	1.909	0.000	R	4	16.7	474.766	476.017	477.927	477.929	0
1	22071801	122	Low	10.0	Vague	2	9	16	32	5.2	16.9	0.0	9	16	32	5.2	16.9	0.0	2	1.043	0.000	D	16	16.9	478.432	480.740	481.783	481.786	0
1	22071801	123	Low	10.0	Precise	1	16	8	18	16.9	20.1	0.0	8	16	18	20.1	16.9	0.0	1	0.656	0.000	D	16	16.9	482.289	483.959	484.615	484.617	0
1	22071801	124	Low	10.0	Precise	1	16	8	12	16.9	20.1	0.4	16	12	8	16.9	0.4	20.1	1	0.921	0.000	L	16	16.9	485.121	486.094	487.015	487.017	0
1	22071801	125	Low	10.0	Precise	1	15	8	18	11.7	20.1	0.0	8	18	15	20.1	0.0	11.7	2	1.653	0.001	L	8	20.1	487.521	489.058	490.711	490.713	0
1	22071801	126	Low	10.0	Vague	2	9	4	32	5.2	16.7	0.0	4	32	9	16.7	0.0	5.2	2	1.024	0.000	L	4	16.7	491.216	493.447	494.471	494.473	0
1	22071801	127	Low	10.0	Precise	1	16	14	5	16.9	20.0	0.0	14	16	5	20.0	16.9	0.0	1	1.327	0.000	D	16	16.9	494.977	497.408	498.735	498.737	0
1	22071801	128	Low	10.0	Precise	1	16	8	5	16.9	20.1	0.0	5	16	8	0.0	16.9	20.1	1	0.733	0.000	D	16	16.9	499.240	501.114	501.847	501.849	0
1	22071801	129	Low	10.0	Vague	2	15	16	23	11.7	16.9	0.0	15	16	23	11.7	16.9	0.0	2	0.684	0.000	D	16	16.9	502.352	503.003	503.687	503.689	0
1	22071801	130	Low	10.0	Vague	2	15	8	31	11.7	20.1	2.6	8	15	31	20.1	11.7	2.6	2	1.401	0.000	L	8	20.1	504.193	505.301	506.703	506.705	0
1	22071801	131	Low	10.0	Vague	2	15	14	20	11.7	20.0	0.0	15	14	20	11.7	20.0	0.0	2	1.380	0.000	D	14	20.0	507.208	509.435	510.815	510.818	0
1	22071801	132	Low	10.0	Vague	2	15	14	31	11.7	20.0	2.6	15	31	14	11.7	2.6	20.0	2	0.942	0.000	R	14	20.0	511.321	513.689	514.631	514.633	0
1	22071801	133	Low	10.0	Vague	2	15	4	20	11.7	16.7	0.0	4	15	20	16.7	11.7	0.0	2	1.586	0.000	L	4	16.7	515.136	515.684	517.271	517.273	0
1	22071801	134	Low	10.0	Vague	2	4	14	19	16.7	20.0	0.3	19	4	14	0.3	16.7	20.0	2	1.223	0.000	R	14	20.0	517.776	518.384	519.607	519.609	0
1	22071801	135	Low	10.0	Precise	1	15	14	13	11.7	20.0	1.1	14	15	13	20.0	11.7	1.1	2	0.751	0.001	L	14	20.0	520.112	522.640	523.391	523.393	0
1	22071801	136	Low	10.0	Vague	2	16	8	36	16.9	20.1	0.0	36	16	8	0.0	16.9	20.1	1	0.994	0.000	D	16	16.9	523.897	526.117	527.111	527.113	0
1	22071801	137	Low	10.0	Vague	2	15	14	32	11.7	20.0	0.0	15	14	32	11.7	20.0	0.0	2	1.380	0.000	D	14	20.0	527.616	529.235	530.615	530.617	0
1	22071801	138	Low	10.0	Vague	2	16	14	23	16.9	20.0	0.0	16	14	23	16.9	20.0	0.0	1	0.798	0.000	L	16	16.9	531.120	532.865	533.663	533.665	0
1	22071801	139	Low	10.0	Vague	2	9	8	23	5.2	20.1	0.0	9	8	23	5.2	20.1	0.0	2	1.220	0.000	D	8	20.1	534.168	536.019	537.239	537.241	0
1	22071801	140	Low	10.0	Precise	1	4	8	2	16.7	20.1	0.0	8	2	4	20.1	0.0	16.7	1	2.854	0.000	R	4	16.7	537.744	540.265	543.119	543.121	0
1	22071801	141	Low	10.0	Vague	2	9	4	20	5.2	16.7	0.0	20	4	9	0.0	16.7	5.2	2	0.969	0.000	D	4	16.7	543.625	544.734	545.703	545.705	0
1	22071801	142	Low	10.0	Precise	1	14	8	5	20.0	20.1	0.0	5	8	14	0.0	20.1	20.0	1	1.165	0.001	R	14	20.0	546.208	548.826	549.991	549.994	0
1	22071801	143	Low	10.0	Precise	1	15	4	1	11.7	16.7	3.1	4	15	1	16.7	11.7	3.1	2	1.062	0.000	L	4	16.7	550.497	553.153	554.215	554.217	0
1	22071801	144	Low	10.0	Precise	1	4	8	1	16.7	20.1	3.1	1	4	8	3.1	16.7	20.1	1	0.875	0.000	D	4	16.7	554.721	555.965	556.839	556.841	0
1	22071801	145	Low	10.0	Vague	2	15	4	23	11.7	16.7	0.0	23	15	4	0.0	11.7	16.7	2	0.779	0.000	R	4	16.7	557.344	558.963	559.743	559.745	0
1	22071801	146	Low	10.0	Vague	2	15	14	19	11.7	20.0	0.3	14	15	19	20.0	11.7	0.3	2	1.134	0.000	L	14	20.0	560.248	561.145	562.279	562.281	0
1	22071801	147	Low	10.0	Precise	1	16	14	18	16.9	20.0	0.0	14	18	16	20.0	0.0	16.9	1	0.810	0.000	R	16	16.9	562.783	565.509	566.319	566.321	0
1	22071801	148	Low	10.0	Precise	1	9	16	13	5.2	16.9	1.1	13	9	16	1.1	5.2	16.9	2	0.560	0.000	R	16	16.9	566.825	569.047	569.607	569.609	0
1	22071801	149	Low	10.0	Vague	2	16	8	23	16.9	20.1	0.0	16	23	8	16.9	0.0	20.1	1	0.809	0.000	L	16	16.9	570.112	572.430	573.239	573.242	0
1	22071801	150	Low	10.0	Precise	1	15	16	1	11.7	16.9	3.1	16	15	1	16.9	11.7	3.1	2	0.606	0.001	L	16	16.9	573.744	574.778	575.383	575.386	0
1	22071801	151	Low	10.0	Vague	2	15	16	20	11.7	16.9	0.0	20	16	15	0.0	16.9	11.7	2	0.979	0.000	D	16	16.9	575.889	577.580	578.559	578.561	0
1	22071801	152	Low	10.0	Vague	2	4	14	32	16.7	20.0	0.0	14	32	4	20.0	0.0	16.7	2	1.734	0.000	L	14	20.0	579.063	581.137	582.871	582.873	0
1	22071801	153	Low	10.0	Precise	1	4	8	18	16.7	20.1	0.0	18	8	4	0.0	20.1	16.7	1	1.178	0.000	R	4	16.7	583.377	584.989	586.167	586.169	0
1	22071801	154	Low	10.0	Precise	1	4	8	12	16.7	20.1	0.4	8	12	4	20.1	0.4	16.7	1	0.613	0.000	R	4	16.7	586.672	588.330	588.943	588.945	0
1	22071801	155	Low	10.0	Vague	2	9	15	20	5.2	11.7	0.0	15	20	9	11.7	0.0	5.2	2	2.418	0.000	L	15	11.7	589.449	591.805	594.223	594.225	0
1	22071801	156	Low	10.0	Vague	2	9	8	31	5.2	20.1	2.6	31	8	9	2.6	20.1	5.2	2	1.102	0.001	D	8	20.1	594.728	595.817	596.919	596.921	0
1	22071801	157	Low	10.0	Precise	1	9	8	12	5.2	20.1	0.4	8	12	9	20.1	0.4	5.2	2	1.356	0.000	L	8	20.1	597.425	599.051	600.407	600.409	0
1	22071801	158	Low	10.0	Vague	2	4	8	19	16.7	20.1	0.3	8	19	4	20.1	0.3	16.7	1	1.217	0.000	R	4	16.7	600.912	602.486	603.703	603.705	0
1	22071801	159	Low	10.0	Vague	2	4	16	32	16.7	16.9	0.0	32	4	16	0.0	16.7	16.9	2	0.833	0.000	R	16	16.9	604.207	604.846	605.679	605.681	0
1	22071801	160	Low	10.0	Vague	2	9	8	32	5.2	20.1	0.0	32	9	8	0.0	5.2	20.1	2	1.170	0.000	R	8	20.1	606.185	608.949	610.119	610.121	0
1	22071801	161	Low	10.0	Precise	1	9	16	2	5.2	16.9	0.0	16	2	9	16.9	0.0	5.2	2	0.805	0.001	L	16	16.9	610.624	613.019	613.823	613.826	0
1	22071801	162	Low	10.0	Precise	1	15	4	2	11.7	16.7	0.0	2	15	4	0.0	11.7	16.7	2	1.340	0.000	R	4	16.7	614.329	616.338	617.679	617.681	0
1	22071801	163	Low	10.0	Vague	2	15	4	36	11.7	16.7	0.0	4	36	15	16.7	0.0	11.7	2	1.069	0.000	L	4	16.7	618.184	619.625	620.695	620.697	0
1	22071801	164	Low	10.0	Precise	1	9	4	2	5.2	16.7	0.0	9	2	4	5.2	0.0	16.7	2	1.060	0.000	R	4	16.7	621.199	622.291	623.351	623.353	0
1	22071801	165	Low	10.0	Precise	1	9	15	12	5.2	11.7	0.4	12	15	9	0.4	11.7	5.2	2	2.938	0.001	D	15	11.7	623.857	626.629	629.567	629.570	0
1	22071801	166	Low	10.0	Precise	1	9	14	2	5.2	20.0	0.0	14	9	2	20.0	5.2	0.0	2	1.478	0.000	L	14	20.0	630.072	632.193	633.671	633.673	0
1	22071801	167	Low	10.0	Precise	1	14	8	2	20.0	20.1	0.0	2	14	8	0.0	20.0	20.1	1	1.821	0.001	D	14	20.0	634.177	636.098	637.919	637.921	0
1	22071801	168	Low	10.0	Vague	2	9	8	20	5.2	20.1	0.0	8	20	9	20.1	0.0	5.2	2	2.159	0.000	L	8	20.1	638.425	641.224	643.383	643.386	0
1	22071801	169	Low	10.0	Vague	2	9	15	32	5.2	11.7	0.0	15	32	9	11.7	0.0	5.2	2	1.838	0.000	L	15	11.7	643.888	645.496	647.335	647.337	0
1	22071801	170	Low	10.0	Precise	1	15	8	5	11.7	20.1	0.0	15	8	5	11.7	20.1	0.0	2	1.671	0.000	D	8	20.1	647.841	649.864	651.535	651.538	0
1	22071801	171	Low	10.0	Vague	2	15	8	20	11.7	20.1	0.0	20	15	8	0.0	11.7	20.1	2	1.847	0.001	R	8	20.1	652.041	654.408	656.255	656.258	0
1	22071801	172	Low	10.0	Precise	1	9	8	5	5.2	20.1	0.0	8	5	9	20.1	0.0	5.2	2	0.845	0.000	L	8	20.1	656.760	657.538	658.383	658.385	0
1	22071801	173	Low	10.0	Vague	2	9	8	36	5.2	20.1	0.0	8	36	9	20.1	0.0	5.2	2	0.816	0.001	L	8	20.1	658.888	661.143	661.959	661.961	0
1	22071801	174	Low	10.0	Vague	2	9	15	36	5.2	11.7	0.0	15	36	9	11.7	0.0	5.2	2	0.807	0.000	L	15	11.7	662.464	664.336	665.143	665.145	0
1	22071801	175	Low	10.0	Precise	1	9	8	18	5.2	20.1	0.0	18	8	9	0.0	20.1	5.2	2	1.021	0.001	D	8	20.1	665.648	667.722	668.743	668.746	0
1	22071801	176	Low	10.0	Precise	1	15	4	12	11.7	16.7	0.4	4	12	15	16.7	0.4	11.7	2	2.261	0.000	L	4	16.7	669.249	670.458	672.719	672.721	0
1	22071801	177	Low	10.0	Precise	1	9	4	18	5.2	16.7	0.0	4	18	9	16.7	0.0	5.2	2	0.751	0.000	L	4	16.7	673.224	675.567	676.319	676.321	0
1	22071801	178	Low	10.0	Precise	1	4	8	13	16.7	20.1	1.1	13	4	8	1.1	16.7	20.1	1	1.533	0.000	D	4	16.7	676.824	678.538	680.071	680.073	0
1	22071801	179	Low	10.0	Vague	2	9	4	19	5.2	16.7	0.3	19	4	9	0.3	16.7	5.2	2	0.704	0.001	D	4	16.7	680.576	681.431	682.135	682.138	0
1	22071801	180	Low	10.0	Vague	2	16	14	20	16.9	20.0	0.0	20	16	14	0.0	16.9	20.0	1	1.068	0.000	D	16	16.9	682.640	685.243	686.311	686.313	0
1	22071801	181	High	1.5	Vague	2	4	16	22	16.7	16.9	0.0	22	16	4	0.0	16.9	16.7	2	1.117	0.000	D	16	16.9	715.424	716.290	717.407	717.409	0
1	22071801	182	High	1.5	Vague	2	4	16	25	16.7	16.9	2.1	16	25	4	16.9	2.1	16.7	2	0.893	0.000	L	16	16.9	717.912	718.769	719.663	719.665	0
1	22071801	183	High	1.5	Vague	2	9	15	22	5.2	11.7	0.0	9	15	22	5.2	11.7	0.0	NaN	NaN	NaN	NaN	NaN	NaN	720.167	721.464	NaN	722.953	1
1	22071801	184	High	1.5	Precise	1	9	4	3	5.2	16.7	0.0	9	4	3	5.2	16.7	0.0	2	0.673	0.000	D	4	16.7	724.958	727.158	727.831	727.835	0
1	22071801	185	High	1.5	Precise	1	15	4	10	11.7	16.7	0.0	4	15	10	16.7	11.7	0.0	2	1.190	0.000	L	4	16.7	728.338	729.064	730.255	730.258	0
1	22071801	186	High	1.5	Vague	2	16	8	27	16.9	20.1	10.1	16	8	27	16.9	20.1	10.1	1	0.734	0.001	L	16	16.9	730.760	733.208	733.943	733.945	0
1	22071801	187	High	1.5	Vague	2	4	16	24	16.7	16.9	0.1	24	4	16	0.1	16.7	16.9	2	0.765	0.000	R	16	16.9	734.448	735.690	736.455	736.457	0
1	22071801	188	High	1.5	Precise	1	15	14	6	11.7	20.0	1.7	15	6	14	11.7	1.7	20.0	1	0.656	0.000	L	15	11.7	736.960	739.735	740.391	740.393	0
1	22071801	189	High	1.5	Precise	1	16	8	17	16.9	20.1	0.4	16	8	17	16.9	20.1	0.4	1	1.014	0.000	L	16	16.9	740.895	741.432	742.447	742.449	0
1	22071801	190	High	1.5	Vague	2	15	16	25	11.7	16.9	2.1	25	16	15	2.1	16.9	11.7	2	0.917	0.002	D	16	16.9	742.952	745.434	746.351	746.354	0
1	22071801	191	High	1.5	Precise	1	9	4	6	5.2	16.7	1.7	9	6	4	5.2	1.7	16.7	2	0.698	0.001	R	4	16.7	746.857	747.461	748.159	748.161	0
1	22071801	192	High	1.5	Vague	2	15	4	24	11.7	16.7	0.1	24	15	4	0.1	11.7	16.7	2	1.092	0.000	R	4	16.7	748.664	750.755	751.847	751.849	0
1	22071801	193	High	1.5	Precise	1	4	8	10	16.7	20.1	0.0	4	8	10	16.7	20.1	0.0	1	0.766	0.000	L	4	16.7	752.352	754.072	754.839	754.841	0
1	22071801	194	High	1.5	Precise	1	15	8	6	11.7	20.1	1.7	8	6	15	20.1	1.7	11.7	2	0.501	0.001	L	8	20.1	755.344	756.554	757.055	757.057	0
1	22071801	195	High	1.5	Vague	2	9	15	30	5.2	11.7	0.0	15	9	30	11.7	5.2	0.0	2	0.685	0.000	L	15	11.7	757.561	759.234	759.919	759.921	0
1	22071801	196	High	1.5	Vague	2	4	8	27	16.7	20.1	10.1	27	4	8	10.1	16.7	20.1	2	1.121	0.000	R	8	20.1	760.424	761.950	763.071	763.073	0
1	22071801	197	High	1.5	Vague	2	15	4	25	11.7	16.7	2.1	25	15	4	2.1	11.7	16.7	2	1.188	0.001	R	4	16.7	763.576	764.643	765.831	765.833	0
1	22071801	198	High	1.5	Vague	2	9	16	27	5.2	16.9	10.1	16	27	9	16.9	10.1	5.2	2	0.718	0.001	L	16	16.9	766.336	768.753	769.471	769.473	0
1	22071801	199	High	1.5	Vague	2	9	16	22	5.2	16.9	0.0	9	22	16	5.2	0.0	16.9	2	0.807	0.000	R	16	16.9	769.976	770.991	771.799	771.801	0
1	22071801	200	High	1.5	Precise	1	16	14	3	16.9	20.0	0.0	14	16	3	20.0	16.9	0.0	1	0.936	0.000	D	16	16.9	772.303	773.254	774.191	774.193	0
1	22071801	201	High	1.5	Precise	1	9	15	3	5.2	11.7	0.0	9	3	15	5.2	0.0	11.7	2	1.443	0.001	R	15	11.7	774.696	776.275	777.719	777.721	0
1	22071801	202	High	1.5	Vague	2	15	8	27	11.7	20.1	10.1	27	8	15	10.1	20.1	11.7	NaN	NaN	NaN	NaN	NaN	NaN	778.224	780.192	NaN	781.678	1
1	22071801	203	High	1.5	Vague	2	15	8	21	11.7	20.1	0.0	8	21	15	20.1	0.0	11.7	1	0.797	0.001	R	15	11.7	783.681	785.986	786.783	786.786	0
1	22071801	204	High	1.5	Precise	1	15	16	6	11.7	16.9	1.7	15	16	6	11.7	16.9	1.7	2	0.700	0.001	D	16	16.9	787.289	788.339	789.039	789.041	0
1	22071801	205	High	1.5	Vague	2	4	14	22	16.7	20.0	0.0	4	14	22	16.7	20.0	0.0	2	0.872	0.000	D	14	20.0	789.544	790.295	791.167	791.169	0
1	22071801	206	High	1.5	Vague	2	16	14	30	16.9	20.0	0.0	30	14	16	0.0	20.0	16.9	2	0.578	0.000	D	14	20.0	791.672	792.445	793.023	793.025	0
1	22071801	207	High	1.5	Precise	1	15	16	7	11.7	16.9	0.2	7	15	16	0.2	11.7	16.9	2	0.587	0.000	R	16	16.9	793.529	795.915	796.503	796.505	0
1	22071801	208	High	1.5	Precise	1	9	14	7	5.2	20.0	0.2	14	7	9	20.0	0.2	5.2	3	0.797	0.000	D	7	0.2	797.008	797.826	798.623	798.625	0
1	22071801	209	High	1.5	Vague	2	9	16	30	5.2	16.9	0.0	16	30	9	16.9	0.0	5.2	2	0.650	0.000	L	16	16.9	799.127	799.812	800.463	800.465	0
1	22071801	210	High	1.5	Precise	1	4	8	11	16.7	20.1	5.1	8	4	11	20.1	16.7	5.1	1	0.906	0.000	D	4	16.7	800.968	802.404	803.311	803.313	0
1	22071801	211	High	1.5	Precise	1	15	14	7	11.7	20.0	0.2	7	14	15	0.2	20.0	11.7	2	0.688	0.001	D	14	20.0	803.816	805.471	806.159	806.161	0
1	22071801	212	High	1.5	Vague	2	15	16	30	11.7	16.9	0.0	16	15	30	16.9	11.7	0.0	2	0.726	0.001	L	16	16.9	806.664	807.297	808.023	808.025	0
1	22071801	213	High	1.5	Vague	2	9	4	24	5.2	16.7	0.1	9	24	4	5.2	0.1	16.7	2	1.100	0.001	R	4	16.7	808.528	811.291	812.391	812.393	0
1	22071801	214	High	1.5	Precise	1	4	14	6	16.7	20.0	1.7	4	6	14	16.7	1.7	20.0	NaN	NaN	NaN	NaN	NaN	NaN	812.896	814.704	NaN	816.190	1
1	22071801	215	High	1.5	Vague	2	9	4	21	5.2	16.7	0.0	9	21	4	5.2	0.0	16.7	2	0.655	0.000	R	4	16.7	818.193	820.144	820.799	820.801	0
1	22071801	216	High	1.5	Precise	1	14	8	17	20.0	20.1	0.4	14	17	8	20.0	0.4	20.1	1	0.953	0.000	L	14	20.0	821.303	822.373	823.327	823.329	0
1	22071801	217	High	1.5	Precise	1	14	8	3	20.0	20.1	0.0	8	14	3	20.1	20.0	0.0	1	1.140	0.000	D	14	20.0	823.832	825.162	826.303	826.305	0
1	22071801	218	High	1.5	Vague	2	9	8	24	5.2	20.1	0.1	9	8	24	5.2	20.1	0.1	2	1.029	0.000	D	8	20.1	826.808	827.354	828.383	828.385	0
1	22071801	219	High	1.5	Vague	2	9	14	24	5.2	20.0	0.1	9	24	14	5.2	0.1	20.0	2	0.830	0.000	R	14	20.0	828.889	829.680	830.511	830.513	0
1	22071801	220	High	1.5	Precise	1	9	14	6	5.2	20.0	1.7	14	6	9	20.0	1.7	5.2	2	0.684	0.001	L	14	20.0	831.015	833.290	833.975	833.977	0
1	22071801	221	High	1.5	Precise	1	15	8	3	11.7	20.1	0.0	3	15	8	0.0	11.7	20.1	1	1.146	0.001	D	15	11.7	834.480	836.965	838.111	838.113	0
1	22071801	222	High	1.5	Vague	2	15	8	30	11.7	20.1	0.0	15	30	8	11.7	0.0	20.1	2	1.002	0.000	R	8	20.1	838.616	840.997	841.999	842.002	0
1	22071801	223	High	1.5	Precise	1	9	8	10	5.2	20.1	0.0	8	10	9	20.1	0.0	5.2	2	0.981	0.000	L	8	20.1	842.505	843.225	844.206	844.210	0
1	22071801	224	High	1.5	Vague	2	15	14	21	11.7	20.0	0.0	15	21	14	11.7	0.0	20.0	2	1.020	0.000	R	14	20.0	844.712	846.530	847.551	847.553	0
1	22071801	225	High	1.5	Vague	2	15	8	24	11.7	20.1	0.1	15	24	8	11.7	0.1	20.1	2	1.222	0.000	R	8	20.1	848.056	850.304	851.526	851.529	0
1	22071801	226	High	1.5	Precise	1	16	14	7	16.9	20.0	0.2	7	16	14	0.2	16.9	20.0	2	0.760	0.000	R	14	20.0	852.032	853.567	854.327	854.329	0
1	22071801	227	High	1.5	Vague	2	9	8	22	5.2	20.1	0.0	22	9	8	0.0	5.2	20.1	2	0.741	0.000	R	8	20.1	854.832	856.577	857.319	857.321	0
1	22071801	228	High	1.5	Precise	1	9	4	11	5.2	16.7	5.1	9	11	4	5.2	5.1	16.7	2	0.660	0.001	R	4	16.7	857.824	859.866	860.527	860.529	0
1	22071801	229	High	1.5	Vague	2	16	8	25	16.9	20.1	2.1	16	8	25	16.9	20.1	2.1	1	0.764	0.000	L	16	16.9	861.031	862.490	863.255	863.257	0
1	22071801	230	High	1.5	Precise	1	9	8	3	5.2	20.1	0.0	9	8	3	5.2	20.1	0.0	2	0.816	0.000	D	8	20.1	863.760	865.095	865.911	865.913	0
1	22071801	231	High	1.5	Vague	2	4	8	25	16.7	20.1	2.1	8	25	4	20.1	2.1	16.7	1	1.059	0.000	R	4	16.7	866.416	869.371	870.431	870.433	0
1	22071801	232	High	1.5	Precise	1	15	16	10	11.7	16.9	0.0	15	16	10	11.7	16.9	0.0	2	1.014	0.001	D	16	16.9	870.935	873.769	874.783	874.785	0
1	22071801	233	High	1.5	Vague	2	9	16	24	5.2	16.9	0.1	9	24	16	5.2	0.1	16.9	2	0.727	0.000	R	16	16.9	875.288	877.976	878.702	878.705	0
1	22071801	234	High	1.5	Precise	1	16	14	10	16.9	20.0	0.0	16	10	14	16.9	0.0	20.0	1	0.847	0.000	L	16	16.9	879.207	880.008	880.854	880.857	0
1	22071801	235	High	1.5	Vague	2	9	8	30	5.2	20.1	0.0	9	30	8	5.2	0.0	20.1	2	1.123	0.000	R	8	20.1	881.359	883.787	884.910	884.913	0
1	22071801	236	High	1.5	Precise	1	4	16	17	16.7	16.9	0.4	17	16	4	0.4	16.9	16.7	2	0.970	0.001	D	16	16.9	885.415	887.949	888.919	888.921	0
1	22071801	237	High	1.5	Precise	1	9	15	7	5.2	11.7	0.2	7	15	9	0.2	11.7	5.2	NaN	NaN	NaN	NaN	NaN	NaN	889.424	891.754	NaN	893.241	1
1	22071801	238	High	1.5	Vague	2	9	14	21	5.2	20.0	0.0	14	21	9	20.0	0.0	5.2	NaN	NaN	NaN	NaN	NaN	NaN	895.244	897.062	NaN	898.549	1
1	22071801	239	High	1.5	Vague	2	4	8	21	16.7	20.1	0.0	21	8	4	0.0	20.1	16.7	1	0.831	0.000	R	4	16.7	900.553	903.352	904.183	904.185	0
1	22071801	240	High	1.5	Precise	1	9	15	11	5.2	11.7	5.1	9	15	11	5.2	11.7	5.1	2	0.770	0.001	D	15	11.7	904.689	907.245	908.015	908.017	0
1	22071801	241	High	1.5	Vague	2	9	4	22	5.2	16.7	0.0	9	22	4	5.2	0.0	16.7	2	0.713	0.000	R	4	16.7	921.633	923.613	924.326	924.329	0
1	22071801	242	High	1.5	Vague	2	9	16	25	5.2	16.9	2.1	25	9	16	2.1	5.2	16.9	2	0.706	0.000	R	16	16.9	924.832	926.485	927.191	927.193	0
1	22071801	243	High	1.5	Vague	2	9	15	27	5.2	11.7	10.1	9	27	15	5.2	10.1	11.7	3	1.423	0.000	D	27	10.1	927.696	930.456	931.879	931.881	0
1	22071801	244	High	1.5	Precise	1	15	14	17	11.7	20.0	0.4	15	17	14	11.7	0.4	20.0	2	0.758	0.000	R	14	20.0	932.384	933.944	934.702	934.705	0
1	22071801	245	High	1.5	Vague	2	16	14	21	16.9	20.0	0.0	16	21	14	16.9	0.0	20.0	2	0.512	0.000	R	14	20.0	935.207	937.335	937.847	937.849	0
1	22071801	246	High	1.5	Vague	2	15	14	27	11.7	20.0	10.1	14	15	27	20.0	11.7	10.1	2	1.066	0.000	L	14	20.0	938.351	941.164	942.230	942.233	0
1	22071801	247	High	1.5	Vague	2	15	16	27	11.7	16.9	10.1	15	27	16	11.7	10.1	16.9	2	0.713	0.000	R	16	16.9	942.736	943.862	944.575	944.577	0
1	22071801	248	High	1.5	Precise	1	9	16	17	5.2	16.9	0.4	9	17	16	5.2	0.4	16.9	2	0.550	0.001	R	16	16.9	945.080	946.881	947.431	947.433	0
1	22071801	249	High	1.5	Vague	2	16	8	30	16.9	20.1	0.0	30	8	16	0.0	20.1	16.9	1	0.541	0.000	R	16	16.9	947.936	950.466	951.006	951.009	0
1	22071801	250	High	1.5	Precise	1	15	4	11	11.7	16.7	5.1	4	15	11	16.7	11.7	5.1	2	0.745	0.000	L	4	16.7	951.511	953.406	954.151	954.153	0
1	22071801	251	High	1.5	Vague	2	14	8	24	20.0	20.1	0.1	8	24	14	20.1	0.1	20.0	1	0.842	0.000	R	14	20.0	954.655	957.269	958.110	958.113	0
1	22071801	252	High	1.5	Precise	1	15	8	11	11.7	20.1	5.1	8	15	11	20.1	11.7	5.1	2	1.153	0.000	L	8	20.1	958.616	961.605	962.758	962.761	0
1	22071801	253	High	1.5	Precise	1	4	8	3	16.7	20.1	0.0	3	8	4	0.0	20.1	16.7	1	0.646	0.000	R	4	16.7	963.263	964.656	965.303	965.305	0
1	22071801	254	High	1.5	Precise	1	14	8	7	20.0	20.1	0.2	8	14	7	20.1	20.0	0.2	1	1.211	0.000	D	14	20.0	965.808	967.788	968.999	969.001	0
1	22071801	255	High	1.5	Vague	2	15	16	24	11.7	16.9	0.1	24	16	15	0.1	16.9	11.7	2	0.926	0.001	D	16	16.9	969.504	972.497	973.423	973.425	0
1	22071801	256	High	1.5	Vague	2	15	4	30	11.7	16.7	0.0	4	15	30	16.7	11.7	0.0	2	0.981	0.000	L	4	16.7	973.928	974.705	975.687	975.689	0
1	22071801	257	High	1.5	Vague	2	9	14	30	5.2	20.0	0.0	30	9	14	0.0	5.2	20.0	2	0.716	0.001	R	14	20.0	976.191	977.843	978.559	978.561	0
1	22071801	258	High	1.5	Vague	2	15	16	21	11.7	16.9	0.0	15	16	21	11.7	16.9	0.0	2	0.680	0.000	D	16	16.9	979.064	980.103	980.783	980.785	0
1	22071801	259	High	1.5	Precise	1	14	8	6	20.0	20.1	1.7	14	8	6	20.0	20.1	1.7	1	1.265	0.000	L	14	20.0	981.288	983.229	984.495	984.497	0
1	22071801	260	High	1.5	Vague	2	9	4	30	5.2	16.7	0.0	4	30	9	16.7	0.0	5.2	2	0.867	0.000	L	4	16.7	984.999	985.828	986.695	986.697	0
1	22071801	261	High	1.5	Precise	1	9	16	6	5.2	16.9	1.7	16	6	9	16.9	1.7	5.2	2	0.653	0.000	L	16	16.9	987.200	989.938	990.591	990.593	0
1	22071801	262	High	1.5	Vague	2	4	16	21	16.7	16.9	0.0	21	4	16	0.0	16.7	16.9	2	0.639	0.000	R	16	16.9	991.096	993.328	993.966	993.969	0
1	22071801	263	High	1.5	Vague	2	4	14	21	16.7	20.0	0.0	14	21	4	20.0	0.0	16.7	1	0.938	0.000	R	4	16.7	994.471	995.460	996.398	996.401	0
1	22071801	264	High	1.5	Precise	1	9	16	10	5.2	16.9	0.0	16	10	9	16.9	0.0	5.2	2	0.633	0.000	L	16	16.9	996.904	998.469	999.102	999.105	0
1	22071801	265	High	1.5	Precise	1	4	16	10	16.7	16.9	0.0	10	4	16	0.0	16.7	16.9	2	0.613	0.000	R	16	16.9	999.608	1001.001	1001.615	1001.617	0
1	22071801	266	High	1.5	Vague	2	9	8	27	5.2	20.1	10.1	9	27	8	5.2	10.1	20.1	2	1.363	0.000	R	8	20.1	1002.120	1002.755	1004.118	1004.121	0
1	22071801	267	High	1.5	Vague	2	16	14	24	16.9	20.0	0.1	24	14	16	0.1	20.0	16.9	1	0.849	0.000	R	16	16.9	1004.624	1007.581	1008.430	1008.433	0
1	22071801	268	High	1.5	Vague	2	14	8	22	20.0	20.1	0.0	14	22	8	20.0	0.0	20.1	2	0.590	0.000	R	8	20.1	1008.935	1010.440	1011.030	1011.033	0
1	22071801	269	High	1.5	Precise	1	15	4	17	11.7	16.7	0.4	4	17	15	16.7	0.4	11.7	2	1.043	0.000	L	4	16.7	1011.535	1014.076	1015.119	1015.121	0
1	22071801	270	High	1.5	Vague	2	9	4	27	5.2	16.7	10.1	9	27	4	5.2	10.1	16.7	2	0.937	0.000	R	4	16.7	1015.623	1018.333	1019.270	1019.273	0
1	22071801	271	High	1.5	Vague	2	15	8	22	11.7	20.1	0.0	8	15	22	20.1	11.7	0.0	2	1.013	0.000	L	8	20.1	1019.776	1020.905	1021.918	1021.921	0
1	22071801	272	High	1.5	Vague	2	15	14	24	11.7	20.0	0.1	15	14	24	11.7	20.0	0.1	NaN	NaN	NaN	NaN	NaN	NaN	1022.423	1024.866	NaN	1026.356	1
1	22071801	273	High	1.5	Precise	1	15	4	7	11.7	16.7	0.2	7	15	4	0.2	11.7	16.7	2	1.131	0.000	R	4	16.7	1028.360	1030.692	1031.823	1031.825	0
1	22071801	274	High	1.5	Vague	2	4	16	30	16.7	16.9	0.0	30	16	4	0.0	16.9	16.7	2	1.250	0.000	D	16	16.9	1032.328	1034.708	1035.958	1035.961	0
1	22071801	275	High	1.5	Vague	2	15	4	22	11.7	16.7	0.0	4	22	15	16.7	0.0	11.7	2	0.864	0.001	L	4	16.7	1036.464	1037.471	1038.335	1038.337	0
1	22071801	276	High	1.5	Precise	1	9	14	11	5.2	20.0	5.1	14	11	9	20.0	5.1	5.2	2	0.728	0.000	L	14	20.0	1038.840	1041.590	1042.318	1042.322	0
1	22071801	277	High	1.5	Precise	1	9	4	7	5.2	16.7	0.2	9	4	7	5.2	16.7	0.2	2	0.849	0.000	D	4	16.7	1042.824	1044.134	1044.983	1044.985	0
1	22071801	278	High	1.5	Precise	1	9	8	7	5.2	20.1	0.2	7	8	9	0.2	20.1	5.2	2	1.110	0.000	D	8	20.1	1045.488	1046.473	1047.583	1047.585	0
1	22071801	279	High	1.5	Precise	1	9	8	17	5.2	20.1	0.4	8	17	9	20.1	0.4	5.2	2	0.745	0.000	L	8	20.1	1048.088	1050.069	1050.814	1050.817	0
1	22071801	280	High	1.5	Vague	2	14	8	30	20.0	20.1	0.0	14	30	8	20.0	0.0	20.1	1	0.791	0.000	L	14	20.0	1051.320	1052.119	1052.911	1052.913	0
1	22071801	281	High	1.5	Precise	1	4	16	6	16.7	16.9	1.7	6	4	16	1.7	16.7	16.9	2	0.731	0.000	R	16	16.9	1053.415	1054.123	1054.854	1054.857	0
1	22071801	282	High	1.5	Precise	1	15	8	7	11.7	20.1	0.2	8	15	7	20.1	11.7	0.2	2	0.896	0.000	L	8	20.1	1055.359	1058.038	1058.934	1058.937	0
1	22071801	283	High	1.5	Vague	2	9	14	25	5.2	20.0	2.1	25	14	9	2.1	20.0	5.2	2	1.251	0.001	D	14	20.0	1059.439	1060.404	1061.655	1061.657	0
1	22071801	284	High	1.5	Precise	1	14	8	11	20.0	20.1	5.1	8	11	14	20.1	5.1	20.0	1	0.956	0.000	R	14	20.0	1062.160	1063.178	1064.134	1064.137	0
1	22071801	285	High	1.5	Precise	1	4	8	7	16.7	20.1	0.2	8	7	4	20.1	0.2	16.7	1	0.778	0.000	R	4	16.7	1064.639	1066.133	1066.911	1066.913	0
1	22071801	286	High	1.5	Precise	1	9	14	10	5.2	20.0	0.0	10	14	9	0.0	20.0	5.2	2	1.075	0.000	D	14	20.0	1067.415	1067.931	1069.007	1069.009	0
1	22071801	287	High	1.5	Vague	2	9	8	21	5.2	20.1	0.0	21	9	8	0.0	5.2	20.1	2	0.795	0.001	R	8	20.1	1069.512	1070.052	1070.847	1070.849	0
1	22071801	288	High	1.5	Precise	1	16	8	7	16.9	20.1	0.2	8	16	7	20.1	16.9	0.2	1	0.775	0.000	D	16	16.9	1071.352	1073.079	1073.854	1073.857	0
1	22071801	289	High	1.5	Precise	1	4	14	11	16.7	20.0	5.1	11	4	14	5.1	16.7	20.0	1	1.030	0.000	D	4	16.7	1074.360	1076.400	1077.431	1077.433	0
1	22071801	290	High	1.5	Precise	1	4	14	17	16.7	20.0	0.4	4	17	14	16.7	0.4	20.0	1	1.158	0.001	L	4	16.7	1077.935	1078.585	1079.743	1079.745	0
1	22071801	291	High	1.5	Vague	2	9	16	21	5.2	16.9	0.0	9	21	16	5.2	0.0	16.9	2	0.597	0.000	R	16	16.9	1080.248	1081.921	1082.518	1082.521	0
1	22071801	292	High	1.5	Precise	1	9	15	6	5.2	11.7	1.7	9	15	6	5.2	11.7	1.7	2	0.690	0.000	D	15	11.7	1083.024	1084.892	1085.583	1085.585	0
1	22071801	293	High	1.5	Precise	1	9	15	10	5.2	11.7	0.0	9	15	10	5.2	11.7	0.0	NaN	NaN	NaN	NaN	NaN	NaN	1086.087	1086.723	NaN	1088.209	1
1	22071801	294	High	1.5	Vague	2	15	14	25	11.7	20.0	2.1	15	14	25	11.7	20.0	2.1	2	1.108	0.000	D	14	20.0	1090.212	1092.778	1093.887	1093.889	0
1	22071801	295	High	1.5	Vague	2	9	14	22	5.2	20.0	0.0	14	9	22	20.0	5.2	0.0	2	0.736	0.000	L	14	20.0	1094.392	1096.742	1097.478	1097.481	0
1	22071801	296	High	1.5	Precise	1	15	8	17	11.7	20.1	0.4	8	15	17	20.1	11.7	0.4	2	1.233	0.000	L	8	20.1	1097.984	1099.661	1100.894	1100.897	0
1	22071801	297	High	1.5	Vague	2	16	14	27	16.9	20.0	10.1	14	27	16	20.0	10.1	16.9	1	0.658	0.000	R	16	16.9	1101.400	1103.396	1104.054	1104.057	0
1	22071801	298	High	1.5	Vague	2	9	15	21	5.2	11.7	0.0	21	9	15	0.0	5.2	11.7	NaN	NaN	NaN	NaN	NaN	NaN	1104.560	1107.371	NaN	1108.857	1
1	22071801	299	High	1.5	Precise	1	14	8	10	20.0	20.1	0.0	14	10	8	20.0	0.0	20.1	1	0.907	0.000	L	14	20.0	1110.860	1112.315	1113.223	1113.225	0
1	22071801	300	High	1.5	Precise	1	9	14	17	5.2	20.0	0.4	14	17	9	20.0	0.4	5.2	2	0.713	0.001	L	14	20.0	1113.727	1116.110	1116.823	1116.825	0
1	22071801	301	High	1.5	Vague	2	16	8	24	16.9	20.1	0.1	8	24	16	20.1	0.1	16.9	1	0.963	0.000	R	16	16.9	1134.977	1137.243	1138.206	1138.209	0
1	22071801	302	High	1.5	Vague	2	4	14	25	16.7	20.0	2.1	14	25	4	20.0	2.1	16.7	2	0.908	0.000	L	14	20.0	1138.711	1141.274	1142.182	1142.185	0
1	22071801	303	High	1.5	Precise	1	15	16	11	11.7	16.9	5.1	16	15	11	16.9	11.7	5.1	2	0.920	0.000	L	16	16.9	1142.688	1144.638	1145.558	1145.561	0
1	22071801	304	High	1.5	Precise	1	16	8	10	16.9	20.1	0.0	16	10	8	16.9	0.0	20.1	1	0.572	0.000	L	16	16.9	1146.064	1147.707	1148.278	1148.281	0
1	22071801	305	High	1.5	Precise	1	16	14	6	16.9	20.0	1.7	16	14	6	16.9	20.0	1.7	1	0.556	0.000	L	16	16.9	1148.784	1151.211	1151.767	1151.769	0
1	22071801	306	High	1.5	Precise	1	4	14	3	16.7	20.0	0.0	4	3	14	16.7	0.0	20.0	1	0.912	0.000	L	4	16.7	1152.272	1154.511	1155.422	1155.425	0
1	22071801	307	High	1.5	Vague	2	15	14	30	11.7	20.0	0.0	30	14	15	0.0	20.0	11.7	1	1.219	0.001	R	15	11.7	1155.927	1158.004	1159.223	1159.225	0
1	22071801	308	High	1.5	Precise	1	4	14	7	16.7	20.0	0.2	14	4	7	20.0	16.7	0.2	2	1.052	0.000	L	14	20.0	1159.728	1161.331	1162.383	1162.385	0
1	22071801	309	High	1.5	Precise	1	15	14	10	11.7	20.0	0.0	15	14	10	11.7	20.0	0.0	2	1.205	0.000	D	14	20.0	1162.888	1163.882	1165.086	1165.089	0
1	22071801	310	High	1.5	Vague	2	4	14	30	16.7	20.0	0.0	14	4	30	20.0	16.7	0.0	2	0.628	0.000	L	14	20.0	1165.592	1167.802	1168.431	1168.433	0
1	22071801	311	High	1.5	Precise	1	9	16	7	5.2	16.9	0.2	9	7	16	5.2	0.2	16.9	2	0.666	0.000	R	16	16.9	1168.936	1170.509	1171.174	1171.177	0
1	22071801	312	High	1.5	Precise	1	9	4	10	5.2	16.7	0.0	9	4	10	5.2	16.7	0.0	2	0.799	0.000	D	4	16.7	1171.680	1173.136	1173.935	1173.937	0
1	22071801	313	High	1.5	Precise	1	4	16	3	16.7	16.9	0.0	3	4	16	0.0	16.7	16.9	2	0.644	0.001	R	16	16.9	1174.440	1176.987	1177.631	1177.633	0
1	22071801	314	High	1.5	Precise	1	15	14	11	11.7	20.0	5.1	11	14	15	5.1	20.0	11.7	1	0.648	0.000	R	15	11.7	1178.136	1180.543	1181.191	1181.193	0
1	22071801	315	High	1.5	Vague	2	16	14	25	16.9	20.0	2.1	14	16	25	20.0	16.9	2.1	1	0.679	0.001	D	16	16.9	1181.696	1183.207	1183.887	1183.889	0
1	22071801	316	High	1.5	Vague	2	15	8	25	11.7	20.1	2.1	15	25	8	11.7	2.1	20.1	NaN	NaN	NaN	NaN	NaN	NaN	1184.392	1186.405	NaN	1187.894	1
1	22071801	317	High	1.5	Vague	2	9	14	27	5.2	20.0	10.1	14	9	27	20.0	5.2	10.1	2	0.781	0.000	L	14	20.0	1189.897	1192.722	1193.502	1193.505	0
1	22071801	318	High	1.5	Precise	1	15	4	3	11.7	16.7	0.0	3	4	15	0.0	16.7	11.7	2	1.068	0.000	D	4	16.7	1194.007	1196.762	1197.830	1197.833	0
1	22071801	319	High	1.5	Vague	2	4	16	27	16.7	16.9	10.1	27	4	16	10.1	16.7	16.9	2	0.693	0.000	R	16	16.9	1198.336	1200.394	1201.086	1201.089	0
1	22071801	320	High	1.5	Vague	2	15	4	27	11.7	16.7	10.1	4	15	27	16.7	11.7	10.1	3	1.020	0.001	R	27	10.1	1201.592	1203.203	1204.223	1204.225	0
1	22071801	321	High	1.5	Precise	1	4	16	7	16.7	16.9	0.2	7	4	16	0.2	16.7	16.9	2	0.646	0.001	R	16	16.9	1204.728	1205.945	1206.591	1206.593	0
1	22071801	322	High	1.5	Vague	2	15	16	22	11.7	16.9	0.0	15	22	16	11.7	0.0	16.9	2	0.526	0.001	R	16	16.9	1207.096	1209.832	1210.359	1210.361	0
1	22071801	323	High	1.5	Precise	1	4	8	6	16.7	20.1	1.7	8	6	4	20.1	1.7	16.7	1	0.893	0.000	R	4	16.7	1210.865	1212.921	1213.814	1213.817	0
1	22071801	324	High	1.5	Vague	2	9	15	25	5.2	11.7	2.1	9	25	15	5.2	2.1	11.7	NaN	NaN	NaN	NaN	NaN	NaN	1214.319	1216.184	NaN	1217.670	1
1	22071801	325	High	1.5	Precise	1	9	15	17	5.2	11.7	0.4	15	17	9	11.7	0.4	5.2	1	1.189	0.000	R	9	5.2	1219.674	1220.690	1221.878	1221.881	0
1	22071801	326	High	1.5	Precise	1	15	16	17	11.7	16.9	0.4	16	15	17	16.9	11.7	0.4	2	0.776	0.000	L	16	16.9	1222.383	1223.814	1224.590	1224.593	0
1	22071801	327	High	1.5	Precise	1	15	8	10	11.7	20.1	0.0	8	15	10	20.1	11.7	0.0	NaN	NaN	NaN	NaN	NaN	NaN	1225.095	1227.211	NaN	1228.697	1
1	22071801	328	High	1.5	Vague	2	16	8	22	16.9	20.1	0.0	22	8	16	0.0	20.1	16.9	1	0.625	0.000	R	16	16.9	1230.699	1232.918	1233.542	1233.545	0
1	22071801	329	High	1.5	Vague	2	4	14	27	16.7	20.0	10.1	4	27	14	16.7	10.1	20.0	2	0.895	0.000	R	14	20.0	1234.048	1234.575	1235.470	1235.473	0
1	22071801	330	High	1.5	Vague	2	9	15	24	5.2	11.7	0.1	15	24	9	11.7	0.1	5.2	2	0.954	0.000	L	15	11.7	1235.976	1238.789	1239.743	1239.745	0
1	22071801	331	High	1.5	Precise	1	16	8	3	16.9	20.1	0.0	3	16	8	0.0	16.9	20.1	1	0.842	0.000	D	16	16.9	1240.247	1242.748	1243.590	1243.593	0
1	22071801	332	High	1.5	Vague	2	15	14	22	11.7	20.0	0.0	15	22	14	11.7	0.0	20.0	2	0.900	0.000	R	14	20.0	1244.095	1245.666	1246.566	1246.569	0
1	22071801	333	High	1.5	Vague	2	14	8	21	20.0	20.1	0.0	14	8	21	20.0	20.1	0.0	1	0.858	0.001	L	14	20.0	1247.072	1248.652	1249.510	1249.513	0
1	22071801	334	High	1.5	Precise	1	9	4	17	5.2	16.7	0.4	9	4	17	5.2	16.7	0.4	2	0.898	0.001	D	4	16.7	1250.015	1250.605	1251.503	1251.506	0
1	22071801	335	High	1.5	Vague	2	4	8	30	16.7	20.1	0.0	8	30	4	20.1	0.0	16.7	1	0.797	0.001	R	4	16.7	1252.009	1254.586	1255.383	1255.385	0
1	22071801	336	High	1.5	Precise	1	9	8	6	5.2	20.1	1.7	9	6	8	5.2	1.7	20.1	2	0.991	0.000	R	8	20.1	1255.888	1257.623	1258.614	1258.617	0
1	22071801	337	High	1.5	Vague	2	16	8	21	16.9	20.1	0.0	8	21	16	20.1	0.0	16.9	1	0.571	0.000	R	16	16.9	1259.120	1261.163	1261.734	1261.737	0
1	22071801	338	High	1.5	Vague	2	14	8	25	20.0	20.1	2.1	8	14	25	20.1	20.0	2.1	2	0.840	0.001	L	8	20.1	1262.239	1262.783	1263.622	1263.625	0
1	22071801	339	High	1.5	Precise	1	4	8	17	16.7	20.1	0.4	8	4	17	20.1	16.7	0.4	1	1.047	0.000	D	4	16.7	1264.127	1264.872	1265.919	1265.921	0
1	22071801	340	High	1.5	Precise	1	9	16	11	5.2	16.9	5.1	11	16	9	5.1	16.9	5.2	2	0.646	0.000	D	16	16.9	1266.423	1266.944	1267.590	1267.593	0
1	22071801	341	High	1.5	Precise	1	9	14	3	5.2	20.0	0.0	3	9	14	0.0	5.2	20.0	2	1.019	0.000	R	14	20.0	1268.096	1268.995	1270.014	1270.017	0
1	22071801	342	High	1.5	Vague	2	15	4	21	11.7	16.7	0.0	4	21	15	16.7	0.0	11.7	2	0.796	0.000	L	4	16.7	1270.520	1272.922	1273.718	1273.720	0
1	22071801	343	High	1.5	Precise	1	9	8	11	5.2	20.1	5.1	9	11	8	5.2	5.1	20.1	1	1.313	0.000	L	9	5.2	1274.224	1276.605	1277.918	1277.920	0
1	22071801	344	High	1.5	Vague	2	4	14	24	16.7	20.0	0.1	4	14	24	16.7	20.0	0.1	1	0.696	0.000	L	4	16.7	1278.423	1281.134	1281.830	1281.833	0
1	22071801	345	High	1.5	Vague	2	9	4	25	5.2	16.7	2.1	25	9	4	2.1	5.2	16.7	2	0.817	0.000	R	4	16.7	1282.336	1284.301	1285.118	1285.121	0
1	22071801	346	High	1.5	Precise	1	15	16	3	11.7	16.9	0.0	15	16	3	11.7	16.9	0.0	2	0.793	0.001	D	16	16.9	1285.624	1286.741	1287.534	1287.537	0
1	22071801	347	High	1.5	Precise	1	16	14	11	16.9	20.0	5.1	16	11	14	16.9	5.1	20.0	1	0.742	0.001	L	16	16.9	1288.039	1289.056	1289.798	1289.801	0
1	22071801	348	High	1.5	Vague	2	14	8	27	20.0	20.1	10.1	27	8	14	10.1	20.1	20.0	1	0.984	0.000	R	14	20.0	1290.303	1291.390	1292.374	1292.377	0
1	22071801	349	High	1.5	Precise	1	15	14	3	11.7	20.0	0.0	3	14	15	0.0	20.0	11.7	1	0.869	0.000	R	15	11.7	1292.880	1294.785	1295.654	1295.657	0
1	22071801	350	High	1.5	Precise	1	16	14	17	16.9	20.0	0.4	16	17	14	16.9	0.4	20.0	1	0.759	0.000	L	16	16.9	1296.160	1297.055	1297.814	1297.817	0
1	22071801	351	High	1.5	Precise	1	15	4	6	11.7	16.7	1.7	4	6	15	16.7	1.7	11.7	2	0.927	0.000	L	4	16.7	1298.320	1301.279	1302.206	1302.208	0
1	22071801	352	High	1.5	Vague	2	4	8	22	16.7	20.1	0.0	22	4	8	0.0	16.7	20.1	1	0.732	0.000	D	4	16.7	1302.711	1305.690	1306.422	1306.425	0
1	22071801	353	High	1.5	Precise	1	4	16	11	16.7	16.9	5.1	11	4	16	5.1	16.7	16.9	2	0.619	0.000	R	16	16.9	1306.928	1309.235	1309.854	1309.857	0
1	22071801	354	High	1.5	Precise	1	4	14	10	16.7	20.0	0.0	10	14	4	0.0	20.0	16.7	1	0.797	0.001	R	4	16.7	1310.360	1311.074	1311.870	1311.873	0
1	22071801	355	High	1.5	Precise	1	16	8	11	16.9	20.1	5.1	11	16	8	5.1	16.9	20.1	1	0.730	0.000	D	16	16.9	1312.375	1314.340	1315.070	1315.073	0
1	22071801	356	High	1.5	Vague	2	4	8	24	16.7	20.1	0.1	4	24	8	16.7	0.1	20.1	NaN	NaN	NaN	NaN	NaN	NaN	1315.575	1317.757	NaN	1319.244	1
1	22071801	357	High	1.5	Vague	2	16	14	22	16.9	20.0	0.0	14	22	16	20.0	0.0	16.9	1	0.607	0.000	R	16	16.9	1321.246	1323.967	1324.574	1324.577	0
1	22071801	358	High	1.5	Vague	2	9	8	25	5.2	20.1	2.1	9	8	25	5.2	20.1	2.1	2	1.142	0.000	D	8	20.1	1325.080	1326.824	1327.966	1327.969	0
1	22071801	359	High	1.5	Precise	1	9	16	3	5.2	16.9	0.0	9	16	3	5.2	16.9	0.0	2	0.564	0.001	D	16	16.9	1328.472	1331.354	1331.918	1331.921	0
1	22071801	360	High	1.5	Precise	1	16	8	6	16.9	20.1	1.7	6	8	16	1.7	20.1	16.9	1	0.902	0.000	R	16	16.9	1332.424	1334.504	1335.406	1335.409	0
