Group	subID	trial	TimePressure	TimeConstraint	Vagueness	Vaguenesscode	ID1	ID2	ID3	V1	V2	V3	ID_left	ID_middle	ID_right	Bid_left	Bid_middle	Bid_right	chosenItem	RT	RTvariance	chosenPosition	chosenID	chosenValue	fixation_time	option_time	choice_time	feedback_time	timeout
2	22102704	1	High	1.5	Precise	1	31	26	21	13.1	20.8	6.4	31	26	21	13.1	20.8	6.4	2	1.013	0.000	D	26	20.8	3.450	5.433	6.446	6.450	0
2	22102704	2	High	1.5	Precise	1	35	33	28	13.0	29.8	7.8	33	35	28	29.8	13.0	7.8	2	0.732	0.000	L	33	29.8	6.954	8.306	9.038	9.041	0
2	22102704	3	High	1.5	Vague	2	31	26	16	13.1	20.8	8.1	26	31	16	20.8	13.1	8.1	1	0.748	0.000	D	31	13.1	9.546	12.042	12.790	12.792	0
2	22102704	4	High	1.5	Precise	1	35	31	28	13.0	13.1	7.8	28	31	35	7.8	13.1	13.0	2	0.874	0.000	D	31	13.1	13.296	15.012	15.886	15.888	0
2	22102704	5	High	1.5	Vague	2	32	26	13	12.2	20.8	4.3	32	26	13	12.2	20.8	4.3	1	1.181	0.000	L	32	12.2	16.392	17.753	18.934	18.938	0
2	22102704	6	High	1.5	Vague	2	32	26	6	12.2	20.8	1.0	6	32	26	1.0	12.2	20.8	1	0.702	0.001	D	32	12.2	19.446	20.608	21.310	21.313	0
2	22102704	7	High	1.5	Vague	2	32	34	6	12.2	13.9	1.0	6	34	32	1.0	13.9	12.2	2	0.312	0.000	D	34	13.9	21.815	24.046	24.358	24.360	0
2	22102704	8	High	1.5	Vague	2	35	26	16	13.0	20.8	8.1	16	26	35	8.1	20.8	13.0	2	0.629	0.001	D	26	20.8	24.863	26.489	27.118	27.120	0
2	22102704	9	High	1.5	Vague	2	35	33	13	13.0	29.8	4.3	35	13	33	13.0	4.3	29.8	1	0.563	0.001	L	35	13.0	27.623	29.411	29.974	29.976	0
2	22102704	10	High	1.5	Vague	2	35	34	2	13.0	13.9	1.8	2	35	34	1.8	13.0	13.9	1	0.794	0.000	D	35	13.0	30.479	31.213	32.006	32.008	0
2	22102704	11	High	1.5	Vague	2	35	26	6	13.0	20.8	1.0	35	26	6	13.0	20.8	1.0	1	0.459	0.000	L	35	13.0	32.511	33.915	34.374	34.376	0
2	22102704	12	High	1.5	Precise	1	35	34	27	13.0	13.9	1.9	34	35	27	13.9	13.0	1.9	1	0.580	0.000	D	35	13.0	34.879	35.377	35.958	35.960	0
2	22102704	13	High	1.5	Vague	2	26	33	13	20.8	29.8	4.3	33	13	26	29.8	4.3	20.8	1	0.969	0.000	R	26	20.8	36.463	37.901	38.870	38.873	0
2	22102704	14	High	1.5	Vague	2	26	33	2	20.8	29.8	1.8	26	2	33	20.8	1.8	29.8	1	0.533	0.000	L	26	20.8	39.375	41.337	41.870	41.873	0
2	22102704	15	High	1.5	Precise	1	32	33	29	12.2	29.8	0.0	33	29	32	29.8	0.0	12.2	2	0.620	0.000	L	33	29.8	42.375	42.946	43.566	43.568	0
2	22102704	16	High	1.5	Precise	1	26	33	21	20.8	29.8	6.4	33	26	21	29.8	20.8	6.4	2	0.484	0.001	L	33	29.8	44.070	46.122	46.606	46.608	0
2	22102704	17	High	1.5	Precise	1	32	35	27	12.2	13.0	1.9	27	32	35	1.9	12.2	13.0	3	0.925	0.000	L	27	1.9	47.110	48.529	49.454	49.456	0
2	22102704	18	High	1.5	Vague	2	31	26	9	13.1	20.8	9.8	9	26	31	9.8	20.8	13.1	3	1.341	0.000	L	9	9.8	49.959	52.873	54.214	54.216	0
2	22102704	19	High	1.5	Precise	1	32	31	19	12.2	13.1	2.6	31	19	32	13.1	2.6	12.2	1	1.205	0.001	R	32	12.2	54.719	57.385	58.590	58.593	0
2	22102704	20	High	1.5	Precise	1	32	35	19	12.2	13.0	2.6	35	19	32	13.0	2.6	12.2	2	0.712	0.000	L	35	13.0	59.095	59.878	60.590	60.592	0
2	22102704	21	High	1.5	Vague	2	32	33	13	12.2	29.8	4.3	33	13	32	29.8	4.3	12.2	1	1.054	0.000	R	32	12.2	61.095	62.344	63.398	63.400	0
2	22102704	22	High	1.5	Precise	1	35	26	28	13.0	20.8	7.8	26	35	28	20.8	13.0	7.8	1	0.696	0.000	D	35	13.0	63.902	65.774	66.470	66.472	0
2	22102704	23	High	1.5	Vague	2	32	35	7	12.2	13.0	2.7	32	35	7	12.2	13.0	2.7	2	0.574	0.000	D	35	13.0	66.974	68.704	69.278	69.280	0
2	22102704	24	High	1.5	Vague	2	34	33	13	13.9	29.8	4.3	33	34	13	29.8	13.9	4.3	1	1.099	0.000	D	34	13.9	69.783	72.363	73.462	73.464	0
2	22102704	25	High	1.5	Precise	1	32	35	21	12.2	13.0	6.4	21	35	32	6.4	13.0	12.2	1	0.996	0.001	R	32	12.2	73.967	74.706	75.702	75.704	0
2	22102704	26	High	1.5	Vague	2	31	33	7	13.1	29.8	2.7	31	7	33	13.1	2.7	29.8	2	1.168	0.000	R	33	29.8	76.207	78.933	80.102	80.104	0
2	22102704	27	High	1.5	Precise	1	26	33	27	20.8	29.8	1.9	26	33	27	20.8	29.8	1.9	1	1.058	0.000	L	26	20.8	80.607	83.028	84.086	84.088	0
2	22102704	28	High	1.5	Precise	1	31	34	30	13.1	13.9	10.0	31	34	30	13.1	13.9	10.0	2	0.887	0.000	D	34	13.9	84.590	87.239	88.126	88.128	0
2	22102704	29	High	1.5	Precise	1	32	35	28	12.2	13.0	7.8	28	35	32	7.8	13.0	12.2	1	1.400	0.000	R	32	12.2	88.631	91.486	92.886	92.888	0
2	22102704	30	High	1.5	Precise	1	34	33	29	13.9	29.8	0.0	29	34	33	0.0	13.9	29.8	1	1.220	0.000	D	34	13.9	93.391	96.138	97.358	97.360	0
2	22102704	31	High	1.5	Vague	2	32	31	7	12.2	13.1	2.7	32	7	31	12.2	2.7	13.1	1	0.996	0.000	L	32	12.2	97.863	99.378	100.374	100.376	0
2	22102704	32	High	1.5	Precise	1	31	33	29	13.1	29.8	0.0	33	29	31	29.8	0.0	13.1	1	1.157	0.000	R	31	13.1	100.879	103.313	104.470	104.473	0
2	22102704	33	High	1.5	Vague	2	35	31	6	13.0	13.1	1.0	6	31	35	1.0	13.1	13.0	1	1.266	0.000	R	35	13.0	104.975	105.699	106.966	106.968	0
2	22102704	34	High	1.5	Precise	1	31	33	27	13.1	29.8	1.9	27	31	33	1.9	13.1	29.8	3	0.962	0.000	L	27	1.9	107.471	109.212	110.174	110.176	0
2	22102704	35	High	1.5	Vague	2	31	34	2	13.1	13.9	1.8	2	34	31	1.8	13.9	13.1	2	0.785	0.000	D	34	13.9	110.679	111.181	111.966	111.968	0
2	22102704	36	High	1.5	Vague	2	32	34	13	12.2	13.9	4.3	34	13	32	13.9	4.3	12.2	2	0.622	0.000	L	34	13.9	112.471	114.600	115.222	115.224	0
2	22102704	37	High	1.5	Vague	2	34	33	6	13.9	29.8	1.0	33	6	34	29.8	1.0	13.9	3	0.927	0.000	D	6	1.0	115.727	116.287	117.214	117.216	0
2	22102704	38	High	1.5	Vague	2	32	33	16	12.2	29.8	8.1	33	16	32	29.8	8.1	12.2	1	1.151	0.000	R	32	12.2	117.719	119.239	120.390	120.392	0
2	22102704	39	High	1.5	Vague	2	32	33	9	12.2	29.8	9.8	32	33	9	12.2	29.8	9.8	3	1.307	0.000	R	9	9.8	120.895	123.771	125.078	125.080	0
2	22102704	40	High	1.5	Precise	1	35	34	30	13.0	13.9	10.0	34	30	35	13.9	10.0	13.0	1	0.878	0.000	R	35	13.0	125.583	127.000	127.878	127.880	0
2	22102704	41	High	1.5	Vague	2	26	33	6	20.8	29.8	1.0	26	6	33	20.8	1.0	29.8	1	0.684	0.000	L	26	20.8	128.383	129.746	130.430	130.432	0
2	22102704	42	High	1.5	Precise	1	35	34	29	13.0	13.9	0.0	35	29	34	13.0	0.0	13.9	2	0.914	0.000	R	34	13.9	130.935	133.075	133.990	133.992	0
2	22102704	43	High	1.5	Precise	1	34	26	28	13.9	20.8	7.8	34	28	26	13.9	7.8	20.8	1	0.590	0.001	L	34	13.9	134.495	136.928	137.518	137.520	0
2	22102704	44	High	1.5	Precise	1	31	34	27	13.1	13.9	1.9	27	34	31	1.9	13.9	13.1	3	0.603	0.000	L	27	1.9	138.023	139.507	140.110	140.112	0
2	22102704	45	High	1.5	Vague	2	31	26	7	13.1	20.8	2.7	31	7	26	13.1	2.7	20.8	2	1.006	0.000	R	26	20.8	140.615	142.616	143.622	143.624	0
2	22102704	46	High	1.5	Vague	2	31	33	9	13.1	29.8	9.8	9	31	33	9.8	13.1	29.8	NaN	NaN	NaN	NaN	NaN	NaN	144.127	145.524	NaN	147.014	1
2	22102704	47	High	1.5	Precise	1	31	26	28	13.1	20.8	7.8	28	31	26	7.8	13.1	20.8	2	0.812	0.000	R	26	20.8	149.018	151.546	152.358	152.362	0
2	22102704	48	High	1.5	Vague	2	32	34	7	12.2	13.9	2.7	34	7	32	13.9	2.7	12.2	2	0.570	0.000	L	34	13.9	152.865	155.276	155.846	155.848	0
2	22102704	49	High	1.5	Vague	2	34	26	2	13.9	20.8	1.8	34	26	2	13.9	20.8	1.8	1	0.570	0.000	L	34	13.9	156.352	157.396	157.966	157.968	0
2	22102704	50	High	1.5	Precise	1	34	33	27	13.9	29.8	1.9	27	34	33	1.9	13.9	29.8	1	0.774	0.000	D	34	13.9	158.471	160.664	161.438	161.440	0
2	22102704	51	High	1.5	Precise	1	35	26	30	13.0	20.8	10.0	26	30	35	20.8	10.0	13.0	2	0.606	0.000	L	26	20.8	161.943	164.304	164.910	164.912	0
2	22102704	52	High	1.5	Precise	1	32	26	28	12.2	20.8	7.8	28	26	32	7.8	20.8	12.2	2	0.762	0.000	D	26	20.8	165.414	166.348	167.110	167.112	0
2	22102704	53	High	1.5	Vague	2	32	26	9	12.2	20.8	9.8	32	26	9	12.2	20.8	9.8	2	0.479	0.000	D	26	20.8	167.614	170.367	170.846	170.848	0
2	22102704	54	High	1.5	Vague	2	32	31	6	12.2	13.1	1.0	32	31	6	12.2	13.1	1.0	2	0.980	0.001	D	31	13.1	171.352	172.698	173.678	173.680	0
2	22102704	55	High	1.5	Vague	2	26	33	7	20.8	29.8	2.7	33	7	26	29.8	2.7	20.8	1	1.193	0.000	R	26	20.8	174.183	175.061	176.254	176.256	0
2	22102704	56	High	1.5	Vague	2	31	33	6	13.1	29.8	1.0	33	6	31	29.8	1.0	13.1	1	1.331	0.000	R	31	13.1	176.758	179.451	180.782	180.785	0
2	22102704	57	High	1.5	Precise	1	26	33	29	20.8	29.8	0.0	33	29	26	29.8	0.0	20.8	1	0.711	0.000	R	26	20.8	181.287	183.151	183.862	183.864	0
2	22102704	58	High	1.5	Precise	1	31	34	19	13.1	13.9	2.6	19	31	34	2.6	13.1	13.9	2	0.407	0.001	R	34	13.9	184.367	186.671	187.078	187.080	0
2	22102704	59	High	1.5	Vague	2	31	26	2	13.1	20.8	1.8	31	26	2	13.1	20.8	1.8	2	0.605	0.000	D	26	20.8	187.583	188.681	189.286	189.288	0
2	22102704	60	High	1.5	Precise	1	32	34	27	12.2	13.9	1.9	34	32	27	13.9	12.2	1.9	2	0.583	0.001	L	34	13.9	189.791	191.127	191.710	191.712	0
2	22102704	61	High	1.5	Vague	2	32	34	2	12.2	13.9	1.8	34	2	32	13.9	1.8	12.2	2	0.586	0.000	L	34	13.9	200.164	203.100	203.686	203.688	0
2	22102704	62	High	1.5	Precise	1	35	34	19	13.0	13.9	2.6	19	34	35	2.6	13.9	13.0	2	0.661	0.000	D	34	13.9	204.191	206.185	206.846	206.848	0
2	22102704	63	High	1.5	Precise	1	31	34	29	13.1	13.9	0.0	29	34	31	0.0	13.9	13.1	2	0.608	0.000	D	34	13.9	207.350	209.301	209.910	209.912	0
2	22102704	64	High	1.5	Precise	1	32	33	19	12.2	29.8	2.6	33	32	19	29.8	12.2	2.6	2	0.723	0.000	L	33	29.8	210.415	211.483	212.206	212.208	0
2	22102704	65	High	1.5	Vague	2	32	35	13	12.2	13.0	4.3	35	13	32	13.0	4.3	12.2	2	0.565	0.000	L	35	13.0	212.711	213.889	214.454	214.456	0
2	22102704	66	High	1.5	Precise	1	32	33	27	12.2	29.8	1.9	32	27	33	12.2	1.9	29.8	1	0.931	0.000	L	32	12.2	214.959	217.387	218.318	218.320	0
2	22102704	67	High	1.5	Vague	2	31	26	6	13.1	20.8	1.0	26	6	31	20.8	1.0	13.1	2	0.572	0.000	L	26	20.8	218.823	221.561	222.134	222.136	0
2	22102704	68	High	1.5	Precise	1	32	26	21	12.2	20.8	6.4	21	26	32	6.4	20.8	12.2	3	0.658	0.000	L	21	6.4	222.638	223.660	224.318	224.320	0
2	22102704	69	High	1.5	Vague	2	26	33	9	20.8	29.8	9.8	9	33	26	9.8	29.8	20.8	1	0.996	0.000	R	26	20.8	224.822	227.618	228.614	228.616	0
2	22102704	70	High	1.5	Precise	1	32	26	30	12.2	20.8	10.0	26	32	30	20.8	12.2	10.0	2	0.555	0.001	L	26	20.8	229.119	229.995	230.550	230.552	0
2	22102704	71	High	1.5	Vague	2	31	34	16	13.1	13.9	8.1	16	34	31	8.1	13.9	13.1	2	0.791	0.000	D	34	13.9	231.055	233.543	234.334	234.336	0
2	22102704	72	High	1.5	Precise	1	32	33	21	12.2	29.8	6.4	21	33	32	6.4	29.8	12.2	1	0.883	0.000	R	32	12.2	234.839	236.683	237.566	237.568	0
2	22102704	73	High	1.5	Precise	1	31	26	19	13.1	20.8	2.6	19	26	31	2.6	20.8	13.1	2	0.595	0.000	D	26	20.8	238.071	239.539	240.134	240.136	0
2	22102704	74	High	1.5	Vague	2	32	26	7	12.2	20.8	2.7	26	32	7	20.8	12.2	2.7	2	0.632	0.000	L	26	20.8	240.639	241.230	241.862	241.864	0
2	22102704	75	High	1.5	Vague	2	35	33	7	13.0	29.8	2.7	7	33	35	2.7	29.8	13.0	1	0.743	0.000	R	35	13.0	242.366	243.383	244.126	244.128	0
2	22102704	76	High	1.5	Precise	1	34	33	30	13.9	29.8	10.0	30	33	34	10.0	29.8	13.9	1	0.743	0.000	R	34	13.9	244.631	245.399	246.142	246.144	0
2	22102704	77	High	1.5	Precise	1	32	34	28	12.2	13.9	7.8	32	34	28	12.2	13.9	7.8	2	1.031	0.000	D	34	13.9	246.646	247.864	248.894	248.897	0
2	22102704	78	High	1.5	Vague	2	26	33	16	20.8	29.8	8.1	33	26	16	29.8	20.8	8.1	1	0.954	0.000	D	26	20.8	249.399	251.773	252.726	252.729	0
2	22102704	79	High	1.5	Vague	2	35	34	7	13.0	13.9	2.7	35	34	7	13.0	13.9	2.7	2	0.673	0.000	D	34	13.9	253.232	255.621	256.294	256.296	0
2	22102704	80	High	1.5	Precise	1	35	26	19	13.0	20.8	2.6	35	19	26	13.0	2.6	20.8	1	0.759	0.000	L	35	13.0	256.799	259.238	259.998	260.000	0
2	22102704	81	High	1.5	Precise	1	34	26	19	13.9	20.8	2.6	19	26	34	2.6	20.8	13.9	2	0.784	0.000	D	26	20.8	260.503	262.014	262.798	262.800	0
2	22102704	82	High	1.5	Precise	1	31	33	28	13.1	29.8	7.8	28	31	33	7.8	13.1	29.8	3	1.426	0.000	L	28	7.8	263.303	266.099	267.526	267.528	0
2	22102704	83	High	1.5	Precise	1	35	33	29	13.0	29.8	0.0	33	29	35	29.8	0.0	13.0	1	0.882	0.000	R	35	13.0	268.031	268.940	269.822	269.824	0
2	22102704	84	High	1.5	Precise	1	35	26	21	13.0	20.8	6.4	21	26	35	6.4	20.8	13.0	2	0.775	0.001	D	26	20.8	270.326	271.759	272.534	272.536	0
2	22102704	85	High	1.5	Precise	1	34	26	21	13.9	20.8	6.4	21	26	34	6.4	20.8	13.9	2	0.761	0.000	D	26	20.8	273.039	274.525	275.286	275.288	0
2	22102704	86	High	1.5	Precise	1	32	35	30	12.2	13.0	10.0	32	30	35	12.2	10.0	13.0	2	0.792	0.001	R	35	13.0	275.790	278.398	279.190	279.192	0
2	22102704	87	High	1.5	Vague	2	34	26	16	13.9	20.8	8.1	26	34	16	20.8	13.9	8.1	2	0.936	0.000	L	26	20.8	279.695	281.558	282.494	282.496	0
2	22102704	88	High	1.5	Vague	2	32	35	6	12.2	13.0	1.0	32	35	6	12.2	13.0	1.0	1	0.887	0.001	L	32	12.2	282.998	283.895	284.782	284.785	0
2	22102704	89	High	1.5	Precise	1	32	35	29	12.2	13.0	0.0	29	32	35	0.0	12.2	13.0	2	1.043	0.000	R	35	13.0	285.287	286.699	287.742	287.744	0
2	22102704	90	High	1.5	Precise	1	32	31	21	12.2	13.1	6.4	32	31	21	12.2	13.1	6.4	1	0.671	0.000	L	32	12.2	288.247	289.071	289.742	289.744	0
2	22102704	91	High	1.5	Precise	1	35	33	19	13.0	29.8	2.6	19	33	35	2.6	29.8	13.0	1	0.651	0.001	R	35	13.0	290.247	291.539	292.190	292.193	0
2	22102704	92	High	1.5	Vague	2	32	35	2	12.2	13.0	1.8	32	2	35	12.2	1.8	13.0	2	0.763	0.000	R	35	13.0	292.695	293.563	294.326	294.328	0
2	22102704	93	High	1.5	Precise	1	32	34	30	12.2	13.9	10.0	34	32	30	13.9	12.2	10.0	2	0.981	0.000	L	34	13.9	294.831	297.561	298.542	298.544	0
2	22102704	94	High	1.5	Precise	1	35	34	21	13.0	13.9	6.4	21	35	34	6.4	13.0	13.9	2	0.963	0.001	R	34	13.9	299.047	299.964	300.926	300.928	0
2	22102704	95	High	1.5	Precise	1	34	26	29	13.9	20.8	0.0	34	26	29	13.9	20.8	0.0	2	1.092	0.000	D	26	20.8	301.431	301.946	303.038	303.040	0
2	22102704	96	High	1.5	Vague	2	35	33	6	13.0	29.8	1.0	35	6	33	13.0	1.0	29.8	1	1.092	0.000	L	35	13.0	303.543	306.457	307.550	307.552	0
2	22102704	97	High	1.5	Precise	1	32	31	29	12.2	13.1	0.0	32	29	31	12.2	0.0	13.1	1	0.913	0.000	L	32	12.2	308.055	309.557	310.470	310.472	0
2	22102704	98	High	1.5	Vague	2	34	33	9	13.9	29.8	9.8	9	34	33	9.8	13.9	29.8	1	0.841	0.000	D	34	13.9	310.974	311.796	312.638	312.640	0
2	22102704	99	High	1.5	Precise	1	32	33	30	12.2	29.8	10.0	30	33	32	10.0	29.8	12.2	1	1.003	0.000	R	32	12.2	313.142	314.899	315.902	315.904	0
2	22102704	100	High	1.5	Precise	1	31	33	21	13.1	29.8	6.4	31	33	21	13.1	29.8	6.4	1	1.261	0.000	L	31	13.1	316.407	318.881	320.142	320.144	0
2	22102704	101	High	1.5	Vague	2	31	33	13	13.1	29.8	4.3	13	31	33	4.3	13.1	29.8	NaN	NaN	NaN	NaN	NaN	NaN	320.647	322.345	NaN	323.834	1
2	22102704	102	High	1.5	Precise	1	32	34	21	12.2	13.9	6.4	34	21	32	13.9	6.4	12.2	2	0.797	0.000	L	34	13.9	325.837	326.377	327.174	327.177	0
2	22102704	103	High	1.5	Precise	1	31	34	21	13.1	13.9	6.4	21	31	34	6.4	13.1	13.9	2	0.675	0.000	R	34	13.9	327.679	329.155	329.830	329.832	0
2	22102704	104	High	1.5	Vague	2	35	31	9	13.0	13.1	9.8	31	9	35	13.1	9.8	13.0	1	0.696	0.000	R	35	13.0	330.335	332.438	333.134	333.136	0
2	22102704	105	High	1.5	Vague	2	31	33	2	13.1	29.8	1.8	33	2	31	29.8	1.8	13.1	2	1.430	0.000	L	33	29.8	333.639	335.816	337.246	337.248	0
2	22102704	106	High	1.5	Vague	2	35	26	13	13.0	20.8	4.3	35	26	13	13.0	20.8	4.3	1	0.628	0.001	L	35	13.0	337.752	340.146	340.774	340.777	0
2	22102704	107	High	1.5	Precise	1	31	33	30	13.1	29.8	10.0	33	30	31	29.8	10.0	13.1	NaN	NaN	NaN	NaN	NaN	NaN	341.279	342.579	NaN	344.065	1
2	22102704	108	High	1.5	Precise	1	31	26	30	13.1	20.8	10.0	31	30	26	13.1	10.0	20.8	2	0.786	0.001	R	26	20.8	346.068	347.709	348.494	348.497	0
2	22102704	109	High	1.5	Precise	1	32	26	29	12.2	20.8	0.0	26	29	32	20.8	0.0	12.2	2	0.580	0.001	L	26	20.8	348.999	350.674	351.254	351.257	0
2	22102704	110	High	1.5	Vague	2	32	31	2	12.2	13.1	1.8	31	32	2	13.1	12.2	1.8	1	1.143	0.000	D	32	12.2	351.759	352.512	353.654	353.657	0
2	22102704	111	High	1.5	Vague	2	32	31	9	12.2	13.1	9.8	31	9	32	13.1	9.8	12.2	1	1.094	0.001	R	32	12.2	354.159	355.312	356.406	356.408	0
2	22102704	112	High	1.5	Precise	1	31	34	28	13.1	13.9	7.8	34	31	28	13.9	13.1	7.8	2	0.797	0.000	L	34	13.9	356.911	357.881	358.678	358.680	0
2	22102704	113	High	1.5	Precise	1	35	26	27	13.0	20.8	1.9	26	35	27	20.8	13.0	1.9	2	0.586	0.000	L	26	20.8	359.182	360.740	361.326	361.328	0
2	22102704	114	High	1.5	Vague	2	31	34	9	13.1	13.9	9.8	9	31	34	9.8	13.1	13.9	2	0.729	0.001	R	34	13.9	361.831	363.269	363.998	364.001	0
2	22102704	115	High	1.5	Precise	1	35	34	28	13.0	13.9	7.8	34	35	28	13.9	13.0	7.8	2	0.599	0.000	L	34	13.9	364.503	365.231	365.830	365.832	0
2	22102704	116	High	1.5	Vague	2	31	26	13	13.1	20.8	4.3	26	31	13	20.8	13.1	4.3	2	0.644	0.000	L	26	20.8	366.335	368.002	368.646	368.648	0
2	22102704	117	High	1.5	Precise	1	34	33	28	13.9	29.8	7.8	33	34	28	29.8	13.9	7.8	NaN	NaN	NaN	NaN	NaN	NaN	369.152	371.245	NaN	372.732	1
2	22102704	118	High	1.5	Precise	1	32	26	19	12.2	20.8	2.6	32	26	19	12.2	20.8	2.6	2	0.818	0.000	D	26	20.8	374.735	375.780	376.598	376.601	0
2	22102704	119	High	1.5	Precise	1	34	26	27	13.9	20.8	1.9	26	34	27	20.8	13.9	1.9	2	0.710	0.001	L	26	20.8	377.103	378.497	379.206	379.209	0
2	22102704	120	High	1.5	Precise	1	34	33	19	13.9	29.8	2.6	19	34	33	2.6	13.9	29.8	1	0.760	0.001	D	34	13.9	379.711	381.918	382.678	382.680	0
2	22102704	121	High	1.5	Vague	2	32	35	16	12.2	13.0	8.1	16	35	32	8.1	13.0	12.2	1	0.791	0.000	R	32	12.2	389.538	390.487	391.278	391.281	0
2	22102704	122	High	1.5	Precise	1	35	31	19	13.0	13.1	2.6	31	35	19	13.1	13.0	2.6	1	0.840	0.000	D	35	13.0	391.783	392.358	393.198	393.201	0
2	22102704	123	High	1.5	Vague	2	35	26	2	13.0	20.8	1.8	2	35	26	1.8	13.0	20.8	3	1.158	0.000	L	2	1.8	393.704	396.689	397.846	397.849	0
2	22102704	124	High	1.5	Precise	1	35	33	30	13.0	29.8	10.0	33	30	35	29.8	10.0	13.0	1	1.138	0.001	R	35	13.0	398.352	400.349	401.486	401.488	0
2	22102704	125	High	1.5	Vague	2	35	31	13	13.0	13.1	4.3	13	35	31	4.3	13.0	13.1	2	0.935	0.000	R	31	13.1	401.991	402.919	403.854	403.856	0
2	22102704	126	High	1.5	Vague	2	34	26	6	13.9	20.8	1.0	34	6	26	13.9	1.0	20.8	2	0.822	0.000	R	26	20.8	404.358	406.976	407.798	407.800	0
2	22102704	127	High	1.5	Vague	2	32	33	7	12.2	29.8	2.7	33	7	32	29.8	2.7	12.2	1	0.835	0.000	R	32	12.2	408.303	409.771	410.606	410.608	0
2	22102704	128	High	1.5	Precise	1	35	33	21	13.0	29.8	6.4	35	21	33	13.0	6.4	29.8	1	0.743	0.000	L	35	13.0	411.111	411.823	412.566	412.569	0
2	22102704	129	High	1.5	Vague	2	35	34	6	13.0	13.9	1.0	35	34	6	13.0	13.9	1.0	1	0.643	0.000	L	35	13.0	413.071	415.324	415.966	415.969	0
2	22102704	130	High	1.5	Vague	2	35	34	13	13.0	13.9	4.3	13	34	35	4.3	13.9	13.0	2	0.467	0.001	D	34	13.9	416.471	418.412	418.878	418.880	0
2	22102704	131	High	1.5	Precise	1	32	34	29	12.2	13.9	0.0	32	34	29	12.2	13.9	0.0	2	0.619	0.000	D	34	13.9	419.383	420.779	421.398	421.401	0
2	22102704	132	High	1.5	Precise	1	35	33	27	13.0	29.8	1.9	33	35	27	29.8	13.0	1.9	1	0.821	0.000	D	35	13.0	421.903	424.409	425.230	425.233	0
2	22102704	133	High	1.5	Vague	2	35	31	7	13.0	13.1	2.7	31	7	35	13.1	2.7	13.0	1	0.678	0.000	R	35	13.0	425.735	427.560	428.238	428.240	0
2	22102704	134	High	1.5	Vague	2	34	33	16	13.9	29.8	8.1	34	33	16	13.9	29.8	8.1	1	0.544	0.001	L	34	13.9	428.743	430.766	431.310	431.313	0
2	22102704	135	High	1.5	Precise	1	32	31	28	12.2	13.1	7.8	31	28	32	13.1	7.8	12.2	1	0.896	0.000	R	32	12.2	431.815	432.678	433.574	433.577	0
2	22102704	136	High	1.5	Precise	1	31	33	19	13.1	29.8	2.6	33	31	19	29.8	13.1	2.6	1	1.042	0.000	D	31	13.1	434.079	435.876	436.918	436.920	0
2	22102704	137	High	1.5	Vague	2	31	34	13	13.1	13.9	4.3	34	31	13	13.9	13.1	4.3	2	0.666	0.001	L	34	13.9	437.423	438.501	439.166	439.169	0
2	22102704	138	High	1.5	Precise	1	35	31	21	13.0	13.1	6.4	21	31	35	6.4	13.1	13.0	1	0.780	0.000	R	35	13.0	439.671	440.514	441.294	441.296	0
2	22102704	139	High	1.5	Vague	2	35	34	9	13.0	13.9	9.8	34	35	9	13.9	13.0	9.8	2	0.669	0.000	L	34	13.9	441.798	442.497	443.166	443.169	0
2	22102704	140	High	1.5	Vague	2	34	26	13	13.9	20.8	4.3	26	13	34	20.8	4.3	13.9	2	0.649	0.000	L	26	20.8	443.671	446.309	446.958	446.960	0
2	22102704	141	High	1.5	Precise	1	35	31	27	13.0	13.1	1.9	31	27	35	13.1	1.9	13.0	1	0.879	0.001	R	35	13.0	447.463	448.287	449.166	449.169	0
2	22102704	142	High	1.5	Vague	2	35	34	16	13.0	13.9	8.1	35	34	16	13.0	13.9	8.1	1	0.849	0.000	L	35	13.0	449.671	451.588	452.438	452.440	0
2	22102704	143	High	1.5	Vague	2	32	26	2	12.2	20.8	1.8	26	32	2	20.8	12.2	1.8	2	0.659	0.000	L	26	20.8	452.942	455.212	455.870	455.872	0
2	22102704	144	High	1.5	Vague	2	32	31	16	12.2	13.1	8.1	16	32	31	8.1	12.2	13.1	1	1.037	0.000	D	32	12.2	456.375	457.585	458.622	458.624	0
2	22102704	145	High	1.5	Vague	2	34	33	7	13.9	29.8	2.7	7	34	33	2.7	13.9	29.8	1	1.216	0.000	D	34	13.9	459.127	460.758	461.974	461.976	0
2	22102704	146	High	1.5	Vague	2	35	33	16	13.0	29.8	8.1	35	16	33	13.0	8.1	29.8	1	0.642	0.000	L	35	13.0	462.479	464.188	464.830	464.832	0
2	22102704	147	High	1.5	Vague	2	35	33	2	13.0	29.8	1.8	2	35	33	1.8	13.0	29.8	1	1.020	0.000	D	35	13.0	465.335	467.898	468.918	468.920	0
2	22102704	148	High	1.5	Precise	1	32	31	27	12.2	13.1	1.9	31	32	27	13.1	12.2	1.9	3	0.926	0.000	R	27	1.9	469.423	470.816	471.742	471.744	0
2	22102704	149	High	1.5	Vague	2	31	34	6	13.1	13.9	1.0	6	31	34	1.0	13.1	13.9	2	1.396	0.000	R	34	13.9	472.247	473.042	474.438	474.440	0
2	22102704	150	High	1.5	Precise	1	34	26	30	13.9	20.8	10.0	30	26	34	10.0	20.8	13.9	1	0.909	0.001	R	34	13.9	474.943	477.889	478.798	478.801	0
2	22102704	151	High	1.5	Vague	2	31	33	16	13.1	29.8	8.1	33	16	31	29.8	8.1	13.1	1	1.240	0.000	R	31	13.1	479.303	480.174	481.414	481.416	0
2	22102704	152	High	1.5	Precise	1	26	33	19	20.8	29.8	2.6	19	33	26	2.6	29.8	20.8	1	0.782	0.001	R	26	20.8	481.919	483.456	484.238	484.241	0
2	22102704	153	High	1.5	Vague	2	34	26	9	13.9	20.8	9.8	26	9	34	20.8	9.8	13.9	2	0.627	0.001	L	26	20.8	484.743	487.395	488.022	488.024	0
2	22102704	154	High	1.5	Vague	2	32	31	13	12.2	13.1	4.3	31	13	32	13.1	4.3	12.2	1	0.937	0.001	R	32	12.2	488.527	489.926	490.862	490.865	0
2	22102704	155	High	1.5	Precise	1	26	33	30	20.8	29.8	10.0	33	30	26	29.8	10.0	20.8	1	0.496	0.000	R	26	20.8	491.367	493.782	494.278	494.280	0
2	22102704	156	High	1.5	Vague	2	32	33	6	12.2	29.8	1.0	32	33	6	12.2	29.8	1.0	1	1.049	0.000	L	32	12.2	494.783	496.549	497.598	497.600	0
2	22102704	157	High	1.5	Vague	2	32	35	9	12.2	13.0	9.8	35	9	32	13.0	9.8	12.2	2	0.620	0.001	L	35	13.0	498.103	499.715	500.334	500.337	0
2	22102704	158	High	1.5	Vague	2	35	26	7	13.0	20.8	2.7	7	26	35	2.7	20.8	13.0	1	0.668	0.000	R	35	13.0	500.839	503.426	504.094	504.096	0
2	22102704	159	High	1.5	Precise	1	31	26	27	13.1	20.8	1.9	26	27	31	20.8	1.9	13.1	2	0.750	0.000	L	26	20.8	504.599	506.896	507.646	507.648	0
2	22102704	160	High	1.5	Vague	2	35	31	16	13.0	13.1	8.1	16	31	35	8.1	13.1	13.0	1	0.884	0.001	R	35	13.0	508.151	510.562	511.446	511.449	0
2	22102704	161	High	1.5	Precise	1	35	26	29	13.0	20.8	0.0	26	35	29	20.8	13.0	0.0	2	0.571	0.001	L	26	20.8	511.952	513.739	514.310	514.312	0
2	22102704	162	High	1.5	Vague	2	31	34	7	13.1	13.9	2.7	31	7	34	13.1	2.7	13.9	2	0.709	0.000	R	34	13.9	514.815	516.417	517.126	517.128	0
2	22102704	163	High	1.5	Precise	1	35	31	30	13.0	13.1	10.0	35	31	30	13.0	13.1	10.0	1	0.545	0.000	L	35	13.0	517.631	519.949	520.494	520.497	0
2	22102704	164	High	1.5	Vague	2	32	34	16	12.2	13.9	8.1	34	16	32	13.9	8.1	12.2	2	0.879	0.000	L	34	13.9	520.999	522.479	523.358	523.360	0
2	22102704	165	High	1.5	Vague	2	35	33	9	13.0	29.8	9.8	33	9	35	29.8	9.8	13.0	1	0.609	0.000	R	35	13.0	523.863	526.533	527.142	527.144	0
2	22102704	166	High	1.5	Vague	2	32	34	9	12.2	13.9	9.8	9	34	32	9.8	13.9	12.2	2	1.354	0.001	D	34	13.9	527.647	528.892	530.246	530.248	0
2	22102704	167	High	1.5	Precise	1	35	31	29	13.0	13.1	0.0	29	31	35	0.0	13.1	13.0	1	0.685	0.000	R	35	13.0	530.752	531.809	532.494	532.496	0
2	22102704	168	High	1.5	Precise	1	32	33	28	12.2	29.8	7.8	32	28	33	12.2	7.8	29.8	2	1.123	0.000	R	33	29.8	532.998	535.691	536.814	536.816	0
2	22102704	169	High	1.5	Vague	2	34	33	2	13.9	29.8	1.8	2	34	33	1.8	13.9	29.8	2	0.677	0.000	R	33	29.8	537.319	539.481	540.158	540.160	0
2	22102704	170	High	1.5	Vague	2	35	31	2	13.0	13.1	1.8	35	2	31	13.0	1.8	13.1	1	1.149	0.000	L	35	13.0	540.662	542.465	543.614	543.616	0
2	22102704	171	High	1.5	Vague	2	35	26	9	13.0	20.8	9.8	26	9	35	20.8	9.8	13.0	2	0.942	0.000	L	26	20.8	544.119	545.056	545.998	546.000	0
2	22102704	172	High	1.5	Vague	2	34	26	7	13.9	20.8	2.7	7	34	26	2.7	13.9	20.8	2	0.658	0.001	R	26	20.8	546.503	548.044	548.702	548.704	0
2	22102704	173	High	1.5	Precise	1	26	33	28	20.8	29.8	7.8	33	26	28	29.8	20.8	7.8	1	1.017	0.000	D	26	20.8	549.207	550.157	551.174	551.177	0
2	22102704	174	High	1.5	Precise	1	32	34	19	12.2	13.9	2.6	19	34	32	2.6	13.9	12.2	2	0.835	0.001	D	34	13.9	551.679	554.427	555.262	555.264	0
2	22102704	175	High	1.5	Vague	2	32	26	16	12.2	20.8	8.1	32	26	16	12.2	20.8	8.1	2	0.789	0.000	D	26	20.8	555.767	557.057	557.846	557.848	0
2	22102704	176	High	1.5	Precise	1	34	33	21	13.9	29.8	6.4	33	21	34	29.8	6.4	13.9	1	1.028	0.000	R	34	13.9	558.351	559.946	560.974	560.976	0
2	22102704	177	High	1.5	Vague	2	32	33	2	12.2	29.8	1.8	2	33	32	1.8	29.8	12.2	1	0.956	0.001	R	32	12.2	561.479	564.114	565.070	565.073	0
2	22102704	178	High	1.5	Precise	1	32	31	30	12.2	13.1	10.0	31	32	30	13.1	12.2	10.0	1	0.756	0.001	D	32	12.2	565.575	566.298	567.054	567.057	0
2	22102704	179	High	1.5	Precise	1	32	26	27	12.2	20.8	1.9	27	32	26	1.9	12.2	20.8	2	0.816	0.000	R	26	20.8	567.559	569.894	570.710	570.712	0
2	22102704	180	High	1.5	Precise	1	31	26	29	13.1	20.8	0.0	29	26	31	0.0	20.8	13.1	2	0.825	0.000	D	26	20.8	571.215	573.053	573.878	573.880	0
2	22102704	181	Low	10.0	Precise	1	32	26	22	12.2	20.8	7.7	26	32	22	20.8	12.2	7.7	2	0.802	0.000	L	26	20.8	584.520	585.173	585.974	585.977	0
2	22102704	182	Low	10.0	Vague	2	34	33	5	13.9	29.8	1.7	33	34	5	29.8	13.9	1.7	1	0.706	0.000	D	34	13.9	586.479	588.925	589.630	589.633	0
2	22102704	183	Low	10.0	Precise	1	35	33	23	13.0	29.8	0.4	23	33	35	0.4	29.8	13.0	1	1.554	0.001	R	35	13.0	590.136	591.308	592.862	592.864	0
2	22102704	184	Low	10.0	Precise	1	34	33	23	13.9	29.8	0.4	33	34	23	29.8	13.9	0.4	1	0.790	0.000	D	34	13.9	593.367	594.112	594.902	594.905	0
2	22102704	185	Low	10.0	Precise	1	32	34	24	12.2	13.9	0.0	24	32	34	0.0	12.2	13.9	2	0.697	0.000	R	34	13.9	595.407	596.573	597.270	597.272	0
2	22102704	186	Low	10.0	Precise	1	31	26	23	13.1	20.8	0.4	26	23	31	20.8	0.4	13.1	2	0.739	0.000	L	26	20.8	597.775	598.763	599.502	599.505	0
2	22102704	187	Low	10.0	Vague	2	34	26	4	13.9	20.8	9.8	26	4	34	20.8	9.8	13.9	2	0.608	0.000	L	26	20.8	600.007	602.062	602.670	602.673	0
2	22102704	188	Low	10.0	Precise	1	31	33	22	13.1	29.8	7.7	22	33	31	7.7	29.8	13.1	2	1.729	0.000	D	33	29.8	603.175	605.053	606.782	606.785	0
2	22102704	189	Low	10.0	Vague	2	32	33	11	12.2	29.8	0.0	11	33	32	0.0	29.8	12.2	3	0.731	0.001	L	11	0.0	607.287	609.620	610.350	610.353	0
2	22102704	190	Low	10.0	Precise	1	32	26	24	12.2	20.8	0.0	24	26	32	0.0	20.8	12.2	2	0.997	0.000	D	26	20.8	610.855	612.497	613.494	613.497	0
2	22102704	191	Low	10.0	Vague	2	35	33	5	13.0	29.8	1.7	5	35	33	1.7	13.0	29.8	2	0.788	0.000	R	33	29.8	613.999	615.627	616.414	616.417	0
2	22102704	192	Low	10.0	Vague	2	32	35	4	12.2	13.0	9.8	4	32	35	9.8	12.2	13.0	2	0.766	0.000	R	35	13.0	616.919	618.176	618.942	618.945	0
2	22102704	193	Low	10.0	Vague	2	31	26	3	13.1	20.8	2.3	26	31	3	20.8	13.1	2.3	2	0.640	0.000	L	26	20.8	619.447	621.646	622.286	622.288	0
2	22102704	194	Low	10.0	Vague	2	32	26	10	12.2	20.8	6.4	26	32	10	20.8	12.2	6.4	2	1.464	0.000	L	26	20.8	622.791	624.902	626.366	626.369	0
2	22102704	195	Low	10.0	Vague	2	32	26	11	12.2	20.8	0.0	32	26	11	12.2	20.8	0.0	2	0.876	0.001	D	26	20.8	626.872	628.866	629.742	629.745	0
2	22102704	196	Low	10.0	Precise	1	31	33	24	13.1	29.8	0.0	33	31	24	29.8	13.1	0.0	1	1.478	0.000	D	31	13.1	630.247	632.584	634.062	634.064	0
2	22102704	197	Low	10.0	Precise	1	31	26	36	13.1	20.8	8.4	26	31	36	20.8	13.1	8.4	2	0.726	0.000	L	26	20.8	634.567	637.136	637.862	637.864	0
2	22102704	198	Low	10.0	Vague	2	35	26	10	13.0	20.8	6.4	26	35	10	20.8	13.0	6.4	2	0.637	0.000	L	26	20.8	638.367	640.825	641.462	641.464	0
2	22102704	199	Low	10.0	Vague	2	34	26	5	13.9	20.8	1.7	34	26	5	13.9	20.8	1.7	2	0.777	0.000	D	26	20.8	641.967	642.613	643.390	643.392	0
2	22102704	200	Low	10.0	Vague	2	31	33	4	13.1	29.8	9.8	33	4	31	29.8	9.8	13.1	3	1.625	0.000	D	4	9.8	643.895	646.229	647.854	647.857	0
2	22102704	201	Low	10.0	Precise	1	31	33	20	13.1	29.8	4.1	33	20	31	29.8	4.1	13.1	2	1.306	0.001	L	33	29.8	648.359	650.900	652.206	652.208	0
2	22102704	202	Low	10.0	Vague	2	32	33	4	12.2	29.8	9.8	32	33	4	12.2	29.8	9.8	1	1.468	0.000	L	32	12.2	652.711	653.258	654.726	654.728	0
2	22102704	203	Low	10.0	Precise	1	32	26	20	12.2	20.8	4.1	20	26	32	4.1	20.8	12.2	1	0.754	0.000	R	32	12.2	655.231	655.764	656.518	656.520	0
2	22102704	204	Low	10.0	Precise	1	26	33	22	20.8	29.8	7.7	22	26	33	7.7	20.8	29.8	1	0.549	0.001	D	26	20.8	657.023	658.145	658.694	658.697	0
2	22102704	205	Low	10.0	Vague	2	32	31	1	12.2	13.1	3.7	31	1	32	13.1	3.7	12.2	1	0.978	0.001	R	32	12.2	659.199	662.061	663.038	663.040	0
2	22102704	206	Low	10.0	Precise	1	32	34	23	12.2	13.9	0.4	23	34	32	0.4	13.9	12.2	3	0.069	0.000	L	23	0.4	663.543	664.529	664.598	664.600	0
2	22102704	207	Low	10.0	Vague	2	35	33	3	13.0	29.8	2.3	35	33	3	13.0	29.8	2.3	1	0.700	0.000	L	35	13.0	665.103	667.690	668.390	668.392	0
2	22102704	208	Low	10.0	Precise	1	35	31	24	13.0	13.1	0.0	35	31	24	13.0	13.1	0.0	1	0.721	0.001	L	35	13.0	668.894	670.069	670.790	670.793	0
2	22102704	209	Low	10.0	Vague	2	35	33	10	13.0	29.8	6.4	33	35	10	29.8	13.0	6.4	3	1.262	0.000	R	10	6.4	671.295	673.872	675.134	675.136	0
2	22102704	210	Low	10.0	Vague	2	35	34	10	13.0	13.9	6.4	10	35	34	6.4	13.0	13.9	3	0.927	0.000	L	10	6.4	675.639	678.431	679.358	679.360	0
2	22102704	211	Low	10.0	Precise	1	35	31	36	13.0	13.1	8.4	35	36	31	13.0	8.4	13.1	1	0.595	0.000	L	35	13.0	679.863	681.891	682.486	682.488	0
2	22102704	212	Low	10.0	Precise	1	31	34	36	13.1	13.9	8.4	34	36	31	13.9	8.4	13.1	2	0.781	0.000	L	34	13.9	682.991	684.009	684.790	684.793	0
2	22102704	213	Low	10.0	Precise	1	31	26	25	13.1	20.8	2.6	31	25	26	13.1	2.6	20.8	2	0.815	0.000	R	26	20.8	685.295	687.968	688.782	688.784	0
2	22102704	214	Low	10.0	Vague	2	31	26	5	13.1	20.8	1.7	31	26	5	13.1	20.8	1.7	2	1.207	0.001	D	26	20.8	689.286	690.576	691.782	691.785	0
2	22102704	215	Low	10.0	Precise	1	26	33	24	20.8	29.8	0.0	33	24	26	29.8	0.0	20.8	1	0.839	0.001	R	26	20.8	692.287	693.175	694.014	694.017	0
2	22102704	216	Low	10.0	Precise	1	32	35	22	12.2	13.0	7.7	22	32	35	7.7	12.2	13.0	2	0.837	0.000	R	35	13.0	694.519	696.881	697.718	697.720	0
2	22102704	217	Low	10.0	Precise	1	35	34	36	13.0	13.9	8.4	35	36	34	13.0	8.4	13.9	2	0.967	0.000	R	34	13.9	698.223	699.471	700.438	700.441	0
2	22102704	218	Low	10.0	Vague	2	26	33	11	20.8	29.8	0.0	26	11	33	20.8	0.0	29.8	1	0.627	0.000	L	26	20.8	700.943	702.819	703.446	703.448	0
2	22102704	219	Low	10.0	Vague	2	32	35	1	12.2	13.0	3.7	35	32	1	13.0	12.2	3.7	2	0.621	0.001	L	35	13.0	703.951	706.010	706.630	706.633	0
2	22102704	220	Low	10.0	Precise	1	35	31	22	13.0	13.1	7.7	22	31	35	7.7	13.1	13.0	1	0.723	0.000	R	35	13.0	707.136	709.715	710.438	710.441	0
2	22102704	221	Low	10.0	Precise	1	35	34	23	13.0	13.9	0.4	35	23	34	13.0	0.4	13.9	1	0.676	0.000	L	35	13.0	710.944	713.562	714.238	714.240	0
2	22102704	222	Low	10.0	Precise	1	32	33	24	12.2	29.8	0.0	33	32	24	29.8	12.2	0.0	1	0.782	0.001	D	32	12.2	714.743	716.496	717.278	717.281	0
2	22102704	223	Low	10.0	Precise	1	32	33	20	12.2	29.8	4.1	20	33	32	4.1	29.8	12.2	1	0.973	0.001	R	32	12.2	717.784	719.441	720.414	720.417	0
2	22102704	224	Low	10.0	Vague	2	34	33	4	13.9	29.8	9.8	4	33	34	9.8	29.8	13.9	1	0.705	0.000	R	34	13.9	720.919	723.429	724.134	724.136	0
2	22102704	225	Low	10.0	Vague	2	32	35	3	12.2	13.0	2.3	32	3	35	12.2	2.3	13.0	2	0.634	0.000	R	35	13.0	724.639	727.557	728.190	728.193	0
2	22102704	226	Low	10.0	Precise	1	35	31	23	13.0	13.1	0.4	35	31	23	13.0	13.1	0.4	1	0.630	0.000	L	35	13.0	728.695	730.288	730.918	730.920	0
2	22102704	227	Low	10.0	Precise	1	35	26	20	13.0	20.8	4.1	20	35	26	4.1	13.0	20.8	2	0.917	0.000	R	26	20.8	731.423	733.778	734.694	734.697	0
2	22102704	228	Low	10.0	Precise	1	35	26	25	13.0	20.8	2.6	25	35	26	2.6	13.0	20.8	2	0.612	0.000	R	26	20.8	735.199	738.027	738.638	738.641	0
2	22102704	229	Low	10.0	Vague	2	34	26	3	13.9	20.8	2.3	26	34	3	20.8	13.9	2.3	2	0.985	0.001	L	26	20.8	739.143	740.486	741.471	741.473	0
2	22102704	230	Low	10.0	Vague	2	35	31	4	13.0	13.1	9.8	35	31	4	13.0	13.1	9.8	1	2.215	0.001	L	35	13.0	741.975	743.968	746.182	746.185	0
2	22102704	231	Low	10.0	Vague	2	35	34	1	13.0	13.9	3.7	1	34	35	3.7	13.9	13.0	1	0.919	0.000	R	35	13.0	746.687	747.504	748.422	748.425	0
2	22102704	232	Low	10.0	Vague	2	35	26	4	13.0	20.8	9.8	4	35	26	9.8	13.0	20.8	2	0.805	0.000	R	26	20.8	748.927	751.249	752.054	752.056	0
2	22102704	233	Low	10.0	Vague	2	32	33	3	12.2	29.8	2.3	33	3	32	29.8	2.3	12.2	1	0.815	0.000	R	32	12.2	752.559	754.391	755.206	755.209	0
2	22102704	234	Low	10.0	Vague	2	35	33	11	13.0	29.8	0.0	11	33	35	0.0	29.8	13.0	1	0.765	0.000	R	35	13.0	755.711	758.306	759.070	759.073	0
2	22102704	235	Low	10.0	Precise	1	31	33	36	13.1	29.8	8.4	31	36	33	13.1	8.4	29.8	3	1.160	0.000	D	36	8.4	759.575	762.462	763.622	763.625	0
2	22102704	236	Low	10.0	Precise	1	35	34	22	13.0	13.9	7.7	35	22	34	13.0	7.7	13.9	2	1.163	0.000	R	34	13.9	764.127	765.196	766.358	766.361	0
2	22102704	237	Low	10.0	Vague	2	35	31	5	13.0	13.1	1.7	5	31	35	1.7	13.1	13.0	1	0.878	0.000	R	35	13.0	766.863	769.464	770.342	770.345	0
2	22102704	238	Low	10.0	Vague	2	32	31	11	12.2	13.1	0.0	31	11	32	13.1	0.0	12.2	1	0.785	0.001	R	32	12.2	770.847	772.478	773.262	773.265	0
2	22102704	239	Low	10.0	Vague	2	34	33	1	13.9	29.8	3.7	34	1	33	13.9	3.7	29.8	1	1.296	0.000	L	34	13.9	773.767	774.982	776.278	776.281	0
2	22102704	240	Low	10.0	Vague	2	31	34	4	13.1	13.9	9.8	34	4	31	13.9	9.8	13.1	2	0.693	0.000	L	34	13.9	776.783	778.450	779.142	779.145	0
2	22102704	241	Low	10.0	Precise	1	35	34	24	13.0	13.9	0.0	35	24	34	13.0	0.0	13.9	2	0.632	0.000	R	34	13.9	786.205	787.958	788.590	788.593	0
2	22102704	242	Low	10.0	Precise	1	35	31	20	13.0	13.1	4.1	35	31	20	13.0	13.1	4.1	1	0.750	0.000	L	35	13.0	789.095	791.080	791.830	791.833	0
2	22102704	243	Low	10.0	Precise	1	26	33	25	20.8	29.8	2.6	25	33	26	2.6	29.8	20.8	1	1.017	0.000	R	26	20.8	792.336	793.901	794.918	794.920	0
2	22102704	244	Low	10.0	Precise	1	32	26	23	12.2	20.8	0.4	26	32	23	20.8	12.2	0.4	2	0.960	0.001	L	26	20.8	795.423	798.342	799.302	799.305	0
2	22102704	245	Low	10.0	Precise	1	34	33	25	13.9	29.8	2.6	33	34	25	29.8	13.9	2.6	3	1.539	0.000	R	25	2.6	799.807	801.931	803.470	803.472	0
2	22102704	246	Low	10.0	Vague	2	35	31	11	13.0	13.1	0.0	31	11	35	13.1	0.0	13.0	2	1.181	0.000	L	31	13.1	803.975	804.777	805.958	805.960	0
2	22102704	247	Low	10.0	Vague	2	32	33	10	12.2	29.8	6.4	33	10	32	29.8	6.4	12.2	3	1.917	0.000	D	10	6.4	806.463	807.617	809.534	809.537	0
2	22102704	248	Low	10.0	Precise	1	35	26	22	13.0	20.8	7.7	26	35	22	20.8	13.0	7.7	2	1.186	0.000	L	26	20.8	810.039	811.308	812.494	812.496	0
2	22102704	249	Low	10.0	Precise	1	26	33	36	20.8	29.8	8.4	36	33	26	8.4	29.8	20.8	1	0.616	0.000	R	26	20.8	812.999	814.678	815.294	815.297	0
2	22102704	250	Low	10.0	Vague	2	31	26	11	13.1	20.8	0.0	26	11	31	20.8	0.0	13.1	2	0.681	0.001	L	26	20.8	815.799	816.565	817.246	817.249	0
2	22102704	251	Low	10.0	Precise	1	31	34	22	13.1	13.9	7.7	34	31	22	13.9	13.1	7.7	2	1.215	0.001	L	34	13.9	817.751	820.687	821.902	821.905	0
2	22102704	252	Low	10.0	Precise	1	34	26	36	13.9	20.8	8.4	26	34	36	20.8	13.9	8.4	2	1.391	0.000	L	26	20.8	822.407	825.183	826.574	826.577	0
2	22102704	253	Low	10.0	Vague	2	31	26	10	13.1	20.8	6.4	26	31	10	20.8	13.1	6.4	2	0.611	0.001	L	26	20.8	827.079	828.515	829.126	829.129	0
2	22102704	254	Low	10.0	Precise	1	31	26	20	13.1	20.8	4.1	31	26	20	13.1	20.8	4.1	2	1.207	0.000	D	26	20.8	829.632	831.463	832.671	832.673	0
2	22102704	255	Low	10.0	Precise	1	26	33	20	20.8	29.8	4.1	20	33	26	4.1	29.8	20.8	1	0.688	0.000	R	26	20.8	833.175	834.935	835.622	835.625	0
2	22102704	256	Low	10.0	Precise	1	34	33	36	13.9	29.8	8.4	34	36	33	13.9	8.4	29.8	3	2.476	0.000	D	36	8.4	836.127	837.610	840.086	840.088	0
2	22102704	257	Low	10.0	Precise	1	34	33	20	13.9	29.8	4.1	20	33	34	4.1	29.8	13.9	1	1.013	0.001	R	34	13.9	840.591	842.746	843.759	843.761	0
2	22102704	258	Low	10.0	Precise	1	35	33	22	13.0	29.8	7.7	22	33	35	7.7	29.8	13.0	1	1.337	0.000	R	35	13.0	844.263	846.749	848.086	848.088	0
2	22102704	259	Low	10.0	Precise	1	31	34	24	13.1	13.9	0.0	34	31	24	13.9	13.1	0.0	2	1.399	0.000	L	34	13.9	848.591	850.007	851.406	851.409	0
2	22102704	260	Low	10.0	Precise	1	32	26	25	12.2	20.8	2.6	26	32	25	20.8	12.2	2.6	2	0.794	0.001	L	26	20.8	851.911	854.476	855.270	855.273	0
2	22102704	261	Low	10.0	Vague	2	31	34	11	13.1	13.9	0.0	34	31	11	13.9	13.1	0.0	2	0.853	0.001	L	34	13.9	855.775	857.826	858.678	858.681	0
2	22102704	262	Low	10.0	Precise	1	32	35	25	12.2	13.0	2.6	32	25	35	12.2	2.6	13.0	1	1.844	0.001	L	32	12.2	859.183	859.890	861.735	861.737	0
2	22102704	263	Low	10.0	Vague	2	32	34	1	12.2	13.9	3.7	1	34	32	3.7	13.9	12.2	2	0.968	0.001	D	34	13.9	862.239	864.879	865.847	865.849	0
2	22102704	264	Low	10.0	Vague	2	35	34	5	13.0	13.9	1.7	34	5	35	13.9	1.7	13.0	2	0.872	0.000	L	34	13.9	866.351	869.342	870.214	870.217	0
2	22102704	265	Low	10.0	Vague	2	35	33	4	13.0	29.8	9.8	35	33	4	13.0	29.8	9.8	1	0.946	0.000	L	35	13.0	870.719	873.108	874.054	874.057	0
2	22102704	266	Low	10.0	Vague	2	35	31	3	13.0	13.1	2.3	3	35	31	2.3	13.0	13.1	1	1.031	0.000	D	35	13.0	874.559	876.064	877.094	877.097	0
2	22102704	267	Low	10.0	Precise	1	32	26	36	12.2	20.8	8.4	36	26	32	8.4	20.8	12.2	2	0.783	0.000	D	26	20.8	877.599	878.439	879.222	879.225	0
2	22102704	268	Low	10.0	Precise	1	35	34	20	13.0	13.9	4.1	20	34	35	4.1	13.9	13.0	2	0.772	0.000	D	34	13.9	879.727	882.378	883.150	883.153	0
2	22102704	269	Low	10.0	Precise	1	32	34	22	12.2	13.9	7.7	22	32	34	7.7	12.2	13.9	2	1.097	0.000	R	34	13.9	883.655	885.269	886.366	886.369	0
2	22102704	270	Low	10.0	Precise	1	32	31	22	12.2	13.1	7.7	31	32	22	13.1	12.2	7.7	1	1.807	0.001	D	32	12.2	886.872	887.999	889.807	889.809	0
2	22102704	271	Low	10.0	Vague	2	32	35	10	12.2	13.0	6.4	10	35	32	6.4	13.0	12.2	3	1.715	0.000	L	10	6.4	890.311	893.027	894.742	894.745	0
2	22102704	272	Low	10.0	Precise	1	32	35	23	12.2	13.0	0.4	35	23	32	13.0	0.4	12.2	1	1.102	0.001	R	32	12.2	895.247	896.353	897.455	897.457	0
2	22102704	273	Low	10.0	Precise	1	32	35	20	12.2	13.0	4.1	20	32	35	4.1	12.2	13.0	1	0.975	0.000	D	32	12.2	897.959	899.607	900.582	900.585	0
2	22102704	274	Low	10.0	Precise	1	35	33	36	13.0	29.8	8.4	33	36	35	29.8	8.4	13.0	1	1.826	0.000	R	35	13.0	901.087	903.260	905.086	905.088	0
2	22102704	275	Low	10.0	Precise	1	32	31	20	12.2	13.1	4.1	20	32	31	4.1	12.2	13.1	1	1.515	0.000	D	32	12.2	905.591	906.419	907.934	907.937	0
2	22102704	276	Low	10.0	Precise	1	31	26	22	13.1	20.8	7.7	22	26	31	7.7	20.8	13.1	2	0.908	0.000	D	26	20.8	908.439	910.651	911.558	911.561	0
2	22102704	277	Low	10.0	Vague	2	32	26	3	12.2	20.8	2.3	3	26	32	2.3	20.8	12.2	2	0.626	0.000	D	26	20.8	912.063	913.989	914.614	914.617	0
2	22102704	278	Low	10.0	Vague	2	26	33	4	20.8	29.8	9.8	4	33	26	9.8	29.8	20.8	1	1.086	0.001	R	26	20.8	915.119	917.745	918.831	918.833	0
2	22102704	279	Low	10.0	Vague	2	26	33	1	20.8	29.8	3.7	1	26	33	3.7	20.8	29.8	1	0.871	0.001	D	26	20.8	919.336	920.791	921.663	921.665	0
2	22102704	280	Low	10.0	Vague	2	35	26	11	13.0	20.8	0.0	35	26	11	13.0	20.8	0.0	2	1.280	0.001	D	26	20.8	922.167	922.831	924.111	924.113	0
2	22102704	281	Low	10.0	Vague	2	35	33	1	13.0	29.8	3.7	33	1	35	29.8	3.7	13.0	1	1.176	0.000	R	35	13.0	924.615	925.870	927.046	927.049	0
2	22102704	282	Low	10.0	Precise	1	32	33	36	12.2	29.8	8.4	33	36	32	29.8	8.4	12.2	1	1.064	0.000	R	32	12.2	927.551	930.070	931.134	931.136	0
2	22102704	283	Low	10.0	Vague	2	31	34	1	13.1	13.9	3.7	1	34	31	3.7	13.9	13.1	2	0.863	0.000	D	34	13.9	931.639	932.775	933.638	933.641	0
2	22102704	284	Low	10.0	Vague	2	32	31	10	12.2	13.1	6.4	10	31	32	6.4	13.1	12.2	1	0.997	0.000	R	32	12.2	934.143	935.682	936.679	936.681	0
2	22102704	285	Low	10.0	Precise	1	32	34	25	12.2	13.9	2.6	32	34	25	12.2	13.9	2.6	2	1.013	0.001	D	34	13.9	937.183	940.049	941.062	941.065	0
2	22102704	286	Low	10.0	Vague	2	32	34	5	12.2	13.9	1.7	34	32	5	13.9	12.2	1.7	1	1.641	0.000	D	32	12.2	941.567	943.173	944.814	944.817	0
2	22102704	287	Low	10.0	Vague	2	32	33	5	12.2	29.8	1.7	33	5	32	29.8	1.7	12.2	1	5.342	0.000	R	32	12.2	945.319	946.217	951.558	951.561	0
2	22102704	288	Low	10.0	Vague	2	31	26	1	13.1	20.8	3.7	1	31	26	3.7	13.1	20.8	2	0.873	0.000	R	26	20.8	952.063	952.621	953.494	953.497	0
2	22102704	289	Low	10.0	Vague	2	31	34	5	13.1	13.9	1.7	31	5	34	13.1	1.7	13.9	2	0.701	0.000	R	34	13.9	953.999	956.322	957.023	957.025	0
2	22102704	290	Low	10.0	Vague	2	31	34	3	13.1	13.9	2.3	31	34	3	13.1	13.9	2.3	1	0.557	0.000	L	31	13.1	957.527	959.313	959.870	959.872	0
2	22102704	291	Low	10.0	Precise	1	35	26	36	13.0	20.8	8.4	35	26	36	13.0	20.8	8.4	2	0.734	0.000	D	26	20.8	960.375	962.585	963.319	963.321	0
2	22102704	292	Low	10.0	Precise	1	35	26	24	13.0	20.8	0.0	35	26	24	13.0	20.8	0.0	2	0.526	0.000	D	26	20.8	963.823	964.793	965.319	965.321	0
2	22102704	293	Low	10.0	Precise	1	35	31	25	13.0	13.1	2.6	25	35	31	2.6	13.0	13.1	2	1.383	0.000	R	31	13.1	965.823	966.320	967.703	967.705	0
2	22102704	294	Low	10.0	Precise	1	35	34	25	13.0	13.9	2.6	34	25	35	13.9	2.6	13.0	2	0.752	0.001	L	34	13.9	968.207	970.327	971.079	971.081	0
2	22102704	295	Low	10.0	Precise	1	31	34	25	13.1	13.9	2.6	34	31	25	13.9	13.1	2.6	2	0.599	0.001	L	34	13.9	971.583	974.248	974.847	974.849	0
2	22102704	296	Low	10.0	Precise	1	34	33	22	13.9	29.8	7.7	34	33	22	13.9	29.8	7.7	1	0.451	0.000	L	34	13.9	975.351	975.939	976.390	976.393	0
2	22102704	297	Low	10.0	Precise	1	32	33	22	12.2	29.8	7.7	32	22	33	12.2	7.7	29.8	3	0.892	0.000	D	22	7.7	976.895	977.931	978.822	978.825	0
2	22102704	298	Low	10.0	Precise	1	32	33	25	12.2	29.8	2.6	25	33	32	2.6	29.8	12.2	1	0.661	0.000	R	32	12.2	979.327	981.489	982.151	982.153	0
2	22102704	299	Low	10.0	Vague	2	35	26	3	13.0	20.8	2.3	3	35	26	2.3	13.0	20.8	2	0.699	0.000	R	26	20.8	982.655	985.643	986.342	986.344	0
2	22102704	300	Low	10.0	Vague	2	32	34	11	12.2	13.9	0.0	11	32	34	0.0	12.2	13.9	2	0.668	0.001	R	34	13.9	986.847	988.611	989.279	989.281	0
2	22102704	301	Low	10.0	Precise	1	31	34	23	13.1	13.9	0.4	34	31	23	13.9	13.1	0.4	2	0.991	0.000	L	34	13.9	997.139	999.583	1000.575	1000.577	0
2	22102704	302	Low	10.0	Vague	2	32	35	11	12.2	13.0	0.0	32	35	11	12.2	13.0	0.0	1	0.770	0.001	L	32	12.2	1001.079	1003.709	1004.478	1004.481	0
2	22102704	303	Low	10.0	Vague	2	35	34	11	13.0	13.9	0.0	11	34	35	0.0	13.9	13.0	1	1.820	0.000	R	35	13.0	1004.983	1005.578	1007.398	1007.401	0
2	22102704	304	Low	10.0	Vague	2	34	26	10	13.9	20.8	6.4	34	10	26	13.9	6.4	20.8	2	0.700	0.001	R	26	20.8	1007.903	1009.307	1010.007	1010.009	0
2	22102704	305	Low	10.0	Vague	2	34	33	3	13.9	29.8	2.3	3	34	33	2.3	13.9	29.8	1	1.175	0.000	D	34	13.9	1010.512	1011.824	1012.998	1013.000	0
2	22102704	306	Low	10.0	Precise	1	31	34	20	13.1	13.9	4.1	31	20	34	13.1	4.1	13.9	2	0.661	0.000	R	34	13.9	1013.503	1015.138	1015.798	1015.801	0
2	22102704	307	Low	10.0	Precise	1	32	35	36	12.2	13.0	8.4	32	36	35	12.2	8.4	13.0	1	1.017	0.000	L	32	12.2	1016.303	1018.902	1019.918	1019.921	0
2	22102704	308	Low	10.0	Vague	2	32	26	1	12.2	20.8	3.7	26	32	1	20.8	12.2	3.7	2	0.758	0.000	L	26	20.8	1020.423	1023.305	1024.062	1024.065	0
2	22102704	309	Low	10.0	Vague	2	34	33	10	13.9	29.8	6.4	34	33	10	13.9	29.8	6.4	1	0.563	0.001	L	34	13.9	1024.567	1026.163	1026.727	1026.729	0
2	22102704	310	Low	10.0	Precise	1	32	31	24	12.2	13.1	0.0	31	32	24	13.1	12.2	0.0	1	1.031	0.000	D	32	12.2	1027.231	1028.768	1029.799	1029.801	0
2	22102704	311	Low	10.0	Vague	2	34	26	11	13.9	20.8	0.0	26	34	11	20.8	13.9	0.0	2	0.731	0.000	L	26	20.8	1030.304	1032.699	1033.430	1033.433	0
2	22102704	312	Low	10.0	Vague	2	32	31	4	12.2	13.1	9.8	32	4	31	12.2	9.8	13.1	1	0.634	0.000	L	32	12.2	1033.935	1034.716	1035.351	1035.353	0
2	22102704	313	Low	10.0	Vague	2	32	31	3	12.2	13.1	2.3	3	31	32	2.3	13.1	12.2	1	0.780	0.000	R	32	12.2	1035.856	1037.962	1038.742	1038.745	0
2	22102704	314	Low	10.0	Vague	2	35	31	10	13.0	13.1	6.4	31	35	10	13.1	13.0	6.4	3	0.700	0.000	R	10	6.4	1039.247	1041.331	1042.030	1042.033	0
2	22102704	315	Low	10.0	Vague	2	35	31	1	13.0	13.1	3.7	1	35	31	3.7	13.0	13.1	2	0.696	0.000	R	31	13.1	1042.536	1043.062	1043.758	1043.761	0
2	22102704	316	Low	10.0	Vague	2	32	26	5	12.2	20.8	1.7	32	26	5	12.2	20.8	1.7	1	0.722	0.001	L	32	12.2	1044.263	1046.564	1047.287	1047.289	0
2	22102704	317	Low	10.0	Vague	2	35	34	4	13.0	13.9	9.8	35	4	34	13.0	9.8	13.9	2	0.892	0.000	R	34	13.9	1047.791	1049.011	1049.903	1049.905	0
2	22102704	318	Low	10.0	Precise	1	34	26	20	13.9	20.8	4.1	34	20	26	13.9	4.1	20.8	2	0.663	0.001	R	26	20.8	1050.407	1052.768	1053.431	1053.433	0
2	22102704	319	Low	10.0	Vague	2	32	34	10	12.2	13.9	6.4	10	34	32	6.4	13.9	12.2	3	1.165	0.000	L	10	6.4	1053.935	1056.210	1057.374	1057.377	0
2	22102704	320	Low	10.0	Precise	1	31	33	25	13.1	29.8	2.6	25	33	31	2.6	29.8	13.1	1	0.815	0.000	R	31	13.1	1057.879	1060.399	1061.214	1061.217	0
2	22102704	321	Low	10.0	Vague	2	31	33	3	13.1	29.8	2.3	33	31	3	29.8	13.1	2.3	1	1.593	0.001	D	31	13.1	1061.720	1063.782	1065.375	1065.377	0
2	22102704	322	Low	10.0	Precise	1	31	26	24	13.1	20.8	0.0	26	31	24	20.8	13.1	0.0	2	0.783	0.001	L	26	20.8	1065.879	1067.079	1067.863	1067.865	0
2	22102704	323	Low	10.0	Vague	2	32	35	5	12.2	13.0	1.7	32	5	35	12.2	1.7	13.0	1	0.879	0.000	L	32	12.2	1068.367	1070.800	1071.679	1071.681	0
2	22102704	324	Low	10.0	Vague	2	32	34	3	12.2	13.9	2.3	3	34	32	2.3	13.9	12.2	1	1.284	0.001	R	32	12.2	1072.183	1074.386	1075.671	1075.673	0
2	22102704	325	Low	10.0	Precise	1	34	26	23	13.9	20.8	0.4	23	26	34	0.4	20.8	13.9	2	1.215	0.001	D	26	20.8	1076.175	1078.696	1079.911	1079.913	0
2	22102704	326	Low	10.0	Vague	2	32	31	5	12.2	13.1	1.7	31	32	5	13.1	12.2	1.7	1	1.027	0.000	D	32	12.2	1080.415	1082.524	1083.551	1083.553	0
2	22102704	327	Low	10.0	Vague	2	31	33	10	13.1	29.8	6.4	10	31	33	6.4	13.1	29.8	1	3.531	0.000	D	31	13.1	1084.055	1085.708	1089.238	1089.241	0
2	22102704	328	Low	10.0	Precise	1	32	33	23	12.2	29.8	0.4	32	33	23	12.2	29.8	0.4	1	0.796	0.000	L	32	12.2	1089.743	1091.874	1092.670	1092.673	0
2	22102704	329	Low	10.0	Precise	1	34	26	24	13.9	20.8	0.0	24	34	26	0.0	13.9	20.8	2	0.995	0.001	R	26	20.8	1093.175	1095.027	1096.023	1096.025	0
2	22102704	330	Low	10.0	Vague	2	31	33	11	13.1	29.8	0.0	31	33	11	13.1	29.8	0.0	1	0.877	0.000	L	31	13.1	1096.528	1099.177	1100.054	1100.057	0
2	22102704	331	Low	10.0	Vague	2	26	33	5	20.8	29.8	1.7	5	33	26	1.7	29.8	20.8	1	0.697	0.000	R	26	20.8	1100.559	1101.997	1102.694	1102.697	0
2	22102704	332	Low	10.0	Vague	2	32	33	1	12.2	29.8	3.7	33	1	32	29.8	3.7	12.2	1	0.888	0.001	R	32	12.2	1103.199	1104.286	1105.175	1105.177	0
2	22102704	333	Low	10.0	Precise	1	32	31	25	12.2	13.1	2.6	25	31	32	2.6	13.1	12.2	1	0.564	0.000	R	32	12.2	1105.679	1107.179	1107.743	1107.745	0
2	22102704	334	Low	10.0	Precise	1	32	31	36	12.2	13.1	8.4	32	31	36	12.2	13.1	8.4	1	0.751	0.000	L	32	12.2	1108.247	1110.471	1111.222	1111.225	0
2	22102704	335	Low	10.0	Precise	1	35	26	23	13.0	20.8	0.4	23	35	26	0.4	13.0	20.8	2	0.647	0.000	R	26	20.8	1111.727	1113.879	1114.527	1114.529	0
2	22102704	336	Low	10.0	Precise	1	32	34	36	12.2	13.9	8.4	34	36	32	13.9	8.4	12.2	1	1.335	0.001	R	32	12.2	1115.031	1117.728	1119.063	1119.065	0
2	22102704	337	Low	10.0	Vague	2	34	33	11	13.9	29.8	0.0	34	33	11	13.9	29.8	0.0	1	1.781	0.000	L	34	13.9	1119.568	1121.850	1123.631	1123.633	0
2	22102704	338	Low	10.0	Vague	2	26	33	3	20.8	29.8	2.3	26	3	33	20.8	2.3	29.8	1	1.252	0.001	L	26	20.8	1124.135	1126.610	1127.863	1127.865	0
2	22102704	339	Low	10.0	Precise	1	34	26	25	13.9	20.8	2.6	26	25	34	20.8	2.6	13.9	2	1.135	0.001	L	26	20.8	1128.367	1129.944	1131.079	1131.081	0
2	22102704	340	Low	10.0	Precise	1	32	34	20	12.2	13.9	4.1	20	32	34	4.1	12.2	13.9	2	1.516	0.000	R	34	13.9	1131.584	1132.586	1134.103	1134.105	0
2	22102704	341	Low	10.0	Vague	2	32	34	4	12.2	13.9	9.8	32	34	4	12.2	13.9	9.8	2	2.562	0.001	D	34	13.9	1134.607	1135.325	1137.887	1137.889	0
2	22102704	342	Low	10.0	Vague	2	31	33	1	13.1	29.8	3.7	31	33	1	13.1	29.8	3.7	1	0.828	0.000	L	31	13.1	1138.391	1141.178	1142.006	1142.008	0
2	22102704	343	Low	10.0	Precise	1	31	33	23	13.1	29.8	0.4	31	33	23	13.1	29.8	0.4	1	0.836	0.000	L	31	13.1	1142.511	1144.994	1145.830	1145.832	0
2	22102704	344	Low	10.0	Vague	2	31	34	10	13.1	13.9	6.4	31	34	10	13.1	13.9	6.4	1	0.597	0.000	L	31	13.1	1146.335	1148.449	1149.046	1149.049	0
2	22102704	345	Low	10.0	Vague	2	35	26	1	13.0	20.8	3.7	26	35	1	20.8	13.0	3.7	2	0.553	0.000	L	26	20.8	1149.551	1152.198	1152.751	1152.753	0
2	22102704	346	Low	10.0	Precise	1	32	35	24	12.2	13.0	0.0	24	32	35	0.0	12.2	13.0	1	1.000	0.000	D	32	12.2	1153.256	1155.390	1156.391	1156.393	0
2	22102704	347	Low	10.0	Vague	2	32	26	4	12.2	20.8	9.8	26	4	32	20.8	9.8	12.2	2	0.579	0.000	L	26	20.8	1156.895	1158.059	1158.638	1158.641	0
2	22102704	348	Low	10.0	Precise	1	35	33	20	13.0	29.8	4.1	35	33	20	13.0	29.8	4.1	1	0.739	0.000	L	35	13.0	1159.143	1160.003	1160.743	1160.745	0
2	22102704	349	Low	10.0	Precise	1	35	33	24	13.0	29.8	0.0	24	33	35	0.0	29.8	13.0	1	0.607	0.000	R	35	13.0	1161.247	1162.247	1162.854	1162.857	0
2	22102704	350	Low	10.0	Vague	2	26	33	10	20.8	29.8	6.4	26	10	33	20.8	6.4	29.8	1	0.548	0.001	L	26	20.8	1163.359	1164.715	1165.263	1165.265	0
2	22102704	351	Low	10.0	Vague	2	35	26	5	13.0	20.8	1.7	26	35	5	20.8	13.0	1.7	2	0.520	0.000	L	26	20.8	1165.767	1166.975	1167.494	1167.497	0
2	22102704	352	Low	10.0	Vague	2	35	34	3	13.0	13.9	2.3	34	35	3	13.9	13.0	2.3	2	0.630	0.001	L	34	13.9	1167.999	1169.560	1170.191	1170.193	0
2	22102704	353	Low	10.0	Vague	2	31	33	5	13.1	29.8	1.7	31	33	5	13.1	29.8	1.7	1	0.618	0.000	L	31	13.1	1170.695	1172.708	1173.326	1173.329	0
2	22102704	354	Low	10.0	Precise	1	34	26	22	13.9	20.8	7.7	34	22	26	13.9	7.7	20.8	1	0.615	0.000	L	34	13.9	1173.831	1174.951	1175.566	1175.569	0
2	22102704	355	Low	10.0	Precise	1	34	33	24	13.9	29.8	0.0	33	34	24	29.8	13.9	0.0	1	1.988	0.001	D	34	13.9	1176.071	1176.691	1178.679	1178.681	0
2	22102704	356	Low	10.0	Precise	1	26	33	23	20.8	29.8	0.4	23	26	33	0.4	20.8	29.8	1	0.842	0.000	D	26	20.8	1179.183	1180.237	1181.078	1181.081	0
2	22102704	357	Low	10.0	Vague	2	31	26	4	13.1	20.8	9.8	26	31	4	20.8	13.1	9.8	2	1.008	0.000	L	26	20.8	1181.583	1184.470	1185.479	1185.481	0
2	22102704	358	Low	10.0	Precise	1	32	31	23	12.2	13.1	0.4	32	23	31	12.2	0.4	13.1	1	0.801	0.000	L	32	12.2	1185.983	1188.773	1189.574	1189.577	0
2	22102704	359	Low	10.0	Vague	2	34	26	1	13.9	20.8	3.7	34	1	26	13.9	3.7	20.8	2	1.246	0.000	R	26	20.8	1190.079	1190.640	1191.887	1191.889	0
2	22102704	360	Low	10.0	Precise	1	35	33	25	13.0	29.8	2.6	35	25	33	13.0	2.6	29.8	1	0.817	0.000	L	35	13.0	1192.391	1194.445	1195.263	1195.265	0
