Group	subID	trial	TimePressure	TimeConstraint	Vagueness	Vaguenesscode	ID1	ID2	ID3	V1	V2	V3	ID_left	ID_middle	ID_right	Bid_left	Bid_middle	Bid_right	chosenItem	RT	RTvariance	chosenPosition	chosenID	chosenValue	fixation_time	option_time	choice_time	feedback_time	timeout
1	22072002	1	High	1.5	Vague	2	9	18	36	31.8	77.3	22.2	36	18	9	22.2	77.3	31.8	2	0.712	0.000	D	18	77.3	4.163	5.296	6.008	6.012	0
1	22072002	2	High	1.5	Precise	1	16	14	12	49.8	55.2	28.0	14	16	12	55.2	49.8	28.0	3	1.146	0.000	R	12	28.0	6.516	8.526	9.671	9.675	0
1	22072002	3	High	1.5	Vague	2	9	14	19	31.8	55.2	7.0	9	19	14	31.8	7.0	55.2	1	1.286	0.001	L	9	31.8	10.178	12.706	13.992	13.995	0
1	22072002	4	High	1.5	Precise	1	16	18	13	49.8	77.3	20.8	13	18	16	20.8	77.3	49.8	2	1.365	0.001	D	18	77.3	14.499	15.356	16.720	16.723	0
1	22072002	5	High	1.5	Precise	1	15	16	12	47.1	49.8	28.0	15	12	16	47.1	28.0	49.8	3	1.307	0.000	D	12	28.0	17.226	20.029	21.336	21.340	0
1	22072002	6	High	1.5	Vague	2	15	18	36	47.1	77.3	22.2	36	18	15	22.2	77.3	47.1	2	0.854	0.001	D	18	77.3	21.852	22.466	23.320	23.323	0
1	22072002	7	High	1.5	Vague	2	16	18	23	49.8	77.3	1.5	18	16	23	77.3	49.8	1.5	2	1.283	0.001	L	18	77.3	23.826	24.405	25.688	25.690	0
1	22072002	8	High	1.5	Precise	1	14	18	7	55.2	77.3	8.8	18	7	14	77.3	8.8	55.2	2	0.778	0.000	L	18	77.3	26.193	27.614	28.392	28.394	0
1	22072002	9	High	1.5	Precise	1	17	18	10	71.7	77.3	29.7	18	10	17	77.3	29.7	71.7	2	0.567	0.000	L	18	77.3	28.897	31.377	31.944	31.946	0
1	22072002	10	High	1.5	Vague	2	15	16	36	47.1	49.8	22.2	16	15	36	49.8	47.1	22.2	NaN	NaN	NaN	NaN	NaN	NaN	32.449	34.774	NaN	36.264	1
1	22072002	11	High	1.5	Vague	2	16	14	24	49.8	55.2	1.9	24	16	14	1.9	49.8	55.2	1	1.038	0.001	D	16	49.8	38.268	39.130	40.168	40.172	0
1	22072002	12	High	1.5	Precise	1	9	15	6	31.8	47.1	2.2	15	6	9	47.1	2.2	31.8	1	0.770	0.001	R	9	31.8	40.674	41.374	42.144	42.146	0
1	22072002	13	High	1.5	Vague	2	16	17	24	49.8	71.7	1.9	24	17	16	1.9	71.7	49.8	2	0.912	0.000	D	17	71.7	42.649	45.416	46.328	46.330	0
1	22072002	14	High	1.5	Precise	1	9	17	6	31.8	71.7	2.2	9	17	6	31.8	71.7	2.2	2	0.845	0.000	D	17	71.7	46.833	47.587	48.432	48.434	0
1	22072002	15	High	1.5	Precise	1	14	18	6	55.2	77.3	2.2	18	6	14	77.3	2.2	55.2	2	0.973	0.000	L	18	77.3	48.937	50.875	51.848	51.850	0
1	22072002	16	High	1.5	Vague	2	9	14	23	31.8	55.2	1.5	14	9	23	55.2	31.8	1.5	1	0.733	0.001	D	9	31.8	52.353	55.139	55.872	55.874	0
1	22072002	17	High	1.5	Vague	2	16	14	36	49.8	55.2	22.2	16	14	36	49.8	55.2	22.2	1	0.908	0.000	L	16	49.8	56.378	58.260	59.168	59.170	0
1	22072002	18	High	1.5	Precise	1	16	18	7	49.8	77.3	8.8	16	18	7	49.8	77.3	8.8	2	0.702	0.000	D	18	77.3	59.673	61.841	62.544	62.546	0
1	22072002	19	High	1.5	Precise	1	15	17	12	47.1	71.7	28.0	12	17	15	28.0	71.7	47.1	2	0.652	0.000	D	17	71.7	63.049	63.676	64.328	64.330	0
1	22072002	20	High	1.5	Vague	2	15	16	23	47.1	49.8	1.5	15	16	23	47.1	49.8	1.5	2	0.783	0.001	D	16	49.8	64.833	66.553	67.336	67.338	0
1	22072002	21	High	1.5	Vague	2	9	17	32	31.8	71.7	23.5	32	17	9	23.5	71.7	31.8	2	0.683	0.000	D	17	71.7	67.841	69.189	69.872	69.874	0
1	22072002	22	High	1.5	Precise	1	9	16	12	31.8	49.8	28.0	16	9	12	49.8	31.8	28.0	NaN	NaN	NaN	NaN	NaN	NaN	70.377	72.859	NaN	74.346	1
1	22072002	23	High	1.5	Precise	1	15	14	13	47.1	55.2	20.8	15	13	14	47.1	20.8	55.2	3	0.907	0.000	D	13	20.8	76.349	77.565	78.472	78.474	0
1	22072002	24	High	1.5	Precise	1	15	17	13	47.1	71.7	20.8	13	15	17	20.8	47.1	71.7	2	0.627	0.000	R	17	71.7	78.977	81.853	82.479	82.482	0
1	22072002	25	High	1.5	Precise	1	15	17	10	47.1	71.7	29.7	10	17	15	29.7	71.7	47.1	2	0.652	0.000	D	17	71.7	82.985	85.876	86.528	86.530	0
1	22072002	26	High	1.5	Vague	2	15	14	36	47.1	55.2	22.2	15	14	36	47.1	55.2	22.2	1	0.933	0.000	L	15	47.1	87.033	89.739	90.672	90.674	0
1	22072002	27	High	1.5	Vague	2	14	17	24	55.2	71.7	1.9	14	24	17	55.2	1.9	71.7	2	0.830	0.001	R	17	71.7	91.178	91.698	92.528	92.530	0
1	22072002	28	High	1.5	Vague	2	15	14	32	47.1	55.2	23.5	15	32	14	47.1	23.5	55.2	3	0.920	0.000	D	32	23.5	93.033	95.071	95.992	95.995	0
1	22072002	29	High	1.5	Vague	2	16	17	32	49.8	71.7	23.5	16	17	32	49.8	71.7	23.5	2	0.728	0.000	D	17	71.7	96.498	97.360	98.088	98.090	0
1	22072002	30	High	1.5	Precise	1	14	17	6	55.2	71.7	2.2	14	6	17	55.2	2.2	71.7	2	0.918	0.000	R	17	71.7	98.593	99.578	100.496	100.498	0
1	22072002	31	High	1.5	Precise	1	9	16	13	31.8	49.8	20.8	9	16	13	31.8	49.8	20.8	3	1.021	0.000	R	13	20.8	101.001	102.827	103.847	103.850	0
1	22072002	32	High	1.5	Vague	2	14	17	19	55.2	71.7	7.0	14	19	17	55.2	7.0	71.7	2	0.594	0.000	R	17	71.7	104.353	106.550	107.144	107.146	0
1	22072002	33	High	1.5	Vague	2	16	18	32	49.8	77.3	23.5	32	18	16	23.5	77.3	49.8	2	0.634	0.000	D	18	77.3	107.649	108.582	109.216	109.218	0
1	22072002	34	High	1.5	Vague	2	15	16	24	47.1	49.8	1.9	16	24	15	49.8	1.9	47.1	2	1.150	0.000	L	16	49.8	109.721	111.802	112.952	112.954	0
1	22072002	35	High	1.5	Vague	2	9	15	19	31.8	47.1	7.0	19	9	15	7.0	31.8	47.1	1	1.051	0.000	D	9	31.8	113.457	114.085	115.136	115.138	0
1	22072002	36	High	1.5	Precise	1	16	14	6	49.8	55.2	2.2	14	6	16	55.2	2.2	49.8	1	0.936	0.000	R	16	49.8	115.641	117.544	118.480	118.482	0
1	22072002	37	High	1.5	Vague	2	14	18	32	55.2	77.3	23.5	32	14	18	23.5	55.2	77.3	2	0.619	0.000	R	18	77.3	118.986	120.724	121.344	121.346	0
1	22072002	38	High	1.5	Vague	2	14	18	30	55.2	77.3	26.5	30	18	14	26.5	77.3	55.2	2	0.586	0.000	D	18	77.3	121.849	123.534	124.120	124.122	0
1	22072002	39	High	1.5	Vague	2	15	18	30	47.1	77.3	26.5	15	18	30	47.1	77.3	26.5	2	0.488	0.001	D	18	77.3	124.625	127.375	127.864	127.866	0
1	22072002	40	High	1.5	Precise	1	14	18	10	55.2	77.3	29.7	18	14	10	77.3	55.2	29.7	2	0.560	0.000	L	18	77.3	128.369	131.280	131.840	131.842	0
1	22072002	41	High	1.5	Precise	1	9	17	3	31.8	71.7	3.2	3	9	17	3.2	31.8	71.7	2	1.146	0.000	R	17	71.7	132.344	133.382	134.528	134.530	0
1	22072002	42	High	1.5	Vague	2	16	17	19	49.8	71.7	7.0	19	17	16	7.0	71.7	49.8	1	0.846	0.000	R	16	49.8	135.033	135.850	136.696	136.698	0
1	22072002	43	High	1.5	Vague	2	9	16	30	31.8	49.8	26.5	30	9	16	26.5	31.8	49.8	1	1.099	0.000	D	9	31.8	137.201	139.629	140.727	140.730	0
1	22072002	44	High	1.5	Vague	2	9	16	32	31.8	49.8	23.5	9	32	16	31.8	23.5	49.8	2	1.192	0.000	R	16	49.8	141.232	144.040	145.232	145.234	0
1	22072002	45	High	1.5	Vague	2	14	17	23	55.2	71.7	1.5	14	17	23	55.2	71.7	1.5	2	0.675	0.000	D	17	71.7	145.737	147.020	147.696	147.698	0
1	22072002	46	High	1.5	Vague	2	14	18	23	55.2	77.3	1.5	14	18	23	55.2	77.3	1.5	2	0.610	0.000	D	18	77.3	148.200	151.125	151.736	151.738	0
1	22072002	47	High	1.5	Vague	2	15	18	23	47.1	77.3	1.5	23	15	18	1.5	47.1	77.3	2	0.553	0.000	R	18	77.3	152.240	154.055	154.607	154.610	0
1	22072002	48	High	1.5	Vague	2	9	14	32	31.8	55.2	23.5	9	32	14	31.8	23.5	55.2	3	0.963	0.000	D	32	23.5	155.112	157.444	158.407	158.410	0
1	22072002	49	High	1.5	Vague	2	16	17	36	49.8	71.7	22.2	16	36	17	49.8	22.2	71.7	2	0.907	0.000	R	17	71.7	158.913	160.325	161.232	161.234	0
1	22072002	50	High	1.5	Precise	1	14	18	13	55.2	77.3	20.8	13	18	14	20.8	77.3	55.2	2	0.648	0.000	D	18	77.3	161.736	162.688	163.336	163.338	0
1	22072002	51	High	1.5	Vague	2	14	17	32	55.2	71.7	23.5	32	17	14	23.5	71.7	55.2	2	1.198	0.000	D	17	71.7	163.841	164.834	166.032	166.034	0
1	22072002	52	High	1.5	Precise	1	15	17	7	47.1	71.7	8.8	15	17	7	47.1	71.7	8.8	2	0.559	0.000	D	17	71.7	166.538	168.689	169.248	169.250	0
1	22072002	53	High	1.5	Precise	1	9	16	10	31.8	49.8	29.7	10	9	16	29.7	31.8	49.8	2	1.084	0.000	R	16	49.8	169.754	171.636	172.720	172.722	0
1	22072002	54	High	1.5	Precise	1	15	18	10	47.1	77.3	29.7	18	15	10	77.3	47.1	29.7	3	0.735	0.001	R	10	29.7	173.225	174.273	175.008	175.010	0
1	22072002	55	High	1.5	Vague	2	9	18	24	31.8	77.3	1.9	24	18	9	1.9	77.3	31.8	2	0.496	0.001	D	18	77.3	175.513	176.712	177.208	177.210	0
1	22072002	56	High	1.5	Precise	1	17	18	6	71.7	77.3	2.2	17	18	6	71.7	77.3	2.2	2	0.529	0.000	D	18	77.3	177.713	180.191	180.719	180.722	0
1	22072002	57	High	1.5	Vague	2	15	16	32	47.1	49.8	23.5	32	16	15	23.5	49.8	47.1	2	1.285	0.001	D	16	49.8	181.225	181.963	183.248	183.251	0
1	22072002	58	High	1.5	Vague	2	16	18	36	49.8	77.3	22.2	16	36	18	49.8	22.2	77.3	2	0.401	0.001	R	18	77.3	183.754	186.663	187.064	187.066	0
1	22072002	59	High	1.5	Vague	2	17	18	24	71.7	77.3	1.9	18	24	17	77.3	1.9	71.7	2	0.516	0.001	L	18	77.3	187.570	189.444	189.960	189.962	0
1	22072002	60	High	1.5	Precise	1	15	14	7	47.1	55.2	8.8	15	7	14	47.1	8.8	55.2	NaN	NaN	NaN	NaN	NaN	NaN	190.465	191.591	NaN	193.077	1
1	22072002	61	High	1.5	Precise	1	9	14	6	31.8	55.2	2.2	9	6	14	31.8	2.2	55.2	2	1.084	0.000	R	14	55.2	203.640	206.164	207.248	207.250	0
1	22072002	62	High	1.5	Precise	1	14	18	12	55.2	77.3	28.0	14	18	12	55.2	77.3	28.0	2	0.738	0.000	D	18	77.3	207.754	208.534	209.272	209.274	0
1	22072002	63	High	1.5	Precise	1	9	18	6	31.8	77.3	2.2	9	6	18	31.8	2.2	77.3	2	0.633	0.000	R	18	77.3	209.777	211.135	211.768	211.770	0
1	22072002	64	High	1.5	Vague	2	9	15	32	31.8	47.1	23.5	32	9	15	23.5	31.8	47.1	1	1.065	0.000	D	9	31.8	212.274	213.790	214.856	214.858	0
1	22072002	65	High	1.5	Vague	2	16	17	30	49.8	71.7	26.5	30	16	17	26.5	49.8	71.7	2	0.692	0.000	R	17	71.7	215.360	215.963	216.656	216.658	0
1	22072002	66	High	1.5	Precise	1	16	14	10	49.8	55.2	29.7	14	16	10	55.2	49.8	29.7	3	0.810	0.000	R	10	29.7	217.161	218.366	219.176	219.178	0
1	22072002	67	High	1.5	Vague	2	17	18	30	71.7	77.3	26.5	17	30	18	71.7	26.5	77.3	2	0.539	0.000	R	18	77.3	219.681	221.717	222.256	222.258	0
1	22072002	68	High	1.5	Vague	2	9	14	24	31.8	55.2	1.9	14	9	24	55.2	31.8	1.9	1	1.006	0.000	D	9	31.8	222.761	225.650	226.655	226.658	0
1	22072002	69	High	1.5	Precise	1	9	17	13	31.8	71.7	20.8	13	9	17	20.8	31.8	71.7	1	0.666	0.000	D	9	31.8	227.160	228.998	229.664	229.666	0
1	22072002	70	High	1.5	Vague	2	14	18	36	55.2	77.3	22.2	36	14	18	22.2	55.2	77.3	2	0.548	0.000	R	18	77.3	230.169	233.100	233.647	233.650	0
1	22072002	71	High	1.5	Precise	1	17	18	12	71.7	77.3	28.0	18	17	12	77.3	71.7	28.0	1	0.644	0.000	D	17	71.7	234.153	234.803	235.447	235.451	0
1	22072002	72	High	1.5	Precise	1	16	18	3	49.8	77.3	3.2	16	3	18	49.8	3.2	77.3	2	0.426	0.000	R	18	77.3	235.953	237.790	238.216	238.218	0
1	22072002	73	High	1.5	Vague	2	9	14	36	31.8	55.2	22.2	9	14	36	31.8	55.2	22.2	1	1.348	0.000	L	9	31.8	238.721	240.987	242.335	242.338	0
1	22072002	74	High	1.5	Precise	1	16	18	12	49.8	77.3	28.0	16	12	18	49.8	28.0	77.3	2	0.420	0.000	R	18	77.3	242.841	244.468	244.888	244.890	0
1	22072002	75	High	1.5	Precise	1	9	14	7	31.8	55.2	8.8	7	9	14	8.8	31.8	55.2	1	0.810	0.001	D	9	31.8	245.392	248.054	248.864	248.866	0
1	22072002	76	High	1.5	Precise	1	9	18	13	31.8	77.3	20.8	13	18	9	20.8	77.3	31.8	1	0.909	0.001	R	9	31.8	249.369	250.115	251.024	251.026	0
1	22072002	77	High	1.5	Precise	1	16	18	6	49.8	77.3	2.2	6	18	16	2.2	77.3	49.8	2	0.417	0.001	D	18	77.3	251.529	253.302	253.720	253.722	0
1	22072002	78	High	1.5	Precise	1	9	14	12	31.8	55.2	28.0	9	14	12	31.8	55.2	28.0	1	0.922	0.000	L	9	31.8	254.225	255.325	256.248	256.250	0
1	22072002	79	High	1.5	Precise	1	9	18	7	31.8	77.3	8.8	9	7	18	31.8	8.8	77.3	2	0.539	0.000	R	18	77.3	256.753	259.332	259.871	259.874	0
1	22072002	80	High	1.5	Vague	2	14	18	19	55.2	77.3	7.0	19	18	14	7.0	77.3	55.2	2	0.736	0.001	D	18	77.3	260.377	262.744	263.480	263.482	0
1	22072002	81	High	1.5	Vague	2	9	14	30	31.8	55.2	26.5	30	9	14	26.5	31.8	55.2	1	0.854	0.000	D	9	31.8	263.986	266.089	266.944	266.946	0
1	22072002	82	High	1.5	Vague	2	9	15	24	31.8	47.1	1.9	15	24	9	47.1	1.9	31.8	1	0.797	0.000	R	9	31.8	267.449	269.419	270.216	270.218	0
1	22072002	83	High	1.5	Vague	2	15	16	30	47.1	49.8	26.5	16	30	15	49.8	26.5	47.1	2	1.266	0.000	L	16	49.8	270.720	272.213	273.479	273.482	0
1	22072002	84	High	1.5	Precise	1	9	15	13	31.8	47.1	20.8	15	13	9	47.1	20.8	31.8	1	0.814	0.000	R	9	31.8	273.986	276.922	277.736	277.738	0
1	22072002	85	High	1.5	Vague	2	9	18	19	31.8	77.3	7.0	18	9	19	77.3	31.8	7.0	2	0.681	0.000	L	18	77.3	278.241	280.175	280.855	280.858	0
1	22072002	86	High	1.5	Vague	2	15	17	36	47.1	71.7	22.2	15	36	17	47.1	22.2	71.7	2	0.568	0.000	R	17	71.7	281.360	282.479	283.047	283.050	0
1	22072002	87	High	1.5	Precise	1	16	14	13	49.8	55.2	20.8	14	16	13	55.2	49.8	20.8	1	1.149	0.000	D	16	49.8	283.553	284.955	286.104	286.106	0
1	22072002	88	High	1.5	Precise	1	14	17	10	55.2	71.7	29.7	17	14	10	71.7	55.2	29.7	2	0.645	0.000	L	17	71.7	286.609	288.474	289.120	289.122	0
1	22072002	89	High	1.5	Vague	2	9	17	36	31.8	71.7	22.2	9	36	17	31.8	22.2	71.7	2	0.522	0.000	R	17	71.7	289.625	292.277	292.800	292.802	0
1	22072002	90	High	1.5	Vague	2	15	14	23	47.1	55.2	1.5	14	23	15	55.2	1.5	47.1	2	1.309	0.000	L	14	55.2	293.306	296.050	297.359	297.362	0
1	22072002	91	High	1.5	Precise	1	9	18	12	31.8	77.3	28.0	12	9	18	28.0	31.8	77.3	2	0.584	0.000	R	18	77.3	297.864	299.584	300.167	300.170	0
1	22072002	92	High	1.5	Vague	2	9	16	36	31.8	49.8	22.2	16	36	9	49.8	22.2	31.8	1	0.921	0.000	R	9	31.8	300.672	303.502	304.424	304.426	0
1	22072002	93	High	1.5	Vague	2	9	15	36	31.8	47.1	22.2	9	36	15	31.8	22.2	47.1	NaN	NaN	NaN	NaN	NaN	NaN	304.930	306.220	NaN	307.709	1
1	22072002	94	High	1.5	Vague	2	15	17	32	47.1	71.7	23.5	17	32	15	71.7	23.5	47.1	2	0.717	0.000	L	17	71.7	309.712	311.466	312.183	312.187	0
1	22072002	95	High	1.5	Precise	1	17	18	13	71.7	77.3	20.8	18	17	13	77.3	71.7	20.8	2	0.619	0.000	L	18	77.3	312.690	314.596	315.215	315.218	0
1	22072002	96	High	1.5	Vague	2	15	17	19	47.1	71.7	7.0	15	17	19	47.1	71.7	7.0	2	0.797	0.000	D	17	71.7	315.720	316.243	317.040	317.042	0
1	22072002	97	High	1.5	Precise	1	9	17	12	31.8	71.7	28.0	17	9	12	71.7	31.8	28.0	2	0.571	0.000	L	17	71.7	317.545	319.861	320.431	320.434	0
1	22072002	98	High	1.5	Vague	2	15	14	19	47.1	55.2	7.0	15	19	14	47.1	7.0	55.2	3	0.966	0.001	D	19	7.0	320.937	322.633	323.600	323.602	0
1	22072002	99	High	1.5	Precise	1	16	17	13	49.8	71.7	20.8	16	13	17	49.8	20.8	71.7	2	0.493	0.000	R	17	71.7	324.105	325.378	325.871	325.874	0
1	22072002	100	High	1.5	Vague	2	14	17	36	55.2	71.7	22.2	36	14	17	22.2	55.2	71.7	2	0.550	0.000	R	17	71.7	326.376	329.218	329.768	329.770	0
1	22072002	101	High	1.5	Precise	1	16	14	7	49.8	55.2	8.8	7	16	14	8.8	49.8	55.2	1	1.148	0.001	D	16	49.8	330.273	331.500	332.648	332.650	0
1	22072002	102	High	1.5	Vague	2	17	18	19	71.7	77.3	7.0	19	17	18	7.0	71.7	77.3	2	1.049	0.001	R	18	77.3	333.152	333.759	334.808	334.810	0
1	22072002	103	High	1.5	Vague	2	15	18	24	47.1	77.3	1.9	18	24	15	77.3	1.9	47.1	2	0.701	0.000	L	18	77.3	335.312	336.827	337.528	337.530	0
1	22072002	104	High	1.5	Vague	2	9	18	32	31.8	77.3	23.5	9	32	18	31.8	23.5	77.3	2	0.489	0.000	R	18	77.3	338.032	338.647	339.136	339.138	0
1	22072002	105	High	1.5	Vague	2	15	14	30	47.1	55.2	26.5	14	30	15	55.2	26.5	47.1	1	1.400	0.000	R	15	47.1	339.641	340.695	342.095	342.098	0
1	22072002	106	High	1.5	Precise	1	9	15	7	31.8	47.1	8.8	15	9	7	47.1	31.8	8.8	1	0.836	0.000	D	9	31.8	342.600	343.172	344.008	344.010	0
1	22072002	107	High	1.5	Precise	1	15	17	3	47.1	71.7	3.2	17	15	3	71.7	47.1	3.2	2	0.567	0.001	L	17	71.7	344.513	346.721	347.288	347.290	0
1	22072002	108	High	1.5	Precise	1	15	16	10	47.1	49.8	29.7	16	15	10	49.8	47.1	29.7	3	0.885	0.001	R	10	29.7	347.793	349.155	350.040	350.042	0
1	22072002	109	High	1.5	Vague	2	15	17	23	47.1	71.7	1.5	23	17	15	1.5	71.7	47.1	2	0.874	0.000	D	17	71.7	350.544	351.214	352.088	352.090	0
1	22072002	110	High	1.5	Precise	1	15	18	7	47.1	77.3	8.8	18	15	7	77.3	47.1	8.8	2	0.566	0.000	L	18	77.3	352.593	354.625	355.191	355.194	0
1	22072002	111	High	1.5	Vague	2	14	18	24	55.2	77.3	1.9	24	14	18	1.9	55.2	77.3	2	0.415	0.001	R	18	77.3	355.696	358.472	358.888	358.890	0
1	22072002	112	High	1.5	Precise	1	15	18	3	47.1	77.3	3.2	15	18	3	47.1	77.3	3.2	2	0.573	0.000	D	18	77.3	359.392	360.331	360.904	360.906	0
1	22072002	113	High	1.5	Vague	2	9	15	23	31.8	47.1	1.5	15	23	9	47.1	1.5	31.8	1	0.975	0.000	R	9	31.8	361.410	364.064	365.040	365.042	0
1	22072002	114	High	1.5	Precise	1	9	15	12	31.8	47.1	28.0	15	12	9	47.1	28.0	31.8	1	0.806	0.001	R	9	31.8	365.544	368.241	369.048	369.050	0
1	22072002	115	High	1.5	Precise	1	9	18	3	31.8	77.3	3.2	3	18	9	3.2	77.3	31.8	2	1.038	0.000	D	18	77.3	369.553	372.442	373.479	373.482	0
1	22072002	116	High	1.5	Precise	1	9	16	3	31.8	49.8	3.2	9	16	3	31.8	49.8	3.2	1	1.122	0.000	L	9	31.8	373.985	374.949	376.071	376.074	0
1	22072002	117	High	1.5	Vague	2	14	17	30	55.2	71.7	26.5	14	30	17	55.2	26.5	71.7	2	0.622	0.000	R	17	71.7	376.576	378.018	378.639	378.642	0
1	22072002	118	High	1.5	Vague	2	15	18	19	47.1	77.3	7.0	18	19	15	77.3	7.0	47.1	2	0.527	0.000	L	18	77.3	379.145	381.849	382.376	382.378	0
1	22072002	119	High	1.5	Vague	2	16	14	23	49.8	55.2	1.5	23	16	14	1.5	49.8	55.2	1	0.864	0.000	D	16	49.8	382.881	385.759	386.623	386.626	0
1	22072002	120	High	1.5	Vague	2	16	18	24	49.8	77.3	1.9	16	18	24	49.8	77.3	1.9	2	0.559	0.001	D	18	77.3	387.129	387.688	388.248	388.250	0
1	22072002	121	High	1.5	Vague	2	16	18	19	49.8	77.3	7.0	16	18	19	49.8	77.3	7.0	2	0.618	0.000	D	18	77.3	402.979	403.949	404.567	404.570	0
1	22072002	122	High	1.5	Precise	1	16	17	3	49.8	71.7	3.2	3	16	17	3.2	49.8	71.7	2	0.717	0.001	R	17	71.7	405.072	405.730	406.448	406.451	0
1	22072002	123	High	1.5	Vague	2	9	17	24	31.8	71.7	1.9	17	24	9	71.7	1.9	31.8	2	0.480	0.001	L	17	71.7	406.953	409.495	409.976	409.978	0
1	22072002	124	High	1.5	Precise	1	9	14	13	31.8	55.2	20.8	13	14	9	20.8	55.2	31.8	1	0.883	0.001	R	9	31.8	410.482	412.805	413.688	413.690	0
1	22072002	125	High	1.5	Precise	1	15	16	7	47.1	49.8	8.8	16	15	7	49.8	47.1	8.8	2	0.936	0.000	L	16	49.8	414.192	415.927	416.863	416.866	0
1	22072002	126	High	1.5	Precise	1	15	17	6	47.1	71.7	2.2	6	17	15	2.2	71.7	47.1	2	0.786	0.000	D	17	71.7	417.368	418.173	418.960	418.962	0
1	22072002	127	High	1.5	Vague	2	9	17	23	31.8	71.7	1.5	17	23	9	71.7	1.5	31.8	2	0.463	0.000	L	17	71.7	419.465	421.872	422.335	422.338	0
1	22072002	128	High	1.5	Precise	1	15	14	3	47.1	55.2	3.2	14	15	3	55.2	47.1	3.2	3	1.120	0.000	R	3	3.2	422.840	424.983	426.104	426.106	0
1	22072002	129	High	1.5	Precise	1	16	17	7	49.8	71.7	8.8	16	7	17	49.8	8.8	71.7	2	0.777	0.000	R	17	71.7	426.608	428.247	429.023	429.026	0
1	22072002	130	High	1.5	Precise	1	9	14	10	31.8	55.2	29.7	9	10	14	31.8	29.7	55.2	1	1.218	0.000	L	9	31.8	429.529	431.061	432.279	432.282	0
1	22072002	131	High	1.5	Precise	1	15	16	13	47.1	49.8	20.8	16	15	13	49.8	47.1	20.8	2	1.079	0.000	L	16	49.8	432.785	435.720	436.799	436.802	0
1	22072002	132	High	1.5	Precise	1	16	17	10	49.8	71.7	29.7	10	17	16	29.7	71.7	49.8	2	0.889	0.001	D	17	71.7	437.304	439.975	440.864	440.866	0
1	22072002	133	High	1.5	Vague	2	16	18	30	49.8	77.3	26.5	18	16	30	77.3	49.8	26.5	2	0.910	0.000	L	18	77.3	441.368	442.401	443.311	443.314	0
1	22072002	134	High	1.5	Precise	1	14	18	3	55.2	77.3	3.2	18	3	14	77.3	3.2	55.2	2	0.626	0.000	L	18	77.3	443.816	444.894	445.519	445.522	0
1	22072002	135	High	1.5	Vague	2	9	16	19	31.8	49.8	7.0	16	9	19	49.8	31.8	7.0	1	1.088	0.001	D	9	31.8	446.025	447.063	448.151	448.154	0
1	22072002	136	High	1.5	Precise	1	9	17	10	31.8	71.7	29.7	9	17	10	31.8	71.7	29.7	2	0.897	0.000	D	17	71.7	448.657	449.783	450.679	450.682	0
1	22072002	137	High	1.5	Precise	1	14	17	13	55.2	71.7	20.8	13	14	17	20.8	55.2	71.7	2	0.548	0.001	R	17	71.7	451.185	453.820	454.368	454.370	0
1	22072002	138	High	1.5	Precise	1	9	16	7	31.8	49.8	8.8	9	16	7	31.8	49.8	8.8	2	1.214	0.000	D	16	49.8	454.873	456.593	457.807	457.810	0
1	22072002	139	High	1.5	Precise	1	16	14	3	49.8	55.2	3.2	16	14	3	49.8	55.2	3.2	1	1.015	0.000	L	16	49.8	458.312	460.809	461.823	461.826	0
1	22072002	140	High	1.5	Precise	1	9	18	10	31.8	77.3	29.7	18	10	9	77.3	29.7	31.8	2	0.713	0.000	L	18	77.3	462.329	464.599	465.311	465.314	0
1	22072002	141	High	1.5	Vague	2	17	18	36	71.7	77.3	22.2	17	36	18	71.7	22.2	77.3	2	1.076	0.000	R	18	77.3	465.816	467.900	468.976	468.978	0
1	22072002	142	High	1.5	Vague	2	9	16	24	31.8	49.8	1.9	16	9	24	49.8	31.8	1.9	1	1.096	0.000	D	9	31.8	469.480	471.919	473.015	473.018	0
1	22072002	143	High	1.5	Vague	2	16	17	23	49.8	71.7	1.5	23	17	16	1.5	71.7	49.8	2	0.599	0.000	D	17	71.7	473.520	476.184	476.783	476.786	0
1	22072002	144	High	1.5	Vague	2	9	16	23	31.8	49.8	1.5	16	9	23	49.8	31.8	1.5	1	0.835	0.000	D	9	31.8	477.288	478.540	479.375	479.378	0
1	22072002	145	High	1.5	Precise	1	17	18	3	71.7	77.3	3.2	3	18	17	3.2	77.3	71.7	1	0.579	0.000	R	17	71.7	479.881	481.140	481.719	481.722	0
1	22072002	146	High	1.5	Precise	1	15	18	13	47.1	77.3	20.8	13	15	18	20.8	47.1	77.3	2	0.514	0.000	R	18	77.3	482.224	483.037	483.551	483.554	0
1	22072002	147	High	1.5	Vague	2	15	17	30	47.1	71.7	26.5	17	15	30	71.7	47.1	26.5	2	0.456	0.000	L	17	71.7	484.057	484.935	485.391	485.395	0
1	22072002	148	High	1.5	Precise	1	15	18	12	47.1	77.3	28.0	15	12	18	47.1	28.0	77.3	2	0.401	0.001	R	18	77.3	485.897	486.887	487.288	487.290	0
1	22072002	149	High	1.5	Vague	2	15	14	24	47.1	55.2	1.9	15	24	14	47.1	1.9	55.2	2	1.334	0.000	R	14	55.2	487.792	489.161	490.495	490.498	0
1	22072002	150	High	1.5	Vague	2	16	14	19	49.8	55.2	7.0	14	16	19	55.2	49.8	7.0	1	1.069	0.001	D	16	49.8	491.000	492.963	494.031	494.034	0
1	22072002	151	High	1.5	Vague	2	16	14	32	49.8	55.2	23.5	32	16	14	23.5	49.8	55.2	1	0.871	0.000	D	16	49.8	494.537	495.280	496.151	496.154	0
1	22072002	152	High	1.5	Vague	2	17	18	32	71.7	77.3	23.5	17	32	18	71.7	23.5	77.3	2	0.771	0.000	R	18	77.3	496.657	498.364	499.135	499.138	0
1	22072002	153	High	1.5	Vague	2	9	18	30	31.8	77.3	26.5	30	9	18	26.5	31.8	77.3	2	0.442	0.000	R	18	77.3	499.640	502.229	502.672	502.674	0
1	22072002	154	High	1.5	Precise	1	9	17	7	31.8	71.7	8.8	7	17	9	8.8	71.7	31.8	2	1.315	0.000	D	17	71.7	503.177	505.964	507.280	507.282	0
1	22072002	155	High	1.5	Precise	1	15	16	6	47.1	49.8	2.2	15	6	16	47.1	2.2	49.8	NaN	NaN	NaN	NaN	NaN	NaN	507.785	510.152	NaN	511.643	1
1	22072002	156	High	1.5	Precise	1	9	14	3	31.8	55.2	3.2	3	14	9	3.2	55.2	31.8	1	1.195	0.001	R	9	31.8	513.646	514.325	515.520	515.522	0
1	22072002	157	High	1.5	Vague	2	15	18	32	47.1	77.3	23.5	32	15	18	23.5	47.1	77.3	2	0.800	0.000	R	18	77.3	516.025	516.720	517.519	517.522	0
1	22072002	158	High	1.5	Precise	1	9	16	6	31.8	49.8	2.2	9	16	6	31.8	49.8	2.2	2	1.123	0.001	D	16	49.8	518.025	519.293	520.416	520.418	0
1	22072002	159	High	1.5	Vague	2	9	17	30	31.8	71.7	26.5	17	30	9	71.7	26.5	31.8	2	0.897	0.000	L	17	71.7	520.920	522.542	523.439	523.442	0
1	22072002	160	High	1.5	Precise	1	14	17	3	55.2	71.7	3.2	14	17	3	55.2	71.7	3.2	2	0.862	0.001	D	17	71.7	523.945	524.690	525.551	525.554	0
1	22072002	161	High	1.5	Precise	1	16	17	6	49.8	71.7	2.2	6	16	17	2.2	49.8	71.7	2	0.507	0.001	R	17	71.7	526.057	527.556	528.063	528.066	0
1	22072002	162	High	1.5	Precise	1	16	17	12	49.8	71.7	28.0	12	16	17	28.0	49.8	71.7	2	0.551	0.000	R	17	71.7	528.568	530.600	531.151	531.154	0
1	22072002	163	High	1.5	Vague	2	9	15	30	31.8	47.1	26.5	15	9	30	47.1	31.8	26.5	1	1.215	0.000	D	9	31.8	531.657	534.649	535.863	535.866	0
1	22072002	164	High	1.5	Vague	2	16	14	30	49.8	55.2	26.5	16	30	14	49.8	26.5	55.2	1	1.200	0.001	L	16	49.8	536.368	538.375	539.575	539.578	0
1	22072002	165	High	1.5	Precise	1	16	18	10	49.8	77.3	29.7	10	18	16	29.7	77.3	49.8	2	0.576	0.000	D	18	77.3	540.081	541.727	542.303	542.306	0
1	22072002	166	High	1.5	Vague	2	9	17	19	31.8	71.7	7.0	19	17	9	7.0	71.7	31.8	2	0.654	0.000	D	17	71.7	542.808	544.145	544.799	544.802	0
1	22072002	167	High	1.5	Precise	1	15	14	12	47.1	55.2	28.0	15	12	14	47.1	28.0	55.2	2	1.316	0.000	R	14	55.2	545.305	548.099	549.415	549.418	0
1	22072002	168	High	1.5	Precise	1	9	15	10	31.8	47.1	29.7	10	15	9	29.7	47.1	31.8	NaN	NaN	NaN	NaN	NaN	NaN	549.921	551.431	NaN	552.917	1
1	22072002	169	High	1.5	Vague	2	17	18	23	71.7	77.3	1.5	23	18	17	1.5	77.3	71.7	2	0.530	0.000	D	18	77.3	554.920	556.253	556.783	556.786	0
1	22072002	170	High	1.5	Precise	1	15	14	10	47.1	55.2	29.7	15	14	10	47.1	55.2	29.7	3	0.855	0.001	R	10	29.7	557.289	559.296	560.151	560.154	0
1	22072002	171	High	1.5	Precise	1	14	17	12	55.2	71.7	28.0	14	12	17	55.2	28.0	71.7	2	0.566	0.001	R	17	71.7	560.657	562.842	563.408	563.410	0
1	22072002	172	High	1.5	Precise	1	15	16	3	47.1	49.8	3.2	15	16	3	47.1	49.8	3.2	2	0.972	0.001	D	16	49.8	563.912	566.676	567.648	567.650	0
1	22072002	173	High	1.5	Vague	2	15	17	24	47.1	71.7	1.9	24	17	15	1.9	71.7	47.1	2	0.555	0.000	D	17	71.7	568.153	568.797	569.351	569.354	0
1	22072002	174	High	1.5	Precise	1	15	14	6	47.1	55.2	2.2	14	15	6	55.2	47.1	2.2	1	1.260	0.000	D	15	47.1	569.858	571.523	572.783	572.786	0
1	22072002	175	High	1.5	Precise	1	14	17	7	55.2	71.7	8.8	14	7	17	55.2	8.8	71.7	2	0.677	0.000	R	17	71.7	573.289	574.946	575.623	575.626	0
1	22072002	176	High	1.5	Precise	1	17	18	7	71.7	77.3	8.8	17	7	18	71.7	8.8	77.3	2	0.466	0.000	R	18	77.3	576.130	578.766	579.231	579.234	0
1	22072002	177	High	1.5	Precise	1	9	15	3	31.8	47.1	3.2	3	9	15	3.2	31.8	47.1	1	0.839	0.000	D	9	31.8	579.737	581.296	582.135	582.138	0
1	22072002	178	High	1.5	Precise	1	15	18	6	47.1	77.3	2.2	18	6	15	77.3	2.2	47.1	2	0.614	0.000	L	18	77.3	582.641	583.737	584.351	584.354	0
1	22072002	179	High	1.5	Vague	2	15	16	19	47.1	49.8	7.0	15	19	16	47.1	7.0	49.8	2	0.895	0.000	R	16	49.8	584.856	586.368	587.263	587.266	0
1	22072002	180	High	1.5	Vague	2	9	18	23	31.8	77.3	1.5	9	23	18	31.8	1.5	77.3	2	0.562	0.000	R	18	77.3	587.768	590.134	590.695	590.698	0
1	22072002	181	Low	10.0	Vague	2	9	17	21	31.8	71.7	1.7	17	9	21	71.7	31.8	1.7	2	1.825	0.001	L	17	71.7	602.810	605.695	607.519	607.522	0
1	22072002	182	Low	10.0	Precise	1	14	18	4	55.2	77.3	22.6	4	14	18	22.6	55.2	77.3	2	1.574	0.000	R	18	77.3	608.025	609.785	611.359	611.362	0
1	22072002	183	Low	10.0	Precise	1	16	14	1	49.8	55.2	4.4	16	14	1	49.8	55.2	4.4	1	0.866	0.000	L	16	49.8	611.865	614.109	614.975	614.978	0
1	22072002	184	Low	10.0	Vague	2	15	17	26	47.1	71.7	25.6	17	26	15	71.7	25.6	47.1	2	0.596	0.001	L	17	71.7	615.481	617.588	618.183	618.186	0
1	22072002	185	Low	10.0	Vague	2	9	15	21	31.8	47.1	1.7	9	15	21	31.8	47.1	1.7	1	1.288	0.000	L	9	31.8	618.688	620.759	622.047	622.050	0
1	22072002	186	Low	10.0	Vague	2	9	15	26	31.8	47.1	25.6	9	26	15	31.8	25.6	47.1	1	1.034	0.001	L	9	31.8	622.553	623.101	624.135	624.138	0
1	22072002	187	Low	10.0	Precise	1	15	14	11	47.1	55.2	20.8	14	15	11	55.2	47.1	20.8	2	4.744	0.001	L	14	55.2	624.640	625.855	630.599	630.602	0
1	22072002	188	Low	10.0	Vague	2	9	17	22	31.8	71.7	22.7	22	17	9	22.7	71.7	31.8	2	1.591	0.001	D	17	71.7	631.106	632.257	633.847	633.850	0
1	22072002	189	Low	10.0	Precise	1	15	14	5	47.1	55.2	3.0	14	5	15	55.2	3.0	47.1	2	2.646	0.001	L	14	55.2	634.353	637.345	639.991	639.994	0
1	22072002	190	Low	10.0	Precise	1	17	18	8	71.7	77.3	28.3	17	18	8	71.7	77.3	28.3	1	0.888	0.000	L	17	71.7	640.497	642.303	643.191	643.194	0
1	22072002	191	Low	10.0	Precise	1	9	17	2	31.8	71.7	2.2	9	2	17	31.8	2.2	71.7	2	1.845	0.000	R	17	71.7	643.697	645.082	646.927	646.930	0
1	22072002	192	Low	10.0	Precise	1	16	14	2	49.8	55.2	2.2	14	16	2	55.2	49.8	2.2	1	1.272	0.000	D	16	49.8	647.432	648.743	650.015	650.018	0
1	22072002	193	Low	10.0	Vague	2	15	17	22	47.1	71.7	22.7	22	15	17	22.7	47.1	71.7	2	1.000	0.000	R	17	71.7	650.521	651.975	652.975	652.978	0
1	22072002	194	Low	10.0	Vague	2	9	15	20	31.8	47.1	2.3	20	9	15	2.3	31.8	47.1	1	1.377	0.000	D	9	31.8	653.481	654.390	655.767	655.770	0
1	22072002	195	Low	10.0	Precise	1	14	18	2	55.2	77.3	2.2	2	18	14	2.2	77.3	55.2	2	0.656	0.000	D	18	77.3	656.272	658.287	658.943	658.946	0
1	22072002	196	Low	10.0	Precise	1	16	18	4	49.8	77.3	22.6	16	4	18	49.8	22.6	77.3	2	0.626	0.001	R	18	77.3	659.448	660.422	661.047	661.050	0
1	22072002	197	Low	10.0	Vague	2	15	18	22	47.1	77.3	22.7	18	22	15	77.3	22.7	47.1	2	1.104	0.001	L	18	77.3	661.552	662.111	663.215	663.219	0
1	22072002	198	Low	10.0	Precise	1	14	17	4	55.2	71.7	22.6	14	17	4	55.2	71.7	22.6	2	0.702	0.000	D	17	71.7	663.721	664.386	665.087	665.090	0
1	22072002	199	Low	10.0	Vague	2	16	18	20	49.8	77.3	2.3	18	16	20	77.3	49.8	2.3	2	0.468	0.000	L	18	77.3	665.594	668.411	668.879	668.881	0
1	22072002	200	Low	10.0	Vague	2	16	18	28	49.8	77.3	26.9	28	18	16	26.9	77.3	49.8	2	0.693	0.000	D	18	77.3	669.384	670.434	671.127	671.130	0
1	22072002	201	Low	10.0	Precise	1	16	14	8	49.8	55.2	28.3	8	14	16	28.3	55.2	49.8	1	1.272	0.000	R	16	49.8	671.633	672.920	674.191	674.194	0
1	22072002	202	Low	10.0	Precise	1	14	18	5	55.2	77.3	3.0	5	14	18	3.0	55.2	77.3	2	0.714	0.001	R	18	77.3	674.697	675.366	676.079	676.082	0
1	22072002	203	Low	10.0	Vague	2	15	17	31	47.1	71.7	21.5	17	31	15	71.7	21.5	47.1	2	0.597	0.001	L	17	71.7	676.584	678.978	679.575	679.578	0
1	22072002	204	Low	10.0	Vague	2	15	14	31	47.1	55.2	21.5	14	15	31	55.2	47.1	21.5	2	1.324	0.001	L	14	55.2	680.081	682.531	683.855	683.858	0
1	22072002	205	Low	10.0	Vague	2	15	14	22	47.1	55.2	22.7	14	22	15	55.2	22.7	47.1	2	1.842	0.001	L	14	55.2	684.360	685.094	686.935	686.938	0
1	22072002	206	Low	10.0	Vague	2	9	14	21	31.8	55.2	1.7	9	14	21	31.8	55.2	1.7	1	0.836	0.000	L	9	31.8	687.441	689.563	690.399	690.402	0
1	22072002	207	Low	10.0	Precise	1	14	17	2	55.2	71.7	2.2	17	2	14	71.7	2.2	55.2	2	0.703	0.000	L	17	71.7	690.905	693.880	694.583	694.586	0
1	22072002	208	Low	10.0	Vague	2	9	14	31	31.8	55.2	21.5	14	9	31	55.2	31.8	21.5	1	1.930	0.001	D	9	31.8	695.088	697.405	699.335	699.338	0
1	22072002	209	Low	10.0	Vague	2	15	14	20	47.1	55.2	2.3	20	15	14	2.3	47.1	55.2	2	2.239	0.000	R	14	55.2	699.841	700.560	702.799	702.802	0
1	22072002	210	Low	10.0	Vague	2	17	18	28	71.7	77.3	26.9	18	17	28	77.3	71.7	26.9	1	0.827	0.000	D	17	71.7	703.305	704.332	705.159	705.162	0
1	22072002	211	Low	10.0	Vague	2	15	18	20	47.1	77.3	2.3	20	18	15	2.3	77.3	47.1	2	0.804	0.000	D	18	77.3	705.665	706.610	707.415	707.418	0
1	22072002	212	Low	10.0	Vague	2	16	17	22	49.8	71.7	22.7	16	17	22	49.8	71.7	22.7	2	0.676	0.000	D	17	71.7	707.920	709.219	709.895	709.898	0
1	22072002	213	Low	10.0	Vague	2	16	18	21	49.8	77.3	1.7	21	16	18	1.7	49.8	77.3	2	0.439	0.000	R	18	77.3	710.401	712.128	712.567	712.570	0
1	22072002	214	Low	10.0	Precise	1	9	14	5	31.8	55.2	3.0	14	5	9	55.2	3.0	31.8	1	2.339	0.001	R	9	31.8	713.072	715.396	717.735	717.738	0
1	22072002	215	Low	10.0	Vague	2	16	17	21	49.8	71.7	1.7	21	16	17	1.7	49.8	71.7	2	1.029	0.000	R	17	71.7	718.241	719.618	720.647	720.650	0
1	22072002	216	Low	10.0	Vague	2	16	14	31	49.8	55.2	21.5	14	31	16	55.2	21.5	49.8	2	2.192	0.000	L	14	55.2	721.153	722.264	724.455	724.458	0
1	22072002	217	Low	10.0	Vague	2	16	17	28	49.8	71.7	26.9	17	28	16	71.7	26.9	49.8	2	1.119	0.000	L	17	71.7	724.960	727.344	728.463	728.466	0
1	22072002	218	Low	10.0	Vague	2	16	14	22	49.8	55.2	22.7	16	22	14	49.8	22.7	55.2	1	3.205	0.000	L	16	49.8	728.968	731.314	734.519	734.522	0
1	22072002	219	Low	10.0	Precise	1	15	18	11	47.1	77.3	20.8	11	18	15	20.8	77.3	47.1	2	1.358	0.000	D	18	77.3	735.024	737.753	739.111	739.113	0
1	22072002	220	Low	10.0	Precise	1	15	18	1	47.1	77.3	4.4	18	1	15	77.3	4.4	47.1	2	0.942	0.000	L	18	77.3	739.616	740.769	741.711	741.713	0
1	22072002	221	Low	10.0	Precise	1	9	18	11	31.8	77.3	20.8	18	11	9	77.3	20.8	31.8	2	0.500	0.000	L	18	77.3	742.217	744.691	745.191	745.193	0
1	22072002	222	Low	10.0	Precise	1	17	18	1	71.7	77.3	4.4	17	18	1	71.7	77.3	4.4	2	0.982	0.001	D	18	77.3	745.697	748.538	749.519	749.522	0
1	22072002	223	Low	10.0	Vague	2	14	17	21	55.2	71.7	1.7	21	14	17	1.7	55.2	71.7	2	0.973	0.001	R	17	71.7	750.024	750.763	751.735	751.738	0
1	22072002	224	Low	10.0	Precise	1	15	17	5	47.1	71.7	3.0	5	17	15	3.0	71.7	47.1	2	0.848	0.000	D	17	71.7	752.240	753.639	754.487	754.490	0
1	22072002	225	Low	10.0	Vague	2	16	14	21	49.8	55.2	1.7	14	21	16	55.2	1.7	49.8	1	1.699	0.001	R	16	49.8	754.992	756.476	758.175	758.178	0
1	22072002	226	Low	10.0	Vague	2	9	17	26	31.8	71.7	25.6	17	26	9	71.7	25.6	31.8	2	1.189	0.000	L	17	71.7	758.680	761.449	762.639	762.642	0
1	22072002	227	Low	10.0	Precise	1	15	14	2	47.1	55.2	2.2	15	14	2	47.1	55.2	2.2	2	3.184	0.001	D	14	55.2	763.145	764.752	767.935	767.938	0
1	22072002	228	Low	10.0	Vague	2	9	16	28	31.8	49.8	26.9	9	16	28	31.8	49.8	26.9	2	1.671	0.000	D	16	49.8	768.441	771.192	772.863	772.866	0
1	22072002	229	Low	10.0	Vague	2	17	18	22	71.7	77.3	22.7	22	17	18	22.7	71.7	77.3	2	0.886	0.000	R	18	77.3	773.368	775.017	775.903	775.905	0
1	22072002	230	Low	10.0	Vague	2	15	18	21	47.1	77.3	1.7	15	21	18	47.1	1.7	77.3	2	0.574	0.001	R	18	77.3	776.408	779.073	779.647	779.649	0
1	22072002	231	Low	10.0	Precise	1	14	17	5	55.2	71.7	3.0	17	14	5	71.7	55.2	3.0	2	1.012	0.000	L	17	71.7	780.152	783.027	784.039	784.041	0
1	22072002	232	Low	10.0	Precise	1	15	17	1	47.1	71.7	4.4	1	17	15	4.4	71.7	47.1	2	1.255	0.001	D	17	71.7	784.545	785.544	786.799	786.803	0
1	22072002	233	Low	10.0	Vague	2	14	18	28	55.2	77.3	26.9	14	18	28	55.2	77.3	26.9	2	0.583	0.000	D	18	77.3	787.305	789.632	790.215	790.217	0
1	22072002	234	Low	10.0	Precise	1	9	16	4	31.8	49.8	22.6	16	4	9	49.8	22.6	31.8	2	2.760	0.001	L	16	49.8	790.720	792.767	795.527	795.530	0
1	22072002	235	Low	10.0	Vague	2	17	18	21	71.7	77.3	1.7	17	18	21	71.7	77.3	1.7	2	0.567	0.000	D	18	77.3	796.032	797.832	798.399	798.402	0
1	22072002	236	Low	10.0	Vague	2	15	16	28	47.1	49.8	26.9	16	28	15	49.8	26.9	47.1	2	1.289	0.001	L	16	49.8	798.905	800.623	801.911	801.914	0
1	22072002	237	Low	10.0	Precise	1	14	17	8	55.2	71.7	28.3	17	14	8	71.7	55.2	28.3	2	1.148	0.000	L	17	71.7	802.416	803.027	804.175	804.178	0
1	22072002	238	Low	10.0	Vague	2	9	18	28	31.8	77.3	26.9	28	18	9	26.9	77.3	31.8	2	0.675	0.000	D	18	77.3	804.680	807.244	807.919	807.922	0
1	22072002	239	Low	10.0	Vague	2	15	18	26	47.1	77.3	25.6	15	26	18	47.1	25.6	77.3	2	0.566	0.000	R	18	77.3	808.424	811.105	811.671	811.674	0
1	22072002	240	Low	10.0	Precise	1	15	16	8	47.1	49.8	28.3	8	15	16	28.3	47.1	49.8	2	1.384	0.001	R	16	49.8	812.176	813.415	814.799	814.802	0
1	22072002	241	Low	10.0	Precise	1	16	14	5	49.8	55.2	3.0	5	16	14	3.0	49.8	55.2	1	1.032	0.000	D	16	49.8	820.883	822.935	823.967	823.970	0
1	22072002	242	Low	10.0	Precise	1	16	18	1	49.8	77.3	4.4	16	18	1	49.8	77.3	4.4	2	0.541	0.001	D	18	77.3	824.473	826.179	826.719	826.722	0
1	22072002	243	Low	10.0	Precise	1	15	17	4	47.1	71.7	22.6	15	17	4	47.1	71.7	22.6	2	0.556	0.000	D	17	71.7	827.224	828.675	829.231	829.234	0
1	22072002	244	Low	10.0	Vague	2	14	17	26	55.2	71.7	25.6	26	17	14	25.6	71.7	55.2	2	0.908	0.000	D	17	71.7	829.737	831.899	832.807	832.809	0
1	22072002	245	Low	10.0	Precise	1	9	17	8	31.8	71.7	28.3	9	17	8	31.8	71.7	28.3	2	0.572	0.000	D	17	71.7	833.312	834.123	834.695	834.697	0
1	22072002	246	Low	10.0	Vague	2	17	18	26	71.7	77.3	25.6	26	18	17	25.6	77.3	71.7	2	0.449	0.000	D	18	77.3	835.200	836.598	837.047	837.049	0
1	22072002	247	Low	10.0	Vague	2	9	16	31	31.8	49.8	21.5	9	31	16	31.8	21.5	49.8	2	1.250	0.000	R	16	49.8	837.553	838.581	839.831	839.833	0
1	22072002	248	Low	10.0	Vague	2	9	15	31	31.8	47.1	21.5	15	9	31	47.1	31.8	21.5	1	1.869	0.000	D	9	31.8	840.336	843.226	845.095	845.097	0
1	22072002	249	Low	10.0	Vague	2	15	16	20	47.1	49.8	2.3	16	15	20	49.8	47.1	2.3	2	1.387	0.000	L	16	49.8	845.600	846.900	848.287	848.289	0
1	22072002	250	Low	10.0	Vague	2	14	17	22	55.2	71.7	22.7	14	17	22	55.2	71.7	22.7	2	0.630	0.000	D	17	71.7	848.793	851.457	852.087	852.090	0
1	22072002	251	Low	10.0	Vague	2	9	18	22	31.8	77.3	22.7	9	22	18	31.8	22.7	77.3	2	0.585	0.000	R	18	77.3	852.593	854.046	854.631	854.633	0
1	22072002	252	Low	10.0	Precise	1	9	16	1	31.8	49.8	4.4	9	1	16	31.8	4.4	49.8	2	2.057	0.001	R	16	49.8	855.136	855.998	858.055	858.058	0
1	22072002	253	Low	10.0	Precise	1	9	15	8	31.8	47.1	28.3	8	9	15	28.3	31.8	47.1	1	1.310	0.000	D	9	31.8	858.560	860.801	862.111	862.114	0
1	22072002	254	Low	10.0	Vague	2	17	18	20	71.7	77.3	2.3	18	20	17	77.3	2.3	71.7	2	1.144	0.000	L	18	77.3	862.617	863.487	864.631	864.633	0
1	22072002	255	Low	10.0	Precise	1	16	18	11	49.8	77.3	20.8	16	11	18	49.8	20.8	77.3	2	0.545	0.000	R	18	77.3	865.137	867.302	867.847	867.850	0
1	22072002	256	Low	10.0	Vague	2	15	14	26	47.1	55.2	25.6	14	26	15	55.2	25.6	47.1	2	1.937	0.000	L	14	55.2	868.352	869.702	871.639	871.641	0
1	22072002	257	Low	10.0	Vague	2	14	18	26	55.2	77.3	25.6	18	26	14	77.3	25.6	55.2	2	1.049	0.000	L	18	77.3	872.145	873.606	874.655	874.657	0
1	22072002	258	Low	10.0	Precise	1	9	17	11	31.8	71.7	20.8	17	11	9	71.7	20.8	31.8	2	0.921	0.000	L	17	71.7	875.160	877.158	878.079	878.081	0
1	22072002	259	Low	10.0	Vague	2	9	15	28	31.8	47.1	26.9	28	15	9	26.9	47.1	31.8	1	2.652	0.000	R	9	31.8	878.584	881.059	883.711	883.713	0
1	22072002	260	Low	10.0	Vague	2	9	15	22	31.8	47.1	22.7	9	22	15	31.8	22.7	47.1	1	1.324	0.000	L	9	31.8	884.216	886.451	887.775	887.777	0
1	22072002	261	Low	10.0	Vague	2	15	14	21	47.1	55.2	1.7	15	21	14	47.1	1.7	55.2	2	1.546	0.001	R	14	55.2	888.281	889.413	890.959	890.962	0
1	22072002	262	Low	10.0	Vague	2	16	18	26	49.8	77.3	25.6	16	18	26	49.8	77.3	25.6	2	0.633	0.001	D	18	77.3	891.465	892.422	893.055	893.058	0
1	22072002	263	Low	10.0	Vague	2	9	14	22	31.8	55.2	22.7	14	9	22	55.2	31.8	22.7	1	1.393	0.001	D	9	31.8	893.560	895.750	897.143	897.146	0
1	22072002	264	Low	10.0	Precise	1	9	17	4	31.8	71.7	22.6	4	17	9	22.6	71.7	31.8	2	1.216	0.000	D	17	71.7	897.649	898.367	899.583	899.585	0
1	22072002	265	Low	10.0	Precise	1	16	14	11	49.8	55.2	20.8	16	14	11	49.8	55.2	20.8	1	2.074	0.000	L	16	49.8	900.088	900.588	902.663	902.665	0
1	22072002	266	Low	10.0	Precise	1	14	17	11	55.2	71.7	20.8	17	14	11	71.7	55.2	20.8	2	0.777	0.000	L	17	71.7	903.169	904.910	905.687	905.689	0
1	22072002	267	Low	10.0	Vague	2	9	14	26	31.8	55.2	25.6	9	14	26	31.8	55.2	25.6	1	2.871	0.000	L	9	31.8	906.193	907.616	910.487	910.489	0
1	22072002	268	Low	10.0	Vague	2	9	14	28	31.8	55.2	26.9	9	14	28	31.8	55.2	26.9	1	0.892	0.000	L	9	31.8	910.993	913.522	914.415	914.417	0
1	22072002	269	Low	10.0	Precise	1	9	15	11	31.8	47.1	20.8	11	15	9	20.8	47.1	31.8	1	1.983	0.000	R	9	31.8	914.920	917.280	919.263	919.265	0
1	22072002	270	Low	10.0	Precise	1	9	17	5	31.8	71.7	3.0	9	5	17	31.8	3.0	71.7	2	1.556	0.000	R	17	71.7	919.768	920.739	922.295	922.298	0
1	22072002	271	Low	10.0	Vague	2	16	17	26	49.8	71.7	25.6	17	16	26	71.7	49.8	25.6	2	0.912	0.000	L	17	71.7	922.801	924.111	925.023	925.025	0
1	22072002	272	Low	10.0	Vague	2	9	18	21	31.8	77.3	1.7	9	21	18	31.8	1.7	77.3	2	0.660	0.000	R	18	77.3	925.529	926.994	927.655	927.658	0
1	22072002	273	Low	10.0	Precise	1	9	18	5	31.8	77.3	3.0	18	5	9	77.3	3.0	31.8	2	1.053	0.000	L	18	77.3	928.160	929.170	930.223	930.225	0
1	22072002	274	Low	10.0	Precise	1	15	14	1	47.1	55.2	4.4	15	14	1	47.1	55.2	4.4	2	1.911	0.000	D	14	55.2	930.728	932.936	934.847	934.849	0
1	22072002	275	Low	10.0	Precise	1	9	18	4	31.8	77.3	22.6	9	4	18	31.8	22.6	77.3	2	1.433	0.000	R	18	77.3	935.353	936.510	937.943	937.945	0
1	22072002	276	Low	10.0	Precise	1	9	16	8	31.8	49.8	28.3	8	16	9	28.3	49.8	31.8	2	1.725	0.000	D	16	49.8	938.448	940.514	942.239	942.241	0
1	22072002	277	Low	10.0	Vague	2	16	18	22	49.8	77.3	22.7	22	16	18	22.7	49.8	77.3	2	0.720	0.000	R	18	77.3	942.745	944.222	944.943	944.945	0
1	22072002	278	Low	10.0	Precise	1	9	15	1	31.8	47.1	4.4	9	15	1	31.8	47.1	4.4	1	1.287	0.001	L	9	31.8	945.448	947.832	949.119	949.122	0
1	22072002	279	Low	10.0	Vague	2	9	16	21	31.8	49.8	1.7	16	21	9	49.8	1.7	31.8	2	1.014	0.000	L	16	49.8	949.625	950.665	951.679	951.682	0
1	22072002	280	Low	10.0	Precise	1	17	18	2	71.7	77.3	2.2	18	17	2	77.3	71.7	2.2	2	0.587	0.000	L	18	77.3	952.184	954.012	954.599	954.601	0
1	22072002	281	Low	10.0	Vague	2	14	18	21	55.2	77.3	1.7	21	18	14	1.7	77.3	55.2	2	0.631	0.000	D	18	77.3	955.105	957.000	957.631	957.633	0
1	22072002	282	Low	10.0	Vague	2	15	16	21	47.1	49.8	1.7	16	15	21	49.8	47.1	1.7	2	0.911	0.000	L	16	49.8	958.137	959.440	960.351	960.353	0
1	22072002	283	Low	10.0	Precise	1	15	16	4	47.1	49.8	22.6	15	16	4	47.1	49.8	22.6	2	1.049	0.000	D	16	49.8	960.857	963.782	964.831	964.833	0
1	22072002	284	Low	10.0	Precise	1	16	17	1	49.8	71.7	4.4	1	17	16	4.4	71.7	49.8	2	1.144	0.000	D	17	71.7	965.337	965.919	967.063	967.065	0
1	22072002	285	Low	10.0	Vague	2	9	18	20	31.8	77.3	2.3	18	20	9	77.3	2.3	31.8	2	0.558	0.000	L	18	77.3	967.568	970.017	970.575	970.577	0
1	22072002	286	Low	10.0	Precise	1	16	18	8	49.8	77.3	28.3	8	16	18	28.3	49.8	77.3	2	0.546	0.000	R	18	77.3	971.080	973.853	974.399	974.401	0
1	22072002	287	Low	10.0	Precise	1	9	17	1	31.8	71.7	4.4	9	1	17	31.8	4.4	71.7	2	0.558	0.000	R	17	71.7	974.904	976.833	977.391	977.393	0
1	22072002	288	Low	10.0	Precise	1	16	17	8	49.8	71.7	28.3	17	8	16	71.7	28.3	49.8	2	0.565	0.001	L	17	71.7	977.896	979.259	979.823	979.826	0
1	22072002	289	Low	10.0	Vague	2	14	17	20	55.2	71.7	2.3	14	17	20	55.2	71.7	2.3	2	0.803	0.000	D	17	71.7	980.329	981.195	981.999	982.001	0
1	22072002	290	Low	10.0	Vague	2	15	17	28	47.1	71.7	26.9	15	28	17	47.1	26.9	71.7	2	0.586	0.000	R	17	71.7	982.504	984.645	985.231	985.233	0
1	22072002	291	Low	10.0	Precise	1	17	18	5	71.7	77.3	3.0	5	18	17	3.0	77.3	71.7	2	0.555	0.001	D	18	77.3	985.736	986.508	987.063	987.066	0
1	22072002	292	Low	10.0	Precise	1	9	15	5	31.8	47.1	3.0	15	9	5	47.1	31.8	3.0	1	1.436	0.000	D	9	31.8	987.569	990.275	991.711	991.713	0
1	22072002	293	Low	10.0	Precise	1	9	16	5	31.8	49.8	3.0	9	16	5	31.8	49.8	3.0	2	1.359	0.000	D	16	49.8	992.216	993.879	995.239	995.241	0
1	22072002	294	Low	10.0	Precise	1	15	18	2	47.1	77.3	2.2	2	15	18	2.2	47.1	77.3	2	0.661	0.000	R	18	77.3	995.745	996.409	997.071	997.074	0
1	22072002	295	Low	10.0	Precise	1	16	17	2	49.8	71.7	2.2	17	2	16	71.7	2.2	49.8	2	0.621	0.000	L	17	71.7	997.576	999.178	999.799	999.801	0
1	22072002	296	Low	10.0	Vague	2	15	16	22	47.1	49.8	22.7	22	15	16	22.7	47.1	49.8	2	1.265	0.000	R	16	49.8	1000.304	1001.126	1002.391	1002.393	0
1	22072002	297	Low	10.0	Vague	2	14	17	28	55.2	71.7	26.9	28	17	14	26.9	71.7	55.2	2	2.267	0.000	D	17	71.7	1002.896	1004.220	1006.487	1006.490	0
1	22072002	298	Low	10.0	Precise	1	15	16	2	47.1	49.8	2.2	15	16	2	47.1	49.8	2.2	2	1.005	0.000	D	16	49.8	1006.993	1009.034	1010.039	1010.041	0
1	22072002	299	Low	10.0	Vague	2	9	17	31	31.8	71.7	21.5	17	9	31	71.7	31.8	21.5	2	0.747	0.001	L	17	71.7	1010.544	1012.276	1013.023	1013.025	0
1	22072002	300	Low	10.0	Precise	1	15	18	5	47.1	77.3	3.0	15	5	18	47.1	3.0	77.3	2	0.670	0.000	R	18	77.3	1013.528	1014.240	1014.911	1014.913	0
1	22072002	301	Low	10.0	Precise	1	9	18	1	31.8	77.3	4.4	9	18	1	31.8	77.3	4.4	2	0.662	0.000	D	18	77.3	1019.575	1020.385	1021.047	1021.049	0
1	22072002	302	Low	10.0	Vague	2	14	17	31	55.2	71.7	21.5	14	31	17	55.2	21.5	71.7	2	0.615	0.000	R	17	71.7	1021.551	1023.759	1024.375	1024.377	0
1	22072002	303	Low	10.0	Vague	2	16	17	20	49.8	71.7	2.3	16	20	17	49.8	2.3	71.7	2	0.494	0.001	R	17	71.7	1024.880	1026.505	1026.999	1027.001	0
1	22072002	304	Low	10.0	Precise	1	16	18	5	49.8	77.3	3.0	18	5	16	77.3	3.0	49.8	2	0.551	0.000	L	18	77.3	1027.504	1028.832	1029.383	1029.385	0
1	22072002	305	Low	10.0	Vague	2	15	18	31	47.1	77.3	21.5	18	15	31	77.3	47.1	21.5	2	0.708	0.000	L	18	77.3	1029.889	1031.770	1032.479	1032.481	0
1	22072002	306	Low	10.0	Precise	1	9	14	4	31.8	55.2	22.6	4	9	14	22.6	31.8	55.2	2	1.543	0.000	R	14	55.2	1032.985	1035.392	1036.935	1036.937	0
1	22072002	307	Low	10.0	Vague	2	9	18	26	31.8	77.3	25.6	18	26	9	77.3	25.6	31.8	2	0.752	0.000	L	18	77.3	1037.440	1039.871	1040.623	1040.625	0
1	22072002	308	Low	10.0	Precise	1	9	15	2	31.8	47.1	2.2	2	15	9	2.2	47.1	31.8	1	1.142	0.001	R	9	31.8	1041.129	1042.506	1043.647	1043.649	0
1	22072002	309	Low	10.0	Vague	2	15	16	26	47.1	49.8	25.6	26	16	15	25.6	49.8	47.1	2	1.427	0.000	D	16	49.8	1044.153	1044.668	1046.095	1046.097	0
1	22072002	310	Low	10.0	Precise	1	17	18	4	71.7	77.3	22.6	18	4	17	77.3	22.6	71.7	1	0.657	0.001	R	17	71.7	1046.600	1049.422	1050.079	1050.081	0
1	22072002	311	Low	10.0	Precise	1	9	16	2	31.8	49.8	2.2	16	2	9	49.8	2.2	31.8	1	1.350	0.000	R	9	31.8	1050.584	1052.249	1053.599	1053.602	0
1	22072002	312	Low	10.0	Precise	1	14	17	1	55.2	71.7	4.4	1	14	17	4.4	55.2	71.7	2	1.643	0.000	R	17	71.7	1054.104	1055.844	1057.487	1057.489	0
1	22072002	313	Low	10.0	Vague	2	14	18	22	55.2	77.3	22.7	14	22	18	55.2	22.7	77.3	2	0.733	0.001	R	18	77.3	1057.992	1059.034	1059.767	1059.769	0
1	22072002	314	Low	10.0	Precise	1	9	15	4	31.8	47.1	22.6	4	15	9	22.6	47.1	31.8	1	1.219	0.000	R	9	31.8	1060.272	1062.948	1064.166	1064.169	0
1	22072002	315	Low	10.0	Precise	1	9	14	1	31.8	55.2	4.4	14	1	9	55.2	4.4	31.8	1	1.144	0.000	R	9	31.8	1064.672	1065.191	1066.335	1066.337	0
1	22072002	316	Low	10.0	Precise	1	15	16	11	47.1	49.8	20.8	16	15	11	49.8	47.1	20.8	2	1.257	0.000	L	16	49.8	1066.840	1068.462	1069.719	1069.721	0
1	22072002	317	Low	10.0	Precise	1	9	14	11	31.8	55.2	20.8	9	11	14	31.8	20.8	55.2	2	1.662	0.000	R	14	55.2	1070.224	1072.665	1074.327	1074.329	0
1	22072002	318	Low	10.0	Vague	2	14	18	20	55.2	77.3	2.3	20	18	14	2.3	77.3	55.2	2	1.125	0.001	D	18	77.3	1074.832	1077.306	1078.431	1078.434	0
1	22072002	319	Low	10.0	Precise	1	15	18	4	47.1	77.3	22.6	18	15	4	77.3	47.1	22.6	2	0.683	0.001	L	18	77.3	1078.936	1080.820	1081.503	1081.505	0
1	22072002	320	Low	10.0	Precise	1	17	18	11	71.7	77.3	20.8	18	11	17	77.3	20.8	71.7	2	0.673	0.001	L	18	77.3	1082.008	1084.190	1084.863	1084.865	0
1	22072002	321	Low	10.0	Precise	1	15	17	8	47.1	71.7	28.3	17	15	8	71.7	47.1	28.3	2	0.785	0.000	L	17	71.7	1085.368	1087.542	1088.327	1088.329	0
1	22072002	322	Low	10.0	Vague	2	17	18	31	71.7	77.3	21.5	17	31	18	71.7	21.5	77.3	2	0.702	0.000	R	18	77.3	1088.832	1090.465	1091.167	1091.169	0
1	22072002	323	Low	10.0	Vague	2	15	14	28	47.1	55.2	26.9	14	28	15	55.2	26.9	47.1	2	2.837	0.000	L	14	55.2	1091.671	1092.697	1095.535	1095.537	0
1	22072002	324	Low	10.0	Precise	1	9	16	11	31.8	49.8	20.8	11	16	9	20.8	49.8	31.8	2	2.045	0.001	D	16	49.8	1096.040	1096.642	1098.687	1098.689	0
1	22072002	325	Low	10.0	Vague	2	9	17	28	31.8	71.7	26.9	28	17	9	26.9	71.7	31.8	2	0.629	0.001	D	17	71.7	1099.192	1100.970	1101.599	1101.602	0
1	22072002	326	Low	10.0	Vague	2	9	16	26	31.8	49.8	25.6	26	16	9	25.6	49.8	31.8	2	1.876	0.000	D	16	49.8	1102.105	1103.251	1105.127	1105.129	0
1	22072002	327	Low	10.0	Precise	1	16	17	4	49.8	71.7	22.6	16	17	4	49.8	71.7	22.6	2	0.721	0.001	D	17	71.7	1105.632	1107.470	1108.191	1108.193	0
1	22072002	328	Low	10.0	Precise	1	9	14	2	31.8	55.2	2.2	9	14	2	31.8	55.2	2.2	2	2.602	0.000	D	14	55.2	1108.696	1109.493	1112.095	1112.097	0
1	22072002	329	Low	10.0	Precise	1	15	17	11	47.1	71.7	20.8	15	17	11	47.1	71.7	20.8	2	1.025	0.000	D	17	71.7	1112.600	1114.366	1115.391	1115.393	0
1	22072002	330	Low	10.0	Precise	1	16	18	2	49.8	77.3	2.2	18	2	16	77.3	2.2	49.8	2	0.692	0.001	L	18	77.3	1115.896	1118.404	1119.095	1119.097	0
1	22072002	331	Low	10.0	Vague	2	16	14	26	49.8	55.2	25.6	14	26	16	55.2	25.6	49.8	1	2.442	0.001	R	16	49.8	1119.601	1120.845	1123.287	1123.290	0
1	22072002	332	Low	10.0	Precise	1	15	17	2	47.1	71.7	2.2	15	2	17	47.1	2.2	71.7	2	0.661	0.000	R	17	71.7	1123.792	1125.018	1125.679	1125.681	0
1	22072002	333	Low	10.0	Precise	1	15	14	4	47.1	55.2	22.6	15	14	4	47.1	55.2	22.6	2	1.578	0.000	D	14	55.2	1126.184	1128.877	1130.455	1130.457	0
1	22072002	334	Low	10.0	Precise	1	14	18	11	55.2	77.3	20.8	14	18	11	55.2	77.3	20.8	2	0.618	0.000	D	18	77.3	1130.960	1133.437	1134.055	1134.057	0
1	22072002	335	Low	10.0	Precise	1	16	14	4	49.8	55.2	22.6	16	14	4	49.8	55.2	22.6	1	1.271	0.000	L	16	49.8	1134.561	1137.504	1138.775	1138.777	0
1	22072002	336	Low	10.0	Vague	2	15	18	28	47.1	77.3	26.9	28	18	15	26.9	77.3	47.1	2	0.705	0.000	D	18	77.3	1139.280	1139.893	1140.599	1140.601	0
1	22072002	337	Low	10.0	Precise	1	15	18	8	47.1	77.3	28.3	15	18	8	47.1	77.3	28.3	2	0.528	0.000	D	18	77.3	1141.103	1143.015	1143.543	1143.545	0
1	22072002	338	Low	10.0	Vague	2	14	18	31	55.2	77.3	21.5	14	31	18	55.2	21.5	77.3	2	0.618	0.000	R	18	77.3	1144.048	1146.957	1147.575	1147.577	0
1	22072002	339	Low	10.0	Vague	2	9	16	22	31.8	49.8	22.7	22	9	16	22.7	31.8	49.8	2	1.515	0.000	R	16	49.8	1148.081	1149.804	1151.319	1151.321	0
1	22072002	340	Low	10.0	Vague	2	15	17	20	47.1	71.7	2.3	20	15	17	2.3	47.1	71.7	2	0.768	0.000	R	17	71.7	1151.823	1154.591	1155.359	1155.361	0
1	22072002	341	Low	10.0	Precise	1	15	16	1	47.1	49.8	4.4	15	1	16	47.1	4.4	49.8	2	1.487	0.000	R	16	49.8	1155.865	1156.864	1158.351	1158.353	0
1	22072002	342	Low	10.0	Precise	1	15	14	8	47.1	55.2	28.3	14	8	15	55.2	28.3	47.1	2	2.112	0.001	L	14	55.2	1158.855	1161.727	1163.839	1163.842	0
1	22072002	343	Low	10.0	Precise	1	9	18	2	31.8	77.3	2.2	9	2	18	31.8	2.2	77.3	2	0.749	0.000	R	18	77.3	1164.344	1166.650	1167.399	1167.401	0
1	22072002	344	Low	10.0	Vague	2	15	17	21	47.1	71.7	1.7	21	17	15	1.7	71.7	47.1	2	1.164	0.000	D	17	71.7	1167.904	1169.891	1171.055	1171.057	0
1	22072002	345	Low	10.0	Precise	1	14	18	1	55.2	77.3	4.4	1	14	18	4.4	55.2	77.3	2	1.152	0.000	R	18	77.3	1171.559	1172.351	1173.503	1173.505	0
1	22072002	346	Low	10.0	Precise	1	9	14	8	31.8	55.2	28.3	8	9	14	28.3	31.8	55.2	2	1.838	0.001	R	14	55.2	1174.008	1175.985	1177.823	1177.825	0
1	22072002	347	Low	10.0	Vague	2	16	14	28	49.8	55.2	26.9	28	16	14	26.9	49.8	55.2	1	1.252	0.001	D	16	49.8	1178.329	1181.291	1182.543	1182.545	0
1	22072002	348	Low	10.0	Vague	2	9	16	20	31.8	49.8	2.3	16	20	9	49.8	2.3	31.8	2	1.970	0.000	L	16	49.8	1183.048	1184.052	1186.022	1186.025	0
1	22072002	349	Low	10.0	Vague	2	16	14	20	49.8	55.2	2.3	14	16	20	55.2	49.8	2.3	1	1.798	0.000	D	16	49.8	1186.528	1188.456	1190.255	1190.257	0
1	22072002	350	Low	10.0	Precise	1	14	18	8	55.2	77.3	28.3	8	18	14	28.3	77.3	55.2	2	0.778	0.000	D	18	77.3	1190.760	1193.125	1193.903	1193.905	0
1	22072002	351	Low	10.0	Precise	1	16	17	5	49.8	71.7	3.0	5	17	16	3.0	71.7	49.8	2	0.721	0.000	D	17	71.7	1194.408	1196.030	1196.751	1196.753	0
1	22072002	352	Low	10.0	Vague	2	16	18	31	49.8	77.3	21.5	31	16	18	21.5	49.8	77.3	2	0.689	0.000	R	18	77.3	1197.256	1198.390	1199.078	1199.081	0
1	22072002	353	Low	10.0	Precise	1	9	18	8	31.8	77.3	28.3	8	9	18	28.3	31.8	77.3	2	0.503	0.000	R	18	77.3	1199.585	1202.279	1202.782	1202.785	0
1	22072002	354	Low	10.0	Vague	2	9	14	20	31.8	55.2	2.3	14	9	20	55.2	31.8	2.3	2	1.777	0.001	L	14	55.2	1203.288	1205.246	1207.023	1207.025	0
1	22072002	355	Low	10.0	Precise	1	15	16	5	47.1	49.8	3.0	15	16	5	47.1	49.8	3.0	2	1.168	0.000	D	16	49.8	1207.529	1210.222	1211.391	1211.393	0
1	22072002	356	Low	10.0	Precise	1	16	17	11	49.8	71.7	20.8	17	11	16	71.7	20.8	49.8	2	0.603	0.000	L	17	71.7	1211.896	1213.892	1214.495	1214.497	0
1	22072002	357	Low	10.0	Vague	2	16	17	31	49.8	71.7	21.5	16	31	17	49.8	21.5	71.7	2	0.608	0.000	R	17	71.7	1215.000	1217.983	1218.591	1218.593	0
1	22072002	358	Low	10.0	Vague	2	15	16	31	47.1	49.8	21.5	16	31	15	49.8	21.5	47.1	2	1.320	0.000	L	16	49.8	1219.097	1221.062	1222.383	1222.385	0
1	22072002	359	Low	10.0	Vague	2	9	17	20	31.8	71.7	2.3	20	17	9	2.3	71.7	31.8	2	0.747	0.000	D	17	71.7	1222.888	1224.124	1224.871	1224.873	0
1	22072002	360	Low	10.0	Vague	2	9	18	31	31.8	77.3	21.5	31	9	18	21.5	31.8	77.3	2	0.624	0.001	R	18	77.3	1225.376	1226.463	1227.087	1227.089	0
