Group	subID	trial	TimePressure	TimeConstraint	Vagueness	Vaguenesscode	ID1	ID2	ID3	V1	V2	V3	ID_left	ID_middle	ID_right	Bid_left	Bid_middle	Bid_right	chosenItem	RT	RTvariance	chosenPosition	chosenID	chosenValue	fixation_time	option_time	choice_time	feedback_time	timeout
1	22072007	1	Low	10.0	Vague	2	4	15	28	7.1	12.5	3.3	28	4	15	3.3	7.1	12.5	1	2.551	0.000	D	4	7.1	10.601	13.256	15.807	15.811	0
1	22072007	2	Low	10.0	Vague	2	10	15	28	4.4	12.5	3.3	10	28	15	4.4	3.3	12.5	2	1.806	0.000	R	15	12.5	16.315	18.241	20.047	20.050	0
1	22072007	3	Low	10.0	Vague	2	10	12	20	4.4	12.8	0.5	20	10	12	0.5	4.4	12.8	2	2.380	0.000	R	12	12.8	20.554	22.291	24.671	24.674	0
1	22072007	4	Low	10.0	Precise	1	18	17	9	9.3	13.4	4.0	17	18	9	13.4	9.3	4.0	2	2.657	0.000	L	17	13.4	25.176	27.038	29.695	29.698	0
1	22072007	5	Low	10.0	Vague	2	18	12	21	9.3	12.8	0.4	21	18	12	0.4	9.3	12.8	2	1.385	0.001	R	12	12.8	30.201	32.718	34.103	34.107	0
1	22072007	6	Low	10.0	Vague	2	15	17	21	12.5	13.4	0.4	15	17	21	12.5	13.4	0.4	2	2.498	0.000	D	17	13.4	34.612	37.381	39.879	39.882	0
1	22072007	7	Low	10.0	Vague	2	10	17	22	4.4	13.4	4.7	17	22	10	13.4	4.7	4.4	2	1.699	0.000	L	17	13.4	40.384	42.100	43.799	43.802	0
1	22072007	8	Low	10.0	Precise	1	15	12	16	12.5	12.8	2.2	15	16	12	12.5	2.2	12.8	2	1.220	0.001	R	12	12.8	44.304	46.690	47.911	47.913	0
1	22072007	9	Low	10.0	Precise	1	4	18	16	7.1	9.3	2.2	16	4	18	2.2	7.1	9.3	1	2.227	0.000	D	4	7.1	48.416	49.028	51.255	51.257	0
1	22072007	10	Low	10.0	Vague	2	4	17	21	7.1	13.4	0.4	4	21	17	7.1	0.4	13.4	2	1.849	0.000	R	17	13.4	51.760	53.085	54.935	54.937	0
1	22072007	11	Low	10.0	Vague	2	15	17	22	12.5	13.4	4.7	17	22	15	13.4	4.7	12.5	2	2.077	0.000	L	17	13.4	55.440	57.089	59.167	59.169	0
1	22072007	12	Low	10.0	Vague	2	18	15	20	9.3	12.5	0.5	20	18	15	0.5	9.3	12.5	2	1.251	0.000	R	15	12.5	59.672	61.884	63.135	63.137	0
1	22072007	13	Low	10.0	Precise	1	15	17	9	12.5	13.4	4.0	17	9	15	13.4	4.0	12.5	1	1.581	0.000	R	15	12.5	63.640	65.929	67.511	67.513	0
1	22072007	14	Low	10.0	Precise	1	18	15	1	9.3	12.5	1.8	1	15	18	1.8	12.5	9.3	2	1.953	0.000	D	15	12.5	68.015	70.214	72.167	72.169	0
1	22072007	15	Low	10.0	Precise	1	10	17	7	4.4	13.4	0.0	10	17	7	4.4	13.4	0.0	2	2.520	0.001	D	17	13.4	72.672	75.487	78.007	78.010	0
1	22072007	16	Low	10.0	Precise	1	18	12	1	9.3	12.8	1.8	1	18	12	1.8	9.3	12.8	2	1.102	0.001	R	12	12.8	78.512	81.489	82.591	82.593	0
1	22072007	17	Low	10.0	Precise	1	4	18	3	7.1	9.3	0.9	3	4	18	0.9	7.1	9.3	1	1.543	0.001	D	4	7.1	83.096	86.016	87.559	87.561	0
1	22072007	18	Low	10.0	Precise	1	18	12	3	9.3	12.8	0.9	3	12	18	0.9	12.8	9.3	2	1.315	0.000	D	12	12.8	88.064	90.708	92.023	92.026	0
1	22072007	19	Low	10.0	Vague	2	15	12	28	12.5	12.8	3.3	15	12	28	12.5	12.8	3.3	2	1.350	0.000	D	12	12.8	92.529	93.425	94.775	94.777	0
1	22072007	20	Low	10.0	Vague	2	10	18	20	4.4	9.3	0.5	18	10	20	9.3	4.4	0.5	3	2.833	0.001	R	20	0.5	95.280	98.006	100.839	100.842	0
1	22072007	21	Low	10.0	Vague	2	18	12	22	9.3	12.8	4.7	12	18	22	12.8	9.3	4.7	2	1.469	0.001	L	12	12.8	101.344	103.306	104.775	104.777	0
1	22072007	22	Low	10.0	Precise	1	10	15	3	4.4	12.5	0.9	3	10	15	0.9	4.4	12.5	2	3.288	0.001	R	15	12.5	105.280	108.047	111.335	111.337	0
1	22072007	23	Low	10.0	Vague	2	4	17	20	7.1	13.4	0.5	20	17	4	0.5	13.4	7.1	1	4.404	0.001	R	4	7.1	111.840	112.379	116.783	116.785	0
1	22072007	24	Low	10.0	Vague	2	18	17	24	9.3	13.4	0.5	24	17	18	0.5	13.4	9.3	2	1.558	0.000	D	17	13.4	117.288	119.337	120.895	120.897	0
1	22072007	25	Low	10.0	Precise	1	12	17	9	12.8	13.4	4.0	12	17	9	12.8	13.4	4.0	1	1.110	0.000	L	12	12.8	121.400	123.049	124.159	124.161	0
1	22072007	26	Low	10.0	Vague	2	4	12	22	7.1	12.8	4.7	22	4	12	4.7	7.1	12.8	2	1.392	0.000	R	12	12.8	124.664	126.239	127.631	127.633	0
1	22072007	27	Low	10.0	Vague	2	18	12	32	9.3	12.8	5.7	32	12	18	5.7	12.8	9.3	2	2.081	0.000	D	12	12.8	128.136	130.142	132.223	132.225	0
1	22072007	28	Low	10.0	Vague	2	10	4	20	4.4	7.1	0.5	10	20	4	4.4	0.5	7.1	2	1.562	0.000	R	4	7.1	132.728	133.604	135.166	135.169	0
1	22072007	29	Low	10.0	Precise	1	15	12	7	12.5	12.8	0.0	15	7	12	12.5	0.0	12.8	2	1.819	0.000	R	12	12.8	135.672	136.236	138.055	138.057	0
1	22072007	30	Low	10.0	Vague	2	4	18	22	7.1	9.3	4.7	18	22	4	9.3	4.7	7.1	1	1.938	0.001	R	4	7.1	138.560	139.813	141.751	141.753	0
1	22072007	31	Low	10.0	Precise	1	10	18	3	4.4	9.3	0.9	18	3	10	9.3	0.9	4.4	2	2.271	0.000	L	18	9.3	142.256	144.071	146.343	146.345	0
1	22072007	32	Low	10.0	Precise	1	10	15	11	4.4	12.5	3.8	10	11	15	4.4	3.8	12.5	2	1.939	0.000	R	15	12.5	146.848	149.339	151.278	151.281	0
1	22072007	33	Low	10.0	Vague	2	12	17	21	12.8	13.4	0.4	12	17	21	12.8	13.4	0.4	1	1.393	0.000	L	12	12.8	151.784	152.885	154.279	154.281	0
1	22072007	34	Low	10.0	Precise	1	4	15	1	7.1	12.5	1.8	15	1	4	12.5	1.8	7.1	2	1.555	0.000	L	15	12.5	154.784	156.236	157.790	157.793	0
1	22072007	35	Low	10.0	Vague	2	4	12	21	7.1	12.8	0.4	12	21	4	12.8	0.4	7.1	2	1.662	0.000	L	12	12.8	158.296	159.113	160.775	160.777	0
1	22072007	36	Low	10.0	Precise	1	4	12	3	7.1	12.8	0.9	12	4	3	12.8	7.1	0.9	2	1.538	0.000	L	12	12.8	161.280	164.197	165.735	165.737	0
1	22072007	37	Low	10.0	Vague	2	18	15	28	9.3	12.5	3.3	15	18	28	12.5	9.3	3.3	2	2.264	0.000	L	15	12.5	166.240	166.959	169.223	169.225	0
1	22072007	38	Low	10.0	Vague	2	10	15	24	4.4	12.5	0.5	15	10	24	12.5	4.4	0.5	2	1.472	0.001	L	15	12.5	169.728	171.966	173.439	173.441	0
1	22072007	39	Low	10.0	Vague	2	4	15	21	7.1	12.5	0.4	15	4	21	12.5	7.1	0.4	2	2.802	0.000	L	15	12.5	173.944	174.549	177.351	177.353	0
1	22072007	40	Low	10.0	Vague	2	10	18	21	4.4	9.3	0.4	10	18	21	4.4	9.3	0.4	2	1.680	0.001	D	18	9.3	177.856	179.343	181.023	181.025	0
1	22072007	41	Low	10.0	Vague	2	4	18	24	7.1	9.3	0.5	4	18	24	7.1	9.3	0.5	2	1.041	0.000	D	18	9.3	181.528	182.390	183.430	183.433	0
1	22072007	42	Low	10.0	Vague	2	10	12	24	4.4	12.8	0.5	24	10	12	0.5	4.4	12.8	2	0.910	0.000	R	12	12.8	183.935	185.977	186.887	186.889	0
1	22072007	43	Low	10.0	Precise	1	10	12	9	4.4	12.8	4.0	10	9	12	4.4	4.0	12.8	2	1.810	0.000	R	12	12.8	187.391	189.989	191.799	191.801	0
1	22072007	44	Low	10.0	Precise	1	10	18	11	4.4	9.3	3.8	11	10	18	3.8	4.4	9.3	2	2.908	0.000	R	18	9.3	192.303	194.043	196.950	196.953	0
1	22072007	45	Low	10.0	Vague	2	15	12	32	12.5	12.8	5.7	32	15	12	5.7	12.5	12.8	2	1.402	0.000	R	12	12.8	197.455	198.732	200.134	200.137	0
1	22072007	46	Low	10.0	Precise	1	12	17	3	12.8	13.4	0.9	3	17	12	0.9	13.4	12.8	1	0.605	0.000	R	12	12.8	200.640	201.529	202.135	202.137	0
1	22072007	47	Low	10.0	Vague	2	12	17	24	12.8	13.4	0.5	12	24	17	12.8	0.5	13.4	1	1.129	0.001	L	12	12.8	202.640	204.006	205.135	205.137	0
1	22072007	48	Low	10.0	Vague	2	10	12	21	4.4	12.8	0.4	12	10	21	12.8	4.4	0.4	2	0.689	0.001	L	12	12.8	205.640	206.181	206.871	206.873	0
1	22072007	49	Low	10.0	Precise	1	10	17	9	4.4	13.4	4.0	17	9	10	13.4	4.0	4.4	2	2.944	0.001	L	17	13.4	207.376	208.303	211.247	211.249	0
1	22072007	50	Low	10.0	Vague	2	10	18	24	4.4	9.3	0.5	10	24	18	4.4	0.5	9.3	2	2.742	0.001	R	18	9.3	211.752	214.624	217.367	217.369	0
1	22072007	51	Low	10.0	Vague	2	12	17	20	12.8	13.4	0.5	17	20	12	13.4	0.5	12.8	1	0.651	0.000	R	12	12.8	217.872	218.868	219.519	219.521	0
1	22072007	52	Low	10.0	Precise	1	10	12	7	4.4	12.8	0.0	12	7	10	12.8	0.0	4.4	2	1.157	0.000	L	12	12.8	220.024	221.778	222.935	222.937	0
1	22072007	53	Low	10.0	Vague	2	10	17	21	4.4	13.4	0.4	21	17	10	0.4	13.4	4.4	2	1.770	0.001	D	17	13.4	223.440	225.669	227.439	227.441	0
1	22072007	54	Low	10.0	Precise	1	4	18	11	7.1	9.3	3.8	11	18	4	3.8	9.3	7.1	1	1.988	0.000	R	4	7.1	227.944	230.378	232.366	232.369	0
1	22072007	55	Low	10.0	Precise	1	12	17	7	12.8	13.4	0.0	17	7	12	13.4	0.0	12.8	1	0.691	0.000	R	12	12.8	232.872	235.340	236.031	236.033	0
1	22072007	56	Low	10.0	Precise	1	10	12	16	4.4	12.8	2.2	12	10	16	12.8	4.4	2.2	2	1.840	0.000	L	12	12.8	236.536	237.583	239.423	239.425	0
1	22072007	57	Low	10.0	Precise	1	4	17	16	7.1	13.4	2.2	17	4	16	13.4	7.1	2.2	1	1.994	0.001	D	4	7.1	239.928	242.093	244.087	244.089	0
1	22072007	58	Low	10.0	Precise	1	10	12	11	4.4	12.8	3.8	10	11	12	4.4	3.8	12.8	2	0.888	0.000	R	12	12.8	244.592	247.479	248.367	248.369	0
1	22072007	59	Low	10.0	Precise	1	10	17	16	4.4	13.4	2.2	17	10	16	13.4	4.4	2.2	2	2.091	0.000	L	17	13.4	248.872	250.428	252.519	252.521	0
1	22072007	60	Low	10.0	Precise	1	15	17	3	12.5	13.4	0.9	17	3	15	13.4	0.9	12.5	1	2.236	0.000	R	15	12.5	253.024	254.938	257.175	257.177	0
1	22072007	61	Low	10.0	Precise	1	4	15	16	7.1	12.5	2.2	16	4	15	2.2	7.1	12.5	2	1.268	0.000	R	15	12.5	267.769	270.274	271.542	271.545	0
1	22072007	62	Low	10.0	Precise	1	4	12	1	7.1	12.8	1.8	4	12	1	7.1	12.8	1.8	2	0.951	0.000	D	12	12.8	272.048	274.416	275.366	275.369	0
1	22072007	63	Low	10.0	Precise	1	18	12	9	9.3	12.8	4.0	9	18	12	4.0	9.3	12.8	2	1.038	0.001	R	12	12.8	275.872	277.241	278.279	278.281	0
1	22072007	64	Low	10.0	Vague	2	18	12	28	9.3	12.8	3.3	18	28	12	9.3	3.3	12.8	2	0.770	0.000	R	12	12.8	278.784	281.101	281.871	281.873	0
1	22072007	65	Low	10.0	Precise	1	10	15	1	4.4	12.5	1.8	15	1	10	12.5	1.8	4.4	2	1.850	0.000	L	15	12.5	282.376	284.645	286.495	286.497	0
1	22072007	66	Low	10.0	Vague	2	10	18	22	4.4	9.3	4.7	18	10	22	9.3	4.4	4.7	3	2.712	0.000	R	22	4.7	286.999	289.959	292.671	292.673	0
1	22072007	67	Low	10.0	Precise	1	18	15	16	9.3	12.5	2.2	15	18	16	12.5	9.3	2.2	2	1.190	0.001	L	15	12.5	293.176	294.024	295.215	295.217	0
1	22072007	68	Low	10.0	Vague	2	10	15	32	4.4	12.5	5.7	10	32	15	4.4	5.7	12.5	2	1.531	0.000	R	15	12.5	295.719	298.219	299.750	299.753	0
1	22072007	69	Low	10.0	Precise	1	18	12	11	9.3	12.8	3.8	11	12	18	3.8	12.8	9.3	2	1.220	0.000	D	12	12.8	300.256	301.778	302.999	303.001	0
1	22072007	70	Low	10.0	Vague	2	15	17	32	12.5	13.4	5.7	32	15	17	5.7	12.5	13.4	2	1.574	0.000	R	17	13.4	303.504	305.504	307.078	307.081	0
1	22072007	71	Low	10.0	Vague	2	4	17	28	7.1	13.4	3.3	4	28	17	7.1	3.3	13.4	2	2.548	0.000	R	17	13.4	307.584	308.418	310.966	310.969	0
1	22072007	72	Low	10.0	Vague	2	15	17	28	12.5	13.4	3.3	15	28	17	12.5	3.3	13.4	1	1.844	0.000	L	15	12.5	311.471	313.122	314.966	314.969	0
1	22072007	73	Low	10.0	Precise	1	18	17	16	9.3	13.4	2.2	16	18	17	2.2	9.3	13.4	2	1.384	0.000	R	17	13.4	315.471	317.822	319.207	319.209	0
1	22072007	74	Low	10.0	Precise	1	4	12	9	7.1	12.8	4.0	12	4	9	12.8	7.1	4.0	2	1.208	0.000	L	12	12.8	319.712	321.351	322.559	322.561	0
1	22072007	75	Low	10.0	Vague	2	4	12	32	7.1	12.8	5.7	4	12	32	7.1	12.8	5.7	2	0.904	0.000	D	12	12.8	323.064	324.142	325.047	325.049	0
1	22072007	76	Low	10.0	Precise	1	4	17	9	7.1	13.4	4.0	17	4	9	13.4	7.1	4.0	2	2.160	0.001	L	17	13.4	325.551	328.319	330.479	330.481	0
1	22072007	77	Low	10.0	Vague	2	4	17	22	7.1	13.4	4.7	22	17	4	4.7	13.4	7.1	2	1.407	0.000	D	17	13.4	330.984	333.688	335.095	335.097	0
1	22072007	78	Low	10.0	Precise	1	12	17	16	12.8	13.4	2.2	12	17	16	12.8	13.4	2.2	1	0.834	0.001	L	12	12.8	335.600	338.404	339.239	339.241	0
1	22072007	79	Low	10.0	Vague	2	10	17	28	4.4	13.4	3.3	10	17	28	4.4	13.4	3.3	2	1.662	0.001	D	17	13.4	339.744	341.425	343.087	343.090	0
1	22072007	80	Low	10.0	Vague	2	15	17	24	12.5	13.4	0.5	24	15	17	0.5	12.5	13.4	1	1.675	0.000	D	15	12.5	343.592	344.539	346.215	346.218	0
1	22072007	81	Low	10.0	Precise	1	10	4	16	4.4	7.1	2.2	16	4	10	2.2	7.1	4.4	2	1.152	0.000	D	4	7.1	346.720	347.879	349.031	349.033	0
1	22072007	82	Low	10.0	Vague	2	4	12	24	7.1	12.8	0.5	12	24	4	12.8	0.5	7.1	2	0.757	0.000	L	12	12.8	349.535	351.138	351.894	351.897	0
1	22072007	83	Low	10.0	Precise	1	15	12	11	12.5	12.8	3.8	15	11	12	12.5	3.8	12.8	2	0.899	0.001	R	12	12.8	352.399	354.948	355.847	355.849	0
1	22072007	84	Low	10.0	Precise	1	10	17	3	4.4	13.4	0.9	3	17	10	0.9	13.4	4.4	2	1.444	0.000	D	17	13.4	356.352	358.363	359.807	359.809	0
1	22072007	85	Low	10.0	Vague	2	10	17	24	4.4	13.4	0.5	17	10	24	13.4	4.4	0.5	2	1.671	0.000	L	17	13.4	360.311	362.831	364.502	364.505	0
1	22072007	86	Low	10.0	Vague	2	10	12	22	4.4	12.8	4.7	10	12	22	4.4	12.8	4.7	2	0.871	0.000	D	12	12.8	365.007	365.536	366.407	366.409	0
1	22072007	87	Low	10.0	Vague	2	10	17	20	4.4	13.4	0.5	17	20	10	13.4	0.5	4.4	2	1.508	0.000	L	17	13.4	366.912	368.266	369.774	369.777	0
1	22072007	88	Low	10.0	Precise	1	4	17	11	7.1	13.4	3.8	11	17	4	3.8	13.4	7.1	1	1.218	0.001	R	4	7.1	370.279	372.412	373.631	373.633	0
1	22072007	89	Low	10.0	Precise	1	10	17	11	4.4	13.4	3.8	10	11	17	4.4	3.8	13.4	2	1.622	0.000	R	17	13.4	374.136	375.112	376.734	376.737	0
1	22072007	90	Low	10.0	Precise	1	18	12	7	9.3	12.8	0.0	7	18	12	0.0	9.3	12.8	2	1.036	0.000	R	12	12.8	377.240	379.067	380.103	380.105	0
1	22072007	91	Low	10.0	Precise	1	15	12	9	12.5	12.8	4.0	15	9	12	12.5	4.0	12.8	2	0.874	0.000	R	12	12.8	380.608	381.748	382.623	382.625	0
1	22072007	92	Low	10.0	Precise	1	18	15	3	9.3	12.5	0.9	15	3	18	12.5	0.9	9.3	2	1.657	0.000	L	15	12.5	383.128	384.757	386.414	386.417	0
1	22072007	93	Low	10.0	Vague	2	15	12	20	12.5	12.8	0.5	20	15	12	0.5	12.5	12.8	2	0.925	0.000	R	12	12.8	386.920	388.193	389.118	389.121	0
1	22072007	94	Low	10.0	Precise	1	15	17	11	12.5	13.4	3.8	15	17	11	12.5	13.4	3.8	1	1.627	0.000	L	15	12.5	389.623	390.707	392.334	392.337	0
1	22072007	95	Low	10.0	Precise	1	18	15	9	9.3	12.5	4.0	15	9	18	12.5	4.0	9.3	2	1.122	0.000	L	15	12.5	392.839	394.933	396.054	396.057	0
1	22072007	96	Low	10.0	Precise	1	18	17	3	9.3	13.4	0.9	18	3	17	9.3	0.9	13.4	2	1.488	0.000	R	17	13.4	396.560	398.230	399.718	399.721	0
1	22072007	97	Low	10.0	Precise	1	4	12	11	7.1	12.8	3.8	4	11	12	7.1	3.8	12.8	2	0.814	0.001	R	12	12.8	400.224	402.809	403.623	403.625	0
1	22072007	98	Low	10.0	Vague	2	10	4	32	4.4	7.1	5.7	10	4	32	4.4	7.1	5.7	2	1.445	0.000	D	4	7.1	404.127	406.178	407.623	407.625	0
1	22072007	99	Low	10.0	Precise	1	4	12	7	7.1	12.8	0.0	7	12	4	0.0	12.8	7.1	2	1.062	0.000	D	12	12.8	408.127	410.096	411.158	411.161	0
1	22072007	100	Low	10.0	Vague	2	4	18	21	7.1	9.3	0.4	4	18	21	7.1	9.3	0.4	1	1.809	0.001	L	4	7.1	411.664	412.893	414.703	414.705	0
1	22072007	101	Low	10.0	Precise	1	10	15	9	4.4	12.5	4.0	15	10	9	12.5	4.4	4.0	2	1.943	0.000	L	15	12.5	415.208	417.471	419.415	419.417	0
1	22072007	102	Low	10.0	Vague	2	4	15	24	7.1	12.5	0.5	15	4	24	12.5	7.1	0.5	1	1.453	0.000	D	4	7.1	419.919	421.121	422.574	422.577	0
1	22072007	103	Low	10.0	Vague	2	4	12	20	7.1	12.8	0.5	12	4	20	12.8	7.1	0.5	2	0.801	0.000	L	12	12.8	423.080	425.038	425.839	425.841	0
1	22072007	104	Low	10.0	Precise	1	4	15	3	7.1	12.5	0.9	3	4	15	0.9	7.1	12.5	2	1.367	0.000	R	15	12.5	426.344	427.591	428.959	428.961	0
1	22072007	105	Low	10.0	Vague	2	18	17	32	9.3	13.4	5.7	32	18	17	5.7	9.3	13.4	2	1.399	0.001	R	17	13.4	429.464	431.224	432.623	432.625	0
1	22072007	106	Low	10.0	Precise	1	18	12	16	9.3	12.8	2.2	12	16	18	12.8	2.2	9.3	2	0.746	0.001	L	12	12.8	433.128	435.349	436.095	436.097	0
1	22072007	107	Low	10.0	Vague	2	18	12	20	9.3	12.8	0.5	20	18	12	0.5	9.3	12.8	2	0.842	0.000	R	12	12.8	436.600	438.452	439.294	439.297	0
1	22072007	108	Low	10.0	Vague	2	10	4	24	4.4	7.1	0.5	24	4	10	0.5	7.1	4.4	2	1.603	0.000	D	4	7.1	439.799	441.556	443.159	443.161	0
1	22072007	109	Low	10.0	Precise	1	4	15	11	7.1	12.5	3.8	15	4	11	12.5	7.1	3.8	1	1.612	0.000	D	4	7.1	443.664	445.075	446.686	446.689	0
1	22072007	110	Low	10.0	Vague	2	10	15	20	4.4	12.5	0.5	10	20	15	4.4	0.5	12.5	2	1.898	0.001	R	15	12.5	447.191	449.316	451.214	451.217	0
1	22072007	111	Low	10.0	Precise	1	10	4	11	4.4	7.1	3.8	11	4	10	3.8	7.1	4.4	2	2.433	0.000	D	4	7.1	451.720	453.445	455.878	455.881	0
1	22072007	112	Low	10.0	Vague	2	10	12	28	4.4	12.8	3.3	10	12	28	4.4	12.8	3.3	2	0.872	0.000	D	12	12.8	456.383	458.127	458.999	459.001	0
1	22072007	113	Low	10.0	Precise	1	10	12	1	4.4	12.8	1.8	12	1	10	12.8	1.8	4.4	2	0.882	0.001	L	12	12.8	459.503	462.085	462.967	462.969	0
1	22072007	114	Low	10.0	Precise	1	10	18	9	4.4	9.3	4.0	10	18	9	4.4	9.3	4.0	1	2.390	0.000	L	10	4.4	463.472	465.952	468.342	468.345	0
1	22072007	115	Low	10.0	Precise	1	4	17	7	7.1	13.4	0.0	7	4	17	0.0	7.1	13.4	2	1.737	0.001	R	17	13.4	468.847	471.565	473.303	473.305	0
1	22072007	116	Low	10.0	Vague	2	18	17	22	9.3	13.4	4.7	17	18	22	13.4	9.3	4.7	2	1.384	0.000	L	17	13.4	473.808	474.902	476.286	476.289	0
1	22072007	117	Low	10.0	Precise	1	10	18	7	4.4	9.3	0.0	10	18	7	4.4	9.3	0.0	2	2.020	0.000	D	18	9.3	476.792	477.482	479.502	479.505	0
1	22072007	118	Low	10.0	Precise	1	10	4	9	4.4	7.1	4.0	10	4	9	4.4	7.1	4.0	2	1.406	0.001	D	4	7.1	480.007	482.392	483.799	483.801	0
1	22072007	119	Low	10.0	Vague	2	18	15	32	9.3	12.5	5.7	18	32	15	9.3	5.7	12.5	2	1.635	0.000	R	15	12.5	484.303	485.884	487.518	487.521	0
1	22072007	120	Low	10.0	Precise	1	4	18	1	7.1	9.3	1.8	4	18	1	7.1	9.3	1.8	1	1.303	0.000	L	4	7.1	488.023	490.999	492.302	492.305	0
1	22072007	121	Low	10.0	Precise	1	10	18	16	4.4	9.3	2.2	16	18	10	2.2	9.3	4.4	2	1.789	0.001	D	18	9.3	509.744	510.650	512.439	512.441	0
1	22072007	122	Low	10.0	Precise	1	18	17	1	9.3	13.4	1.8	17	18	1	13.4	9.3	1.8	2	0.747	0.000	L	17	13.4	512.943	513.691	514.438	514.441	0
1	22072007	123	Low	10.0	Vague	2	10	18	32	4.4	9.3	5.7	10	32	18	4.4	5.7	9.3	3	1.554	0.000	D	32	5.7	514.943	516.060	517.615	517.617	0
1	22072007	124	Low	10.0	Vague	2	18	17	28	9.3	13.4	3.3	17	18	28	13.4	9.3	3.3	2	1.296	0.000	L	17	13.4	518.120	520.406	521.702	521.705	0
1	22072007	125	Low	10.0	Vague	2	12	17	22	12.8	13.4	4.7	17	12	22	13.4	12.8	4.7	1	0.848	0.001	D	12	12.8	522.208	524.735	525.583	525.585	0
1	22072007	126	Low	10.0	Vague	2	15	12	22	12.5	12.8	4.7	12	15	22	12.8	12.5	4.7	2	0.736	0.000	L	12	12.8	526.088	528.303	529.038	529.041	0
1	22072007	127	Low	10.0	Precise	1	10	4	3	4.4	7.1	0.9	3	4	10	0.9	7.1	4.4	2	0.953	0.000	D	4	7.1	529.544	532.405	533.358	533.361	0
1	22072007	128	Low	10.0	Vague	2	4	17	32	7.1	13.4	5.7	32	17	4	5.7	13.4	7.1	2	1.646	0.001	D	17	13.4	533.864	535.585	537.230	537.233	0
1	22072007	129	Low	10.0	Vague	2	12	17	32	12.8	13.4	5.7	12	17	32	12.8	13.4	5.7	1	0.668	0.000	L	12	12.8	537.735	540.570	541.238	541.241	0
1	22072007	130	Low	10.0	Precise	1	4	18	7	7.1	9.3	0.0	4	18	7	7.1	9.3	0.0	1	1.340	0.000	L	4	7.1	541.743	544.634	545.974	545.977	0
1	22072007	131	Low	10.0	Precise	1	18	15	11	9.3	12.5	3.8	15	18	11	12.5	9.3	3.8	2	1.459	0.000	L	15	12.5	546.479	547.068	548.526	548.529	0
1	22072007	132	Low	10.0	Vague	2	4	18	20	7.1	9.3	0.5	18	4	20	9.3	7.1	0.5	1	0.999	0.001	D	4	7.1	549.031	551.327	552.327	552.329	0
1	22072007	133	Low	10.0	Precise	1	18	17	7	9.3	13.4	0.0	17	18	7	13.4	9.3	0.0	2	1.308	0.001	L	17	13.4	552.831	553.674	554.983	554.985	0
1	22072007	134	Low	10.0	Vague	2	15	12	21	12.5	12.8	0.4	12	21	15	12.8	0.4	12.5	2	0.730	0.000	L	12	12.8	555.487	556.676	557.406	557.409	0
1	22072007	135	Low	10.0	Vague	2	10	18	28	4.4	9.3	3.3	10	28	18	4.4	3.3	9.3	2	1.832	0.000	R	18	9.3	557.911	558.758	560.590	560.592	0
1	22072007	136	Low	10.0	Precise	1	4	15	7	7.1	12.5	0.0	15	4	7	12.5	7.1	0.0	2	1.737	0.000	L	15	12.5	561.095	562.566	564.302	564.305	0
1	22072007	137	Low	10.0	Precise	1	15	12	1	12.5	12.8	1.8	15	1	12	12.5	1.8	12.8	2	0.710	0.001	R	12	12.8	564.807	567.728	568.439	568.441	0
1	22072007	138	Low	10.0	Precise	1	18	17	11	9.3	13.4	3.8	18	17	11	9.3	13.4	3.8	2	1.293	0.001	D	17	13.4	568.943	570.873	572.166	572.169	0
1	22072007	139	Low	10.0	Vague	2	15	12	24	12.5	12.8	0.5	12	24	15	12.8	0.5	12.5	2	0.642	0.000	L	12	12.8	572.671	573.452	574.094	574.097	0
1	22072007	140	Low	10.0	Vague	2	4	17	24	7.1	13.4	0.5	17	4	24	13.4	7.1	0.5	2	1.987	0.000	L	17	13.4	574.599	576.883	578.870	578.873	0
1	22072007	141	Low	10.0	Vague	2	10	4	22	4.4	7.1	4.7	4	10	22	7.1	4.4	4.7	2	1.345	0.000	L	4	7.1	579.375	581.517	582.862	582.864	0
1	22072007	142	Low	10.0	Precise	1	10	15	16	4.4	12.5	2.2	10	15	16	4.4	12.5	2.2	2	0.969	0.001	D	15	12.5	583.367	585.117	586.086	586.089	0
1	22072007	143	Low	10.0	Vague	2	4	15	20	7.1	12.5	0.5	4	20	15	7.1	0.5	12.5	2	1.192	0.000	R	15	12.5	586.592	589.278	590.470	590.473	0
1	22072007	144	Low	10.0	Precise	1	10	4	7	4.4	7.1	0.0	4	10	7	7.1	4.4	0.0	2	1.108	0.000	L	4	7.1	590.976	593.803	594.910	594.913	0
1	22072007	145	Low	10.0	Precise	1	10	18	1	4.4	9.3	1.8	18	10	1	9.3	4.4	1.8	2	1.650	0.001	L	18	9.3	595.415	598.132	599.782	599.785	0
1	22072007	146	Low	10.0	Vague	2	18	15	22	9.3	12.5	4.7	15	18	22	12.5	9.3	4.7	2	1.511	0.000	L	15	12.5	600.287	602.128	603.638	603.641	0
1	22072007	147	Low	10.0	Vague	2	10	4	21	4.4	7.1	0.4	4	21	10	7.1	0.4	4.4	2	1.250	0.000	L	4	7.1	604.143	605.932	607.182	607.184	0
1	22072007	148	Low	10.0	Precise	1	15	12	3	12.5	12.8	0.9	3	12	15	0.9	12.8	12.5	2	0.907	0.001	D	12	12.8	607.687	608.724	609.630	609.633	0
1	22072007	149	Low	10.0	Precise	1	10	12	3	4.4	12.8	0.9	3	10	12	0.9	4.4	12.8	2	0.734	0.000	R	12	12.8	610.136	613.088	613.822	613.824	0
1	22072007	150	Low	10.0	Precise	1	10	4	1	4.4	7.1	1.8	1	10	4	1.8	4.4	7.1	2	1.476	0.001	R	4	7.1	614.327	615.763	617.238	617.241	0
1	22072007	151	Low	10.0	Precise	1	12	17	11	12.8	13.4	3.8	12	11	17	12.8	3.8	13.4	1	0.880	0.000	L	12	12.8	617.743	619.047	619.926	619.929	0
1	22072007	152	Low	10.0	Vague	2	4	18	32	7.1	9.3	5.7	18	4	32	9.3	7.1	5.7	1	1.402	0.000	D	4	7.1	620.431	622.396	623.798	623.801	0
1	22072007	153	Low	10.0	Vague	2	10	12	32	4.4	12.8	5.7	32	10	12	5.7	4.4	12.8	2	0.851	0.000	R	12	12.8	624.303	626.755	627.606	627.608	0
1	22072007	154	Low	10.0	Vague	2	10	15	21	4.4	12.5	0.4	15	10	21	12.5	4.4	0.4	2	1.574	0.000	L	15	12.5	628.111	628.657	630.230	630.233	0
1	22072007	155	Low	10.0	Vague	2	18	17	21	9.3	13.4	0.4	18	21	17	9.3	0.4	13.4	2	0.955	0.001	R	17	13.4	630.735	633.540	634.494	634.497	0
1	22072007	156	Low	10.0	Vague	2	18	17	20	9.3	13.4	0.5	20	17	18	0.5	13.4	9.3	2	1.552	0.000	D	17	13.4	634.999	635.886	637.438	637.441	0
1	22072007	157	Low	10.0	Vague	2	4	12	28	7.1	12.8	3.3	4	28	12	7.1	3.3	12.8	2	0.851	0.001	R	12	12.8	637.943	638.587	639.438	639.441	0
1	22072007	158	Low	10.0	Vague	2	4	15	32	7.1	12.5	5.7	32	15	4	5.7	12.5	7.1	1	2.032	0.000	R	4	7.1	639.943	642.414	644.446	644.449	0
1	22072007	159	Low	10.0	Precise	1	10	17	1	4.4	13.4	1.8	1	17	10	1.8	13.4	4.4	2	1.057	0.000	D	17	13.4	644.951	647.789	648.846	648.848	0
1	22072007	160	Low	10.0	Vague	2	12	17	28	12.8	13.4	3.3	17	28	12	13.4	3.3	12.8	1	0.745	0.001	R	12	12.8	649.351	651.926	652.670	652.673	0
1	22072007	161	Low	10.0	Precise	1	4	18	9	7.1	9.3	4.0	9	18	4	4.0	9.3	7.1	1	1.549	0.001	R	4	7.1	653.176	654.497	656.046	656.049	0
1	22072007	162	Low	10.0	Precise	1	12	17	1	12.8	13.4	1.8	12	1	17	12.8	1.8	13.4	1	0.670	0.000	L	12	12.8	656.551	657.432	658.102	658.105	0
1	22072007	163	Low	10.0	Precise	1	4	17	1	7.1	13.4	1.8	1	17	4	1.8	13.4	7.1	2	0.923	0.000	D	17	13.4	658.607	659.339	660.262	660.264	0
1	22072007	164	Low	10.0	Precise	1	4	12	16	7.1	12.8	2.2	4	16	12	7.1	2.2	12.8	2	0.693	0.000	R	12	12.8	660.767	662.657	663.350	663.353	0
1	22072007	165	Low	10.0	Vague	2	10	17	32	4.4	13.4	5.7	10	32	17	4.4	5.7	13.4	2	1.417	0.001	R	17	13.4	663.855	665.150	666.566	666.569	0
1	22072007	166	Low	10.0	Precise	1	10	15	7	4.4	12.5	0.0	7	10	15	0.0	4.4	12.5	2	1.227	0.001	R	15	12.5	667.071	669.716	670.942	670.945	0
1	22072007	167	Low	10.0	Precise	1	15	17	1	12.5	13.4	1.8	15	17	1	12.5	13.4	1.8	2	1.552	0.000	D	17	13.4	671.447	674.326	675.878	675.881	0
1	22072007	168	Low	10.0	Vague	2	10	15	22	4.4	12.5	4.7	15	10	22	12.5	4.4	4.7	2	0.884	0.000	L	15	12.5	676.383	677.570	678.454	678.457	0
1	22072007	169	Low	10.0	Vague	2	4	18	28	7.1	9.3	3.3	4	28	18	7.1	3.3	9.3	1	1.838	0.000	L	4	7.1	678.959	680.512	682.350	682.352	0
1	22072007	170	Low	10.0	Precise	1	15	17	7	12.5	13.4	0.0	7	15	17	0.0	12.5	13.4	1	1.107	0.000	D	15	12.5	682.855	684.739	685.846	685.849	0
1	22072007	171	Low	10.0	Vague	2	15	17	20	12.5	13.4	0.5	20	15	17	0.5	12.5	13.4	2	1.539	0.001	R	17	13.4	686.351	688.987	690.526	690.529	0
1	22072007	172	Low	10.0	Precise	1	4	15	9	7.1	12.5	4.0	4	15	9	7.1	12.5	4.0	1	2.648	0.000	L	4	7.1	691.032	691.838	694.486	694.489	0
1	22072007	173	Low	10.0	Vague	2	18	15	21	9.3	12.5	0.4	18	21	15	9.3	0.4	12.5	2	1.312	0.000	R	15	12.5	694.992	697.774	699.086	699.088	0
1	22072007	174	Low	10.0	Precise	1	15	17	16	12.5	13.4	2.2	16	17	15	2.2	13.4	12.5	2	1.436	0.000	D	17	13.4	699.591	702.083	703.518	703.521	0
1	22072007	175	Low	10.0	Vague	2	18	15	24	9.3	12.5	0.5	15	18	24	12.5	9.3	0.5	2	2.652	0.000	L	15	12.5	704.023	706.882	709.534	709.537	0
1	22072007	176	Low	10.0	Precise	1	18	15	7	9.3	12.5	0.0	18	7	15	9.3	0.0	12.5	2	1.043	0.001	R	15	12.5	710.039	712.756	713.798	713.801	0
1	22072007	177	Low	10.0	Vague	2	10	4	28	4.4	7.1	3.3	10	28	4	4.4	3.3	7.1	2	1.244	0.000	R	4	7.1	714.303	717.034	718.278	718.280	0
1	22072007	178	Low	10.0	Vague	2	4	15	22	7.1	12.5	4.7	15	4	22	12.5	7.1	4.7	1	1.264	0.001	D	4	7.1	718.783	720.567	721.830	721.833	0
1	22072007	179	Low	10.0	Precise	1	4	17	3	7.1	13.4	0.9	4	3	17	7.1	0.9	13.4	2	1.081	0.000	R	17	13.4	722.336	723.653	724.734	724.736	0
1	22072007	180	Low	10.0	Vague	2	18	12	24	9.3	12.8	0.5	24	12	18	0.5	12.8	9.3	2	0.804	0.001	D	12	12.8	725.239	726.554	727.358	727.361	0
1	22072007	181	High	1.5	Precise	1	15	17	2	12.5	13.4	0.0	17	15	2	13.4	12.5	0.0	1	1.057	0.000	D	15	12.5	746.919	748.341	749.398	749.401	0
1	22072007	182	High	1.5	Vague	2	15	12	36	12.5	12.8	4.8	12	36	15	12.8	4.8	12.5	2	0.577	0.000	L	12	12.8	749.904	751.613	752.190	752.192	0
1	22072007	183	High	1.5	Vague	2	10	4	23	4.4	7.1	0.5	4	10	23	7.1	4.4	0.5	2	1.025	0.001	L	4	7.1	752.695	755.461	756.486	756.490	0
1	22072007	184	High	1.5	Precise	1	4	15	14	7.1	12.5	3.7	15	4	14	12.5	7.1	3.7	2	1.129	0.000	L	15	12.5	756.992	758.045	759.174	759.177	0
1	22072007	185	High	1.5	Precise	1	4	17	6	7.1	13.4	1.1	6	17	4	1.1	13.4	7.1	2	1.124	0.001	D	17	13.4	759.679	761.602	762.726	762.729	0
1	22072007	186	High	1.5	Precise	1	10	4	6	4.4	7.1	1.1	6	4	10	1.1	7.1	4.4	2	0.901	0.001	D	4	7.1	763.231	765.641	766.542	766.545	0
1	22072007	187	High	1.5	Precise	1	4	17	14	7.1	13.4	3.7	4	14	17	7.1	3.7	13.4	1	1.147	0.001	L	4	7.1	767.048	767.675	768.822	768.825	0
1	22072007	188	High	1.5	Precise	1	15	12	13	12.5	12.8	0.0	15	13	12	12.5	0.0	12.8	2	0.732	0.000	R	12	12.8	769.327	770.507	771.238	771.241	0
1	22072007	189	High	1.5	Vague	2	12	17	36	12.8	13.4	4.8	36	12	17	4.8	12.8	13.4	1	0.851	0.001	D	12	12.8	771.744	774.627	775.478	775.481	0
1	22072007	190	High	1.5	Vague	2	10	15	31	4.4	12.5	1.3	31	15	10	1.3	12.5	4.4	2	1.161	0.001	D	15	12.5	775.984	777.397	778.558	778.561	0
1	22072007	191	High	1.5	Precise	1	10	18	2	4.4	9.3	0.0	10	2	18	4.4	0.0	9.3	2	1.257	0.000	R	18	9.3	779.063	781.638	782.894	782.897	0
1	22072007	192	High	1.5	Vague	2	4	12	27	7.1	12.8	0.0	12	4	27	12.8	7.1	0.0	2	0.698	0.000	L	12	12.8	783.399	783.924	784.622	784.624	0
1	22072007	193	High	1.5	Vague	2	4	15	23	7.1	12.5	0.5	4	23	15	7.1	0.5	12.5	2	0.858	0.000	R	15	12.5	785.127	786.788	787.646	787.649	0
1	22072007	194	High	1.5	Precise	1	4	18	5	7.1	9.3	2.0	5	4	18	2.0	7.1	9.3	1	0.735	0.000	D	4	7.1	788.151	789.439	790.174	790.176	0
1	22072007	195	High	1.5	Precise	1	12	17	2	12.8	13.4	0.0	12	2	17	12.8	0.0	13.4	1	0.639	0.000	L	12	12.8	790.679	792.063	792.702	792.704	0
1	22072007	196	High	1.5	Vague	2	4	12	29	7.1	12.8	3.5	12	29	4	12.8	3.5	7.1	2	0.620	0.000	L	12	12.8	793.207	795.627	796.246	796.249	0
1	22072007	197	High	1.5	Vague	2	10	15	23	4.4	12.5	0.5	15	10	23	12.5	4.4	0.5	2	0.883	0.001	L	15	12.5	796.751	798.540	799.422	799.425	0
1	22072007	198	High	1.5	Vague	2	4	12	31	7.1	12.8	1.3	12	31	4	12.8	1.3	7.1	2	0.588	0.000	L	12	12.8	799.927	800.818	801.406	801.408	0
1	22072007	199	High	1.5	Vague	2	4	18	19	7.1	9.3	0.5	18	4	19	9.3	7.1	0.5	1	0.919	0.000	D	4	7.1	801.911	803.702	804.622	804.625	0
1	22072007	200	High	1.5	Precise	1	15	17	13	12.5	13.4	0.0	15	13	17	12.5	0.0	13.4	1	1.172	0.000	L	15	12.5	805.127	807.266	808.438	808.440	0
1	22072007	201	High	1.5	Precise	1	18	15	5	9.3	12.5	2.0	18	15	5	9.3	12.5	2.0	2	0.839	0.000	D	15	12.5	808.943	809.912	810.750	810.753	0
1	22072007	202	High	1.5	Precise	1	10	18	5	4.4	9.3	2.0	5	10	18	2.0	4.4	9.3	2	1.065	0.000	R	18	9.3	811.255	814.077	815.142	815.145	0
1	22072007	203	High	1.5	Vague	2	4	15	29	7.1	12.5	3.5	15	29	4	12.5	3.5	7.1	1	0.991	0.001	R	4	7.1	815.648	817.767	818.758	818.760	0
1	22072007	204	High	1.5	Vague	2	15	17	27	12.5	13.4	0.0	15	17	27	12.5	13.4	0.0	1	0.912	0.000	L	15	12.5	819.263	819.878	820.790	820.792	0
1	22072007	205	High	1.5	Precise	1	15	17	6	12.5	13.4	1.1	15	17	6	12.5	13.4	1.1	2	0.995	0.000	D	17	13.4	821.295	823.427	824.422	824.425	0
1	22072007	206	High	1.5	Precise	1	10	15	2	4.4	12.5	0.0	15	10	2	12.5	4.4	0.0	2	1.237	0.000	L	15	12.5	824.928	826.001	827.238	827.241	0
1	22072007	207	High	1.5	Precise	1	12	17	14	12.8	13.4	3.7	17	14	12	13.4	3.7	12.8	1	0.894	0.000	R	12	12.8	827.743	829.976	830.870	830.873	0
1	22072007	208	High	1.5	Precise	1	12	17	6	12.8	13.4	1.1	12	17	6	12.8	13.4	1.1	1	0.615	0.001	L	12	12.8	831.375	832.544	833.158	833.161	0
1	22072007	209	High	1.5	Vague	2	4	17	27	7.1	13.4	0.0	4	17	27	7.1	13.4	0.0	2	0.858	0.000	D	17	13.4	833.663	835.212	836.070	836.072	0
1	22072007	210	High	1.5	Precise	1	10	18	6	4.4	9.3	1.1	6	18	10	1.1	9.3	4.4	2	1.305	0.000	D	18	9.3	836.575	838.733	840.038	840.040	0
1	22072007	211	High	1.5	Precise	1	18	17	8	9.3	13.4	3.9	18	17	8	9.3	13.4	3.9	1	1.120	0.000	L	18	9.3	840.543	842.742	843.862	843.864	0
1	22072007	212	High	1.5	Vague	2	4	12	23	7.1	12.8	0.5	12	23	4	12.8	0.5	7.1	2	0.647	0.000	L	12	12.8	844.367	845.271	845.918	845.920	0
1	22072007	213	High	1.5	Precise	1	10	12	6	4.4	12.8	1.1	10	12	6	4.4	12.8	1.1	2	0.507	0.000	D	12	12.8	846.423	848.083	848.590	848.592	0
1	22072007	214	High	1.5	Vague	2	15	12	19	12.5	12.8	0.5	15	12	19	12.5	12.8	0.5	2	0.669	0.001	D	12	12.8	849.095	850.802	851.470	851.473	0
1	22072007	215	High	1.5	Precise	1	15	12	14	12.5	12.8	3.7	12	14	15	12.8	3.7	12.5	2	0.669	0.000	L	12	12.8	851.975	853.033	853.702	853.704	0
1	22072007	216	High	1.5	Vague	2	10	4	36	4.4	7.1	4.8	10	4	36	4.4	7.1	4.8	2	1.335	0.000	D	4	7.1	854.207	855.583	856.918	856.920	0
1	22072007	217	High	1.5	Precise	1	10	18	13	4.4	9.3	0.0	13	18	10	0.0	9.3	4.4	2	1.194	0.001	D	18	9.3	857.423	858.636	859.830	859.833	0
1	22072007	218	High	1.5	Precise	1	4	12	13	7.1	12.8	0.0	4	12	13	7.1	12.8	0.0	2	0.850	0.001	D	12	12.8	860.335	862.748	863.598	863.601	0
1	22072007	219	High	1.5	Precise	1	18	12	6	9.3	12.8	1.1	12	18	6	12.8	9.3	1.1	2	0.613	0.000	L	12	12.8	864.103	867.025	867.638	867.640	0
1	22072007	220	High	1.5	Vague	2	15	12	23	12.5	12.8	0.5	12	23	15	12.8	0.5	12.5	2	0.752	0.000	L	12	12.8	868.143	868.750	869.502	869.504	0
1	22072007	221	High	1.5	Precise	1	10	12	14	4.4	12.8	3.7	10	14	12	4.4	3.7	12.8	2	0.714	0.000	R	12	12.8	870.007	872.388	873.102	873.104	0
1	22072007	222	High	1.5	Precise	1	4	17	8	7.1	13.4	3.9	17	8	4	13.4	3.9	7.1	2	1.179	0.000	L	17	13.4	873.607	875.019	876.198	876.200	0
1	22072007	223	High	1.5	Precise	1	10	17	8	4.4	13.4	3.9	8	10	17	3.9	4.4	13.4	2	0.596	0.000	R	17	13.4	876.703	879.217	879.814	879.816	0
1	22072007	224	High	1.5	Precise	1	4	18	13	7.1	9.3	0.0	18	13	4	9.3	0.0	7.1	1	1.181	0.000	R	4	7.1	880.319	881.529	882.710	882.713	0
1	22072007	225	High	1.5	Precise	1	10	15	13	4.4	12.5	0.0	13	10	15	0.0	4.4	12.5	2	0.918	0.000	R	15	12.5	883.215	883.959	884.878	884.880	0
1	22072007	226	High	1.5	Precise	1	10	12	13	4.4	12.8	0.0	12	13	10	12.8	0.0	4.4	2	0.694	0.000	L	12	12.8	885.383	887.784	888.478	888.480	0
1	22072007	227	High	1.5	Vague	2	12	17	27	12.8	13.4	0.0	17	12	27	13.4	12.8	0.0	1	0.841	0.000	D	12	12.8	888.983	890.109	890.950	890.952	0
1	22072007	228	High	1.5	Precise	1	18	17	5	9.3	13.4	2.0	18	17	5	9.3	13.4	2.0	2	0.959	0.001	D	17	13.4	891.455	892.207	893.166	893.169	0
1	22072007	229	High	1.5	Vague	2	4	17	19	7.1	13.4	0.5	19	4	17	0.5	7.1	13.4	2	0.843	0.000	R	17	13.4	893.672	895.707	896.550	896.552	0
1	22072007	230	High	1.5	Vague	2	4	18	23	7.1	9.3	0.5	18	23	4	9.3	0.5	7.1	1	0.568	0.001	R	4	7.1	897.055	899.734	900.302	900.304	0
1	22072007	231	High	1.5	Vague	2	4	12	19	7.1	12.8	0.5	19	4	12	0.5	7.1	12.8	2	0.551	0.001	R	12	12.8	900.807	903.415	903.966	903.968	0
1	22072007	232	High	1.5	Vague	2	15	17	36	12.5	13.4	4.8	17	15	36	13.4	12.5	4.8	2	1.273	0.001	L	17	13.4	904.471	905.501	906.774	906.776	0
1	22072007	233	High	1.5	Vague	2	10	17	36	4.4	13.4	4.8	10	36	17	4.4	4.8	13.4	3	0.631	0.000	D	36	4.8	907.279	909.679	910.310	910.312	0
1	22072007	234	High	1.5	Vague	2	18	17	36	9.3	13.4	4.8	17	18	36	13.4	9.3	4.8	2	0.978	0.000	L	17	13.4	910.815	912.428	913.406	913.408	0
1	22072007	235	High	1.5	Vague	2	18	12	36	9.3	12.8	4.8	36	18	12	4.8	9.3	12.8	2	0.668	0.000	R	12	12.8	913.911	915.810	916.478	916.480	0
1	22072007	236	High	1.5	Vague	2	10	17	31	4.4	13.4	1.3	31	10	17	1.3	4.4	13.4	2	1.169	0.000	R	17	13.4	916.983	917.893	919.062	919.064	0
1	22072007	237	High	1.5	Vague	2	10	12	27	4.4	12.8	0.0	27	12	10	0.0	12.8	4.4	2	0.695	0.000	D	12	12.8	919.567	921.279	921.974	921.976	0
1	22072007	238	High	1.5	Precise	1	18	12	2	9.3	12.8	0.0	2	12	18	0.0	12.8	9.3	2	0.546	0.000	D	12	12.8	922.479	924.452	924.998	925.000	0
1	22072007	239	High	1.5	Vague	2	10	17	29	4.4	13.4	3.5	10	17	29	4.4	13.4	3.5	2	0.968	0.000	D	17	13.4	925.503	926.598	927.566	927.568	0
1	22072007	240	High	1.5	Vague	2	18	15	29	9.3	12.5	3.5	29	15	18	3.5	12.5	9.3	NaN	NaN	NaN	NaN	NaN	NaN	928.071	930.882	NaN	932.372	1
1	22072007	241	High	1.5	Precise	1	18	12	14	9.3	12.8	3.7	12	14	18	12.8	3.7	9.3	2	0.774	0.001	L	12	12.8	960.452	962.040	962.814	962.818	0
1	22072007	242	High	1.5	Vague	2	18	12	27	9.3	12.8	0.0	18	27	12	9.3	0.0	12.8	2	0.568	0.000	R	12	12.8	963.320	965.469	966.038	966.041	0
1	22072007	243	High	1.5	Precise	1	4	12	8	7.1	12.8	3.9	12	4	8	12.8	7.1	3.9	2	0.610	0.000	L	12	12.8	966.543	969.268	969.878	969.881	0
1	22072007	244	High	1.5	Precise	1	10	15	14	4.4	12.5	3.7	15	10	14	12.5	4.4	3.7	2	1.351	0.000	L	15	12.5	970.383	972.167	973.518	973.520	0
1	22072007	245	High	1.5	Precise	1	10	12	2	4.4	12.8	0.0	12	10	2	12.8	4.4	0.0	2	0.776	0.000	L	12	12.8	974.023	974.598	975.374	975.376	0
1	22072007	246	High	1.5	Vague	2	4	15	19	7.1	12.5	0.5	19	4	15	0.5	7.1	12.5	1	1.356	0.000	D	4	7.1	975.879	977.498	978.854	978.856	0
1	22072007	247	High	1.5	Vague	2	4	15	27	7.1	12.5	0.0	27	4	15	0.0	7.1	12.5	1	0.775	0.001	D	4	7.1	979.359	980.759	981.534	981.537	0
1	22072007	248	High	1.5	Vague	2	15	17	19	12.5	13.4	0.5	15	17	19	12.5	13.4	0.5	2	1.071	0.000	D	17	13.4	982.039	983.671	984.742	984.744	0
1	22072007	249	High	1.5	Precise	1	10	17	14	4.4	13.4	3.7	10	17	14	4.4	13.4	3.7	2	0.980	0.001	D	17	13.4	985.247	986.162	987.142	987.145	0
1	22072007	250	High	1.5	Precise	1	18	12	8	9.3	12.8	3.9	18	8	12	9.3	3.9	12.8	2	0.679	0.000	R	12	12.8	987.647	990.062	990.742	990.744	0
1	22072007	251	High	1.5	Vague	2	4	18	31	7.1	9.3	1.3	31	4	18	1.3	7.1	9.3	1	0.936	0.000	D	4	7.1	991.247	993.662	994.598	994.600	0
1	22072007	252	High	1.5	Vague	2	18	17	23	9.3	13.4	0.5	18	17	23	9.3	13.4	0.5	2	0.901	0.001	D	17	13.4	995.103	997.753	998.654	998.657	0
1	22072007	253	High	1.5	Precise	1	18	15	8	9.3	12.5	3.9	18	8	15	9.3	3.9	12.5	2	0.834	0.000	R	15	12.5	999.159	1001.835	1002.670	1002.672	0
1	22072007	254	High	1.5	Vague	2	15	17	31	12.5	13.4	1.3	15	31	17	12.5	1.3	13.4	2	1.303	0.000	R	17	13.4	1003.175	1004.686	1005.990	1005.992	0
1	22072007	255	High	1.5	Precise	1	15	12	8	12.5	12.8	3.9	12	15	8	12.8	12.5	3.9	2	0.968	0.001	L	12	12.8	1006.494	1008.182	1009.150	1009.152	0
1	22072007	256	High	1.5	Vague	2	10	4	31	4.4	7.1	1.3	4	10	31	7.1	4.4	1.3	2	1.238	0.000	L	4	7.1	1009.655	1011.527	1012.766	1012.768	0
1	22072007	257	High	1.5	Vague	2	4	18	27	7.1	9.3	0.0	18	4	27	9.3	7.1	0.0	1	1.282	0.000	D	4	7.1	1013.270	1014.171	1015.454	1015.456	0
1	22072007	258	High	1.5	Precise	1	4	18	8	7.1	9.3	3.9	4	18	8	7.1	9.3	3.9	1	1.030	0.001	L	4	7.1	1015.959	1018.520	1019.550	1019.552	0
1	22072007	259	High	1.5	Precise	1	12	17	13	12.8	13.4	0.0	13	12	17	0.0	12.8	13.4	1	0.882	0.001	D	12	12.8	1020.055	1021.540	1022.422	1022.424	0
1	22072007	260	High	1.5	Precise	1	10	17	5	4.4	13.4	2.0	10	17	5	4.4	13.4	2.0	2	0.948	0.000	D	17	13.4	1022.927	1024.690	1025.638	1025.640	0
1	22072007	261	High	1.5	Precise	1	4	15	5	7.1	12.5	2.0	5	4	15	2.0	7.1	12.5	NaN	NaN	NaN	NaN	NaN	NaN	1026.143	1029.090	NaN	1030.579	1
1	22072007	262	High	1.5	Vague	2	15	12	27	12.5	12.8	0.0	27	15	12	0.0	12.5	12.8	2	0.717	0.000	R	12	12.8	1032.583	1033.993	1034.710	1034.712	0
1	22072007	263	High	1.5	Vague	2	18	15	27	9.3	12.5	0.0	27	15	18	0.0	12.5	9.3	2	1.099	0.000	D	15	12.5	1035.215	1037.963	1039.062	1039.064	0
1	22072007	264	High	1.5	Precise	1	18	17	13	9.3	13.4	0.0	18	13	17	9.3	0.0	13.4	2	0.810	0.000	R	17	13.4	1039.567	1040.868	1041.678	1041.680	0
1	22072007	265	High	1.5	Vague	2	18	15	19	9.3	12.5	0.5	19	15	18	0.5	12.5	9.3	2	0.728	0.000	D	15	12.5	1042.183	1045.053	1045.782	1045.784	0
1	22072007	266	High	1.5	Vague	2	4	15	36	7.1	12.5	4.8	36	4	15	4.8	7.1	12.5	1	0.973	0.001	D	4	7.1	1046.287	1046.929	1047.902	1047.905	0
1	22072007	267	High	1.5	Precise	1	10	4	5	4.4	7.1	2.0	4	10	5	7.1	4.4	2.0	2	0.753	0.000	L	4	7.1	1048.407	1050.845	1051.598	1051.600	0
1	22072007	268	High	1.5	Precise	1	15	17	5	12.5	13.4	2.0	5	15	17	2.0	12.5	13.4	2	0.739	0.000	R	17	13.4	1052.102	1053.403	1054.142	1054.144	0
1	22072007	269	High	1.5	Vague	2	15	17	29	12.5	13.4	3.5	29	15	17	3.5	12.5	13.4	2	0.817	0.000	R	17	13.4	1054.647	1056.100	1056.918	1056.920	0
1	22072007	270	High	1.5	Vague	2	4	17	23	7.1	13.4	0.5	17	23	4	13.4	0.5	7.1	2	0.759	0.001	L	17	13.4	1057.422	1059.215	1059.974	1059.976	0
1	22072007	271	High	1.5	Vague	2	10	12	29	4.4	12.8	3.5	12	29	10	12.8	3.5	4.4	2	0.629	0.001	L	12	12.8	1060.479	1062.577	1063.206	1063.208	0
1	22072007	272	High	1.5	Precise	1	18	12	13	9.3	12.8	0.0	13	18	12	0.0	9.3	12.8	2	0.728	0.000	R	12	12.8	1063.711	1065.766	1066.494	1066.496	0
1	22072007	273	High	1.5	Precise	1	4	18	2	7.1	9.3	0.0	18	2	4	9.3	0.0	7.1	1	0.782	0.000	R	4	7.1	1066.999	1068.512	1069.294	1069.296	0
1	22072007	274	High	1.5	Precise	1	18	15	13	9.3	12.5	0.0	18	15	13	9.3	12.5	0.0	2	0.775	0.000	D	15	12.5	1069.798	1072.295	1073.070	1073.072	0
1	22072007	275	High	1.5	Vague	2	10	12	19	4.4	12.8	0.5	10	19	12	4.4	0.5	12.8	2	0.626	0.000	R	12	12.8	1073.575	1075.252	1075.878	1075.880	0
1	22072007	276	High	1.5	Vague	2	18	12	29	9.3	12.8	3.5	18	12	29	9.3	12.8	3.5	2	0.705	0.000	D	12	12.8	1076.383	1076.965	1077.670	1077.672	0
1	22072007	277	High	1.5	Vague	2	18	15	36	9.3	12.5	4.8	15	36	18	12.5	4.8	9.3	2	1.055	0.001	L	15	12.5	1078.174	1078.871	1079.926	1079.928	0
1	22072007	278	High	1.5	Vague	2	4	17	36	7.1	13.4	4.8	36	4	17	4.8	7.1	13.4	2	1.180	0.001	R	17	13.4	1080.431	1081.330	1082.510	1082.512	0
1	22072007	279	High	1.5	Precise	1	10	17	6	4.4	13.4	1.1	17	6	10	13.4	1.1	4.4	2	0.672	0.000	L	17	13.4	1083.014	1085.038	1085.710	1085.712	0
1	22072007	280	High	1.5	Vague	2	10	18	31	4.4	9.3	1.3	31	18	10	1.3	9.3	4.4	2	0.922	0.001	D	18	9.3	1086.215	1088.364	1089.286	1089.288	0
1	22072007	281	High	1.5	Precise	1	18	17	6	9.3	13.4	1.1	6	18	17	1.1	9.3	13.4	2	0.642	0.001	R	17	13.4	1089.791	1090.812	1091.454	1091.456	0
1	22072007	282	High	1.5	Vague	2	4	18	36	7.1	9.3	4.8	36	18	4	4.8	9.3	7.1	2	0.975	0.000	D	18	9.3	1091.958	1093.159	1094.134	1094.136	0
1	22072007	283	High	1.5	Vague	2	4	18	29	7.1	9.3	3.5	29	18	4	3.5	9.3	7.1	1	0.466	0.001	R	4	7.1	1094.638	1096.588	1097.054	1097.056	0
1	22072007	284	High	1.5	Vague	2	18	17	27	9.3	13.4	0.0	18	27	17	9.3	0.0	13.4	2	0.796	0.001	R	17	13.4	1097.559	1099.018	1099.814	1099.816	0
1	22072007	285	High	1.5	Precise	1	10	4	14	4.4	7.1	3.7	10	4	14	4.4	7.1	3.7	2	0.991	0.001	D	4	7.1	1100.319	1103.055	1104.046	1104.048	0
1	22072007	286	High	1.5	Precise	1	12	17	8	12.8	13.4	3.9	12	8	17	12.8	3.9	13.4	1	0.749	0.000	L	12	12.8	1104.551	1105.832	1106.581	1106.584	0
1	22072007	287	High	1.5	Vague	2	12	17	19	12.8	13.4	0.5	17	12	19	13.4	12.8	0.5	1	0.832	0.000	D	12	12.8	1107.086	1109.390	1110.222	1110.224	0
1	22072007	288	High	1.5	Precise	1	4	18	14	7.1	9.3	3.7	18	4	14	9.3	7.1	3.7	1	0.775	0.000	D	4	7.1	1110.727	1111.534	1112.310	1112.312	0
1	22072007	289	High	1.5	Vague	2	10	17	19	4.4	13.4	0.5	19	10	17	0.5	4.4	13.4	2	0.695	0.000	R	17	13.4	1112.814	1114.615	1115.310	1115.312	0
1	22072007	290	High	1.5	Precise	1	18	15	14	9.3	12.5	3.7	14	18	15	3.7	9.3	12.5	2	0.711	0.001	R	15	12.5	1115.815	1117.694	1118.406	1118.409	0
1	22072007	291	High	1.5	Vague	2	10	4	27	4.4	7.1	0.0	27	10	4	0.0	4.4	7.1	2	0.878	0.001	R	4	7.1	1118.911	1120.712	1121.590	1121.592	0
1	22072007	292	High	1.5	Vague	2	18	15	31	9.3	12.5	1.3	18	31	15	9.3	1.3	12.5	2	0.869	0.000	R	15	12.5	1122.095	1124.873	1125.742	1125.744	0
1	22072007	293	High	1.5	Precise	1	4	17	2	7.1	13.4	0.0	2	4	17	0.0	7.1	13.4	2	0.714	0.000	R	17	13.4	1126.246	1126.947	1127.661	1127.664	0
1	22072007	294	High	1.5	Precise	1	10	18	8	4.4	9.3	3.9	8	18	10	3.9	9.3	4.4	2	1.031	0.000	D	18	9.3	1128.166	1129.983	1131.014	1131.016	0
1	22072007	295	High	1.5	Precise	1	18	17	14	9.3	13.4	3.7	14	18	17	3.7	9.3	13.4	2	0.567	0.000	R	17	13.4	1131.519	1133.071	1133.638	1133.640	0
1	22072007	296	High	1.5	Precise	1	10	4	2	4.4	7.1	0.0	10	4	2	4.4	7.1	0.0	2	0.826	0.000	D	4	7.1	1134.142	1134.700	1135.526	1135.528	0
1	22072007	297	High	1.5	Vague	2	18	17	19	9.3	13.4	0.5	17	18	19	13.4	9.3	0.5	2	0.577	0.000	L	17	13.4	1136.031	1138.548	1139.126	1139.128	0
1	22072007	298	High	1.5	Precise	1	10	17	2	4.4	13.4	0.0	17	2	10	13.4	0.0	4.4	2	0.595	0.001	L	17	13.4	1139.631	1142.563	1143.158	1143.160	0
1	22072007	299	High	1.5	Precise	1	18	17	2	9.3	13.4	0.0	17	18	2	13.4	9.3	0.0	2	0.633	0.001	L	17	13.4	1143.663	1144.645	1145.278	1145.280	0
1	22072007	300	High	1.5	Precise	1	10	15	6	4.4	12.5	1.1	6	10	15	1.1	4.4	12.5	2	0.766	0.000	R	15	12.5	1145.783	1147.792	1148.558	1148.560	0
1	22072007	301	High	1.5	Precise	1	15	17	14	12.5	13.4	3.7	15	14	17	12.5	3.7	13.4	2	0.609	0.000	R	17	13.4	1165.352	1168.077	1168.686	1168.688	0
1	22072007	302	High	1.5	Vague	2	10	18	36	4.4	9.3	4.8	18	36	10	9.3	4.8	4.4	3	0.554	0.000	D	36	4.8	1169.191	1170.140	1170.694	1170.696	0
1	22072007	303	High	1.5	Vague	2	10	17	23	4.4	13.4	0.5	23	17	10	0.5	13.4	4.4	2	0.674	0.001	D	17	13.4	1171.199	1172.964	1173.638	1173.640	0
1	22072007	304	High	1.5	Vague	2	15	12	31	12.5	12.8	1.3	31	12	15	1.3	12.8	12.5	2	0.859	0.000	D	12	12.8	1174.143	1175.763	1176.622	1176.624	0
1	22072007	305	High	1.5	Vague	2	10	12	36	4.4	12.8	4.8	36	10	12	4.8	4.4	12.8	2	0.554	0.000	R	12	12.8	1177.127	1179.468	1180.022	1180.025	0
1	22072007	306	High	1.5	Vague	2	10	18	19	4.4	9.3	0.5	10	19	18	4.4	0.5	9.3	2	1.156	0.000	R	18	9.3	1180.527	1182.673	1183.830	1183.832	0
1	22072007	307	High	1.5	Precise	1	10	15	8	4.4	12.5	3.9	8	10	15	3.9	4.4	12.5	2	1.077	0.000	R	15	12.5	1184.335	1186.089	1187.166	1187.168	0
1	22072007	308	High	1.5	Precise	1	4	12	5	7.1	12.8	2.0	12	4	5	12.8	7.1	2.0	2	0.573	0.000	L	12	12.8	1187.671	1190.153	1190.725	1190.729	0
1	22072007	309	High	1.5	Vague	2	18	12	23	9.3	12.8	0.5	18	23	12	9.3	0.5	12.8	2	0.468	0.000	R	12	12.8	1191.231	1194.009	1194.478	1194.480	0
1	22072007	310	High	1.5	Precise	1	4	12	14	7.1	12.8	3.7	14	12	4	3.7	12.8	7.1	2	0.681	0.000	D	12	12.8	1194.983	1195.708	1196.389	1196.392	0
1	22072007	311	High	1.5	Vague	2	10	17	27	4.4	13.4	0.0	17	27	10	13.4	0.0	4.4	2	0.755	0.001	L	17	13.4	1196.895	1198.962	1199.718	1199.720	0
1	22072007	312	High	1.5	Vague	2	4	17	29	7.1	13.4	3.5	17	4	29	13.4	7.1	3.5	2	0.755	0.000	L	17	13.4	1200.223	1202.899	1203.654	1203.656	0
1	22072007	313	High	1.5	Vague	2	10	12	31	4.4	12.8	1.3	31	10	12	1.3	4.4	12.8	2	0.872	0.000	R	12	12.8	1204.159	1205.645	1206.518	1206.520	0
1	22072007	314	High	1.5	Precise	1	4	17	5	7.1	13.4	2.0	5	4	17	2.0	7.1	13.4	2	0.767	0.000	R	17	13.4	1207.022	1208.670	1209.438	1209.440	0
1	22072007	315	High	1.5	Precise	1	4	17	13	7.1	13.4	0.0	13	4	17	0.0	7.1	13.4	2	0.882	0.000	R	17	13.4	1209.943	1211.371	1212.253	1212.256	0
1	22072007	316	High	1.5	Vague	2	4	15	31	7.1	12.5	1.3	4	15	31	7.1	12.5	1.3	2	0.935	0.000	D	15	12.5	1212.758	1215.671	1216.606	1216.608	0
1	22072007	317	High	1.5	Vague	2	18	12	19	9.3	12.8	0.5	12	18	19	12.8	9.3	0.5	2	0.644	0.000	L	12	12.8	1217.111	1218.426	1219.070	1219.072	0
1	22072007	318	High	1.5	Vague	2	10	4	29	4.4	7.1	3.5	10	4	29	4.4	7.1	3.5	2	1.063	0.000	D	4	7.1	1219.575	1221.119	1222.182	1222.184	0
1	22072007	319	High	1.5	Precise	1	4	15	8	7.1	12.5	3.9	4	8	15	7.1	3.9	12.5	2	0.779	0.000	R	15	12.5	1222.687	1223.843	1224.622	1224.624	0
1	22072007	320	High	1.5	Vague	2	10	4	19	4.4	7.1	0.5	4	19	10	7.1	0.5	4.4	2	0.620	0.001	L	4	7.1	1225.126	1227.066	1227.686	1227.688	0
1	22072007	321	High	1.5	Precise	1	15	12	2	12.5	12.8	0.0	12	2	15	12.8	0.0	12.5	2	0.597	0.000	L	12	12.8	1228.190	1230.232	1230.830	1230.832	0
1	22072007	322	High	1.5	Precise	1	10	12	8	4.4	12.8	3.9	10	12	8	4.4	12.8	3.9	2	0.960	0.000	D	12	12.8	1231.335	1233.661	1234.622	1234.624	0
1	22072007	323	High	1.5	Vague	2	10	18	27	4.4	9.3	0.0	27	10	18	0.0	4.4	9.3	2	0.742	0.000	R	18	9.3	1235.127	1238.007	1238.750	1238.752	0
1	22072007	324	High	1.5	Precise	1	4	15	2	7.1	12.5	0.0	15	4	2	12.5	7.1	0.0	1	0.782	0.000	D	4	7.1	1239.255	1242.128	1242.910	1242.912	0
1	22072007	325	High	1.5	Vague	2	10	18	29	4.4	9.3	3.5	18	10	29	9.3	4.4	3.5	2	1.048	0.000	L	18	9.3	1243.415	1246.317	1247.366	1247.368	0
1	22072007	326	High	1.5	Precise	1	10	4	8	4.4	7.1	3.9	10	4	8	4.4	7.1	3.9	2	1.155	0.000	D	4	7.1	1247.871	1249.490	1250.646	1250.648	0
1	22072007	327	High	1.5	Precise	1	4	12	2	7.1	12.8	0.0	2	4	12	0.0	7.1	12.8	2	0.552	0.000	R	12	12.8	1251.151	1253.670	1254.222	1254.224	0
1	22072007	328	High	1.5	Vague	2	10	12	23	4.4	12.8	0.5	10	12	23	4.4	12.8	0.5	2	0.674	0.000	D	12	12.8	1254.727	1257.379	1258.053	1258.056	0
1	22072007	329	High	1.5	Precise	1	10	4	13	4.4	7.1	0.0	10	4	13	4.4	7.1	0.0	2	0.985	0.000	D	4	7.1	1258.559	1259.660	1260.646	1260.648	0
1	22072007	330	High	1.5	Vague	2	4	17	31	7.1	13.4	1.3	4	31	17	7.1	1.3	13.4	2	0.638	0.000	R	17	13.4	1261.151	1262.976	1263.613	1263.616	0
1	22072007	331	High	1.5	Vague	2	10	15	27	4.4	12.5	0.0	15	27	10	12.5	0.0	4.4	2	0.793	0.000	L	15	12.5	1264.119	1265.933	1266.726	1266.729	0
1	22072007	332	High	1.5	Vague	2	10	15	29	4.4	12.5	3.5	29	10	15	3.5	4.4	12.5	2	1.009	0.001	R	15	12.5	1267.231	1269.149	1270.158	1270.160	0
1	22072007	333	High	1.5	Precise	1	4	15	6	7.1	12.5	1.1	6	15	4	1.1	12.5	7.1	1	0.733	0.000	R	4	7.1	1270.663	1272.848	1273.582	1273.584	0
1	22072007	334	High	1.5	Precise	1	10	15	5	4.4	12.5	2.0	10	15	5	4.4	12.5	2.0	2	0.942	0.001	D	15	12.5	1274.086	1275.912	1276.854	1276.856	0
1	22072007	335	High	1.5	Precise	1	10	18	14	4.4	9.3	3.7	18	14	10	9.3	3.7	4.4	2	1.142	0.000	L	18	9.3	1277.359	1280.311	1281.454	1281.456	0
1	22072007	336	High	1.5	Precise	1	15	12	5	12.5	12.8	2.0	15	5	12	12.5	2.0	12.8	2	0.639	0.000	R	12	12.8	1281.959	1283.551	1284.189	1284.192	0
1	22072007	337	High	1.5	Precise	1	18	12	5	9.3	12.8	2.0	18	12	5	9.3	12.8	2.0	2	0.599	0.000	D	12	12.8	1284.694	1286.023	1286.622	1286.624	0
1	22072007	338	High	1.5	Vague	2	12	17	29	12.8	13.4	3.5	17	29	12	13.4	3.5	12.8	1	0.537	0.000	R	12	12.8	1287.127	1289.644	1290.181	1290.184	0
1	22072007	339	High	1.5	Precise	1	18	15	2	9.3	12.5	0.0	2	15	18	0.0	12.5	9.3	2	0.765	0.000	D	15	12.5	1290.686	1293.192	1293.958	1293.960	0
1	22072007	340	High	1.5	Precise	1	4	15	13	7.1	12.5	0.0	15	13	4	12.5	0.0	7.1	2	0.960	0.001	L	15	12.5	1294.462	1296.022	1296.982	1296.985	0
1	22072007	341	High	1.5	Precise	1	15	17	8	12.5	13.4	3.9	17	8	15	13.4	3.9	12.5	1	0.696	0.000	R	15	12.5	1297.488	1299.469	1300.165	1300.168	0
1	22072007	342	High	1.5	Vague	2	12	17	23	12.8	13.4	0.5	17	12	23	13.4	12.8	0.5	1	0.595	0.000	D	12	12.8	1300.670	1302.234	1302.830	1302.832	0
1	22072007	343	High	1.5	Vague	2	18	15	23	9.3	12.5	0.5	15	23	18	12.5	0.5	9.3	2	1.140	0.000	L	15	12.5	1303.334	1304.121	1305.261	1305.264	0
1	22072007	344	High	1.5	Precise	1	18	15	6	9.3	12.5	1.1	6	15	18	1.1	12.5	9.3	2	0.829	0.000	D	15	12.5	1305.766	1307.945	1308.773	1308.776	0
1	22072007	345	High	1.5	Precise	1	10	17	13	4.4	13.4	0.0	10	13	17	4.4	0.0	13.4	2	0.609	0.000	R	17	13.4	1309.278	1311.197	1311.806	1311.808	0
1	22072007	346	High	1.5	Vague	2	10	18	23	4.4	9.3	0.5	10	23	18	4.4	0.5	9.3	2	1.011	0.001	R	18	9.3	1312.311	1314.931	1315.942	1315.944	0
1	22072007	347	High	1.5	Vague	2	18	17	29	9.3	13.4	3.5	29	18	17	3.5	9.3	13.4	2	0.781	0.001	R	17	13.4	1316.446	1316.960	1317.742	1317.744	0
1	22072007	348	High	1.5	Vague	2	15	12	29	12.5	12.8	3.5	12	29	15	12.8	3.5	12.5	2	0.795	0.001	L	12	12.8	1318.247	1321.059	1321.854	1321.856	0
1	22072007	349	High	1.5	Precise	1	10	12	5	4.4	12.8	2.0	5	10	12	2.0	4.4	12.8	2	0.723	0.000	R	12	12.8	1322.359	1324.875	1325.598	1325.600	0
1	22072007	350	High	1.5	Precise	1	12	17	5	12.8	13.4	2.0	12	5	17	12.8	2.0	13.4	1	0.619	0.001	L	12	12.8	1326.103	1328.099	1328.718	1328.720	0
1	22072007	351	High	1.5	Vague	2	15	17	23	12.5	13.4	0.5	15	17	23	12.5	13.4	0.5	NaN	NaN	NaN	NaN	NaN	NaN	1329.223	1329.932	NaN	1331.422	1
1	22072007	352	High	1.5	Precise	1	15	12	6	12.5	12.8	1.1	6	12	15	1.1	12.8	12.5	2	0.957	0.000	D	12	12.8	1333.425	1336.144	1337.101	1337.104	0
1	22072007	353	High	1.5	Precise	1	4	18	6	7.1	9.3	1.1	4	18	6	7.1	9.3	1.1	1	0.636	0.000	L	4	7.1	1337.607	1339.913	1340.549	1340.552	0
1	22072007	354	High	1.5	Vague	2	10	15	36	4.4	12.5	4.8	10	15	36	4.4	12.5	4.8	2	0.875	0.001	D	15	12.5	1341.055	1343.771	1344.646	1344.648	0
1	22072007	355	High	1.5	Vague	2	12	17	31	12.8	13.4	1.3	31	17	12	1.3	13.4	12.8	1	0.619	0.000	R	12	12.8	1345.151	1346.371	1346.990	1346.992	0
1	22072007	356	High	1.5	Vague	2	4	12	36	7.1	12.8	4.8	4	36	12	7.1	4.8	12.8	2	0.634	0.000	R	12	12.8	1347.495	1348.812	1349.445	1349.448	0
1	22072007	357	High	1.5	Vague	2	18	12	31	9.3	12.8	1.3	18	12	31	9.3	12.8	1.3	2	0.782	0.000	D	12	12.8	1349.950	1352.336	1353.118	1353.120	0
1	22072007	358	High	1.5	Precise	1	4	12	6	7.1	12.8	1.1	6	12	4	1.1	12.8	7.1	2	0.551	0.000	D	12	12.8	1353.622	1356.486	1357.038	1357.040	0
1	22072007	359	High	1.5	Vague	2	18	17	31	9.3	13.4	1.3	18	31	17	9.3	1.3	13.4	2	0.726	0.000	R	17	13.4	1357.542	1358.439	1359.165	1359.168	0
1	22072007	360	High	1.5	Vague	2	10	15	19	4.4	12.5	0.5	10	19	15	4.4	0.5	12.5	2	0.563	0.001	R	15	12.5	1359.670	1362.531	1363.094	1363.096	0
