Group	subID	trial	TimePressure	TimeConstraint	Vagueness	Vaguenesscode	ID1	ID2	ID3	V1	V2	V3	ID_left	ID_middle	ID_right	Bid_left	Bid_middle	Bid_right	chosenItem	RT	RTvariance	chosenPosition	chosenID	chosenValue	fixation_time	option_time	choice_time	feedback_time	timeout
1	22071802	1	High	1.5	Vague	2	15	17	32	13.4	43.6	7.1	32	15	17	7.1	13.4	43.6	2	0.751	0.000	R	17	43.6	7.303	9.414	10.166	10.169	0
1	22071802	2	High	1.5	Vague	2	15	18	26	13.4	24.3	9.4	15	26	18	13.4	9.4	24.3	3	1.027	0.000	D	26	9.4	10.674	11.602	12.629	12.632	0
1	22071802	3	High	1.5	Precise	1	15	17	3	13.4	43.6	1.4	3	17	15	1.4	43.6	13.4	2	0.687	0.000	D	17	43.6	13.138	14.719	15.406	15.409	0
1	22071802	4	High	1.5	Precise	1	18	17	5	24.3	43.6	1.9	17	18	5	43.6	24.3	1.9	2	0.642	0.000	L	17	43.6	15.913	17.228	17.870	17.873	0
1	22071802	5	High	1.5	Vague	2	12	18	24	10.3	24.3	1.3	18	12	24	24.3	10.3	1.3	1	1.269	0.000	D	12	10.3	18.377	19.369	20.638	20.642	0
1	22071802	6	High	1.5	Vague	2	15	17	25	13.4	43.6	8.4	17	25	15	43.6	8.4	13.4	2	0.664	0.000	L	17	43.6	21.148	21.765	22.429	22.432	0
1	22071802	7	High	1.5	Vague	2	18	16	23	24.3	35.8	0.4	16	23	18	35.8	0.4	24.3	2	0.830	0.000	L	16	35.8	22.935	24.415	25.245	25.248	0
1	22071802	8	High	1.5	Precise	1	12	16	7	10.3	35.8	0.8	12	7	16	10.3	0.8	35.8	2	0.500	0.000	R	16	35.8	25.751	26.761	27.262	27.264	0
1	22071802	9	High	1.5	Vague	2	15	10	24	13.4	16.2	1.3	15	24	10	13.4	1.3	16.2	2	0.948	0.001	R	10	16.2	27.767	29.170	30.118	30.120	0
1	22071802	10	High	1.5	Precise	1	12	17	3	10.3	43.6	1.4	3	17	12	1.4	43.6	10.3	2	0.752	0.001	D	17	43.6	30.623	33.214	33.966	33.968	0
1	22071802	11	High	1.5	Precise	1	15	16	8	13.4	35.8	2.3	16	8	15	35.8	2.3	13.4	2	0.786	0.000	L	16	35.8	34.471	35.315	36.102	36.104	0
1	22071802	12	High	1.5	Precise	1	12	16	8	10.3	35.8	2.3	16	12	8	35.8	10.3	2.3	2	1.061	0.000	L	16	35.8	36.607	37.281	38.342	38.345	0
1	22071802	13	High	1.5	Precise	1	18	17	9	24.3	43.6	4.9	9	18	17	4.9	24.3	43.6	2	0.614	0.001	R	17	43.6	38.847	41.472	42.086	42.088	0
1	22071802	14	High	1.5	Precise	1	10	17	3	16.2	43.6	1.4	3	17	10	1.4	43.6	16.2	2	0.616	0.000	D	17	43.6	42.590	44.894	45.510	45.512	0
1	22071802	15	High	1.5	Vague	2	18	16	25	24.3	35.8	8.4	18	16	25	24.3	35.8	8.4	2	0.792	0.001	D	16	35.8	46.014	46.957	47.750	47.752	0
1	22071802	16	High	1.5	Vague	2	15	18	23	13.4	24.3	0.4	15	23	18	13.4	0.4	24.3	2	1.264	0.000	R	18	24.3	48.255	48.893	50.157	50.160	0
1	22071802	17	High	1.5	Vague	2	12	10	32	10.3	16.2	7.1	12	10	32	10.3	16.2	7.1	2	1.234	0.000	D	10	16.2	50.662	53.124	54.358	54.360	0
1	22071802	18	High	1.5	Vague	2	12	16	23	10.3	35.8	0.4	16	12	23	35.8	10.3	0.4	2	0.904	0.000	L	16	35.8	54.863	55.878	56.782	56.784	0
1	22071802	19	High	1.5	Precise	1	15	10	3	13.4	16.2	1.4	3	10	15	1.4	16.2	13.4	2	0.935	0.000	D	10	16.2	57.287	58.023	58.958	58.960	0
1	22071802	20	High	1.5	Precise	1	15	17	14	13.4	43.6	7.9	17	15	14	43.6	13.4	7.9	2	0.752	0.000	L	17	43.6	59.462	62.070	62.821	62.824	0
1	22071802	21	High	1.5	Vague	2	15	10	26	13.4	16.2	9.4	15	26	10	13.4	9.4	16.2	3	1.044	0.000	D	26	9.4	63.327	64.186	65.230	65.232	0
1	22071802	22	High	1.5	Vague	2	12	15	22	10.3	13.4	3.2	12	15	22	10.3	13.4	3.2	2	1.342	0.000	D	15	13.4	65.735	67.600	68.942	68.944	0
1	22071802	23	High	1.5	Precise	1	12	18	8	10.3	24.3	2.3	18	12	8	24.3	10.3	2.3	NaN	NaN	NaN	NaN	NaN	NaN	69.446	70.016	NaN	71.507	1
1	22071802	24	High	1.5	Precise	1	12	15	14	10.3	13.4	7.9	15	12	14	13.4	10.3	7.9	2	1.116	0.000	L	15	13.4	73.511	74.178	75.293	75.297	0
1	22071802	25	High	1.5	Vague	2	12	15	32	10.3	13.4	7.1	12	15	32	10.3	13.4	7.1	1	1.047	0.000	L	12	10.3	75.800	76.439	77.486	77.488	0
1	22071802	26	High	1.5	Vague	2	12	17	32	10.3	43.6	7.1	12	17	32	10.3	43.6	7.1	2	0.679	0.000	D	17	43.6	77.991	79.790	80.469	80.472	0
1	22071802	27	High	1.5	Vague	2	12	16	26	10.3	35.8	9.4	26	16	12	9.4	35.8	10.3	2	0.899	0.000	D	16	35.8	80.975	83.914	84.813	84.816	0
1	22071802	28	High	1.5	Vague	2	10	16	26	16.2	35.8	9.4	26	10	16	9.4	16.2	35.8	2	1.007	0.000	R	16	35.8	85.318	86.358	87.365	87.368	0
1	22071802	29	High	1.5	Precise	1	18	16	7	24.3	35.8	0.8	16	7	18	35.8	0.8	24.3	2	0.827	0.000	L	16	35.8	87.871	90.227	91.053	91.056	0
1	22071802	30	High	1.5	Vague	2	12	10	26	10.3	16.2	9.4	26	12	10	9.4	10.3	16.2	1	1.418	0.000	D	12	10.3	91.558	93.396	94.814	94.816	0
1	22071802	31	High	1.5	Vague	2	15	16	26	13.4	35.8	9.4	26	16	15	9.4	35.8	13.4	2	0.811	0.001	D	16	35.8	95.319	97.699	98.510	98.512	0
1	22071802	32	High	1.5	Precise	1	12	17	14	10.3	43.6	7.9	17	14	12	43.6	7.9	10.3	2	0.848	0.001	L	17	43.6	99.015	101.078	101.926	101.928	0
1	22071802	33	High	1.5	Precise	1	16	17	3	35.8	43.6	1.4	16	3	17	35.8	1.4	43.6	2	0.956	0.000	R	17	43.6	102.431	103.345	104.301	104.304	0
1	22071802	34	High	1.5	Vague	2	15	10	25	13.4	16.2	8.4	15	10	25	13.4	16.2	8.4	2	0.959	0.000	D	10	16.2	104.807	107.735	108.694	108.696	0
1	22071802	35	High	1.5	Vague	2	12	10	23	10.3	16.2	0.4	10	12	23	16.2	10.3	0.4	2	1.247	0.000	L	10	16.2	109.199	111.694	112.942	112.944	0
1	22071802	36	High	1.5	Vague	2	12	10	25	10.3	16.2	8.4	12	10	25	10.3	16.2	8.4	2	1.094	0.000	D	10	16.2	113.447	116.056	117.150	117.152	0
1	22071802	37	High	1.5	Precise	1	18	17	8	24.3	43.6	2.3	18	17	8	24.3	43.6	2.3	2	0.778	0.000	D	17	43.6	117.654	118.492	119.270	119.272	0
1	22071802	38	High	1.5	Precise	1	12	17	9	10.3	43.6	4.9	9	12	17	4.9	10.3	43.6	2	0.762	0.001	R	17	43.6	119.774	121.220	121.982	121.984	0
1	22071802	39	High	1.5	Precise	1	12	15	3	10.3	13.4	1.4	3	15	12	1.4	13.4	10.3	NaN	NaN	NaN	NaN	NaN	NaN	122.487	125.349	NaN	126.836	1
1	22071802	40	High	1.5	Vague	2	10	16	24	16.2	35.8	1.3	16	24	10	35.8	1.3	16.2	2	0.969	0.001	L	16	35.8	128.838	130.100	131.070	131.073	0
1	22071802	41	High	1.5	Precise	1	12	10	9	10.3	16.2	4.9	9	12	10	4.9	10.3	16.2	2	1.052	0.001	R	10	16.2	131.575	133.978	135.030	135.032	0
1	22071802	42	High	1.5	Vague	2	15	18	22	13.4	24.3	3.2	18	15	22	24.3	13.4	3.2	1	1.314	0.000	D	15	13.4	135.535	137.324	138.638	138.640	0
1	22071802	43	High	1.5	Precise	1	15	18	5	13.4	24.3	1.9	5	15	18	1.9	13.4	24.3	3	1.381	0.000	L	5	1.9	139.142	141.785	143.166	143.168	0
1	22071802	44	High	1.5	Precise	1	12	10	7	10.3	16.2	0.8	10	7	12	16.2	0.8	10.3	2	1.349	0.000	L	10	16.2	143.671	145.672	147.022	147.024	0
1	22071802	45	High	1.5	Vague	2	15	17	22	13.4	43.6	3.2	15	22	17	13.4	3.2	43.6	2	0.688	0.000	R	17	43.6	147.527	148.094	148.782	148.785	0
1	22071802	46	High	1.5	Vague	2	10	16	23	16.2	35.8	0.4	10	23	16	16.2	0.4	35.8	2	0.809	0.001	R	16	35.8	149.287	152.173	152.982	152.984	0
1	22071802	47	High	1.5	Vague	2	15	16	25	13.4	35.8	8.4	16	25	15	35.8	8.4	13.4	2	0.907	0.000	L	16	35.8	153.487	154.163	155.070	155.072	0
1	22071802	48	High	1.5	Vague	2	12	16	24	10.3	35.8	1.3	16	12	24	35.8	10.3	1.3	2	0.866	0.000	L	16	35.8	155.575	156.947	157.813	157.816	0
1	22071802	49	High	1.5	Vague	2	12	18	23	10.3	24.3	0.4	23	12	18	0.4	10.3	24.3	2	1.112	0.000	R	18	24.3	158.319	159.349	160.461	160.464	0
1	22071802	50	High	1.5	Precise	1	10	17	9	16.2	43.6	4.9	9	10	17	4.9	16.2	43.6	2	0.774	0.000	R	17	43.6	160.966	162.239	163.013	163.016	0
1	22071802	51	High	1.5	Precise	1	10	16	14	16.2	35.8	7.9	14	16	10	7.9	35.8	16.2	2	0.847	0.000	D	16	35.8	163.520	164.959	165.806	165.808	0
1	22071802	52	High	1.5	Vague	2	15	16	32	13.4	35.8	7.1	16	32	15	35.8	7.1	13.4	2	1.018	0.000	L	16	35.8	166.310	167.523	168.542	168.544	0
1	22071802	53	High	1.5	Precise	1	15	16	7	13.4	35.8	0.8	15	7	16	13.4	0.8	35.8	2	0.620	0.000	R	16	35.8	169.047	170.050	170.670	170.672	0
1	22071802	54	High	1.5	Precise	1	10	17	14	16.2	43.6	7.9	17	14	10	43.6	7.9	16.2	2	0.864	0.000	L	17	43.6	171.175	173.382	174.245	174.248	0
1	22071802	55	High	1.5	Vague	2	18	17	22	24.3	43.6	3.2	22	18	17	3.2	24.3	43.6	2	0.685	0.000	R	17	43.6	174.750	176.080	176.765	176.768	0
1	22071802	56	High	1.5	Vague	2	12	18	26	10.3	24.3	9.4	12	26	18	10.3	9.4	24.3	2	1.096	0.000	R	18	24.3	177.271	178.286	179.382	179.384	0
1	22071802	57	High	1.5	Precise	1	10	17	7	16.2	43.6	0.8	7	17	10	0.8	43.6	16.2	2	0.957	0.000	D	17	43.6	179.887	180.937	181.894	181.896	0
1	22071802	58	High	1.5	Precise	1	10	16	9	16.2	35.8	4.9	9	16	10	4.9	35.8	16.2	2	1.083	0.000	D	16	35.8	182.399	185.202	186.286	186.288	0
1	22071802	59	High	1.5	Precise	1	18	16	3	24.3	35.8	1.4	3	16	18	1.4	35.8	24.3	2	1.003	0.000	D	16	35.8	186.790	189.442	190.446	190.448	0
1	22071802	60	High	1.5	Precise	1	15	10	5	13.4	16.2	1.9	5	10	15	1.9	16.2	13.4	2	1.076	0.001	D	10	16.2	190.950	192.513	193.590	193.592	0
1	22071802	61	High	1.5	Precise	1	15	10	14	13.4	16.2	7.9	15	10	14	13.4	16.2	7.9	2	0.805	0.000	D	10	16.2	209.825	211.369	212.174	212.176	0
1	22071802	62	High	1.5	Vague	2	10	16	32	16.2	35.8	7.1	10	32	16	16.2	7.1	35.8	2	0.764	0.000	R	16	35.8	212.679	214.970	215.733	215.736	0
1	22071802	63	High	1.5	Vague	2	16	17	23	35.8	43.6	0.4	17	16	23	43.6	35.8	0.4	2	0.871	0.000	L	17	43.6	216.239	218.182	219.054	219.056	0
1	22071802	64	High	1.5	Precise	1	10	18	8	16.2	24.3	2.3	8	10	18	2.3	16.2	24.3	1	1.042	0.000	D	10	16.2	219.559	220.539	221.582	221.584	0
1	22071802	65	High	1.5	Precise	1	16	17	9	35.8	43.6	4.9	16	9	17	35.8	4.9	43.6	2	0.743	0.000	R	17	43.6	222.087	224.166	224.909	224.912	0
1	22071802	66	High	1.5	Precise	1	15	10	8	13.4	16.2	2.3	8	15	10	2.3	13.4	16.2	1	1.456	0.000	D	15	13.4	225.414	226.614	228.070	228.072	0
1	22071802	67	High	1.5	Precise	1	12	10	5	10.3	16.2	1.9	10	5	12	16.2	1.9	10.3	2	0.847	0.001	L	10	16.2	228.574	231.518	232.366	232.368	0
1	22071802	68	High	1.5	Vague	2	18	16	32	24.3	35.8	7.1	16	18	32	35.8	24.3	7.1	1	1.163	0.001	D	18	24.3	232.871	234.011	235.174	235.176	0
1	22071802	69	High	1.5	Vague	2	10	17	24	16.2	43.6	1.3	10	17	24	16.2	43.6	1.3	2	0.802	0.001	D	17	43.6	235.679	237.732	238.534	238.536	0
1	22071802	70	High	1.5	Precise	1	10	18	7	16.2	24.3	0.8	18	10	7	24.3	16.2	0.8	2	1.039	0.000	L	18	24.3	239.039	240.350	241.389	241.393	0
1	22071802	71	High	1.5	Precise	1	12	18	7	10.3	24.3	0.8	18	12	7	24.3	10.3	0.8	2	1.388	0.000	L	18	24.3	241.895	244.362	245.749	245.752	0
1	22071802	72	High	1.5	Vague	2	15	10	22	13.4	16.2	3.2	15	22	10	13.4	3.2	16.2	NaN	NaN	NaN	NaN	NaN	NaN	246.255	247.596	NaN	249.085	1
1	22071802	73	High	1.5	Vague	2	15	17	23	13.4	43.6	0.4	17	15	23	43.6	13.4	0.4	2	0.698	0.000	L	17	43.6	251.089	253.292	253.990	253.992	0
1	22071802	74	High	1.5	Precise	1	12	17	5	10.3	43.6	1.9	17	5	12	43.6	1.9	10.3	2	0.798	0.000	L	17	43.6	254.494	256.040	256.838	256.840	0
1	22071802	75	High	1.5	Precise	1	12	15	7	10.3	13.4	0.8	15	7	12	13.4	0.8	10.3	3	1.333	0.001	D	7	0.8	257.343	259.049	260.382	260.384	0
1	22071802	76	High	1.5	Vague	2	12	18	22	10.3	24.3	3.2	18	12	22	24.3	10.3	3.2	2	1.047	0.000	L	18	24.3	260.887	263.750	264.798	264.800	0
1	22071802	77	High	1.5	Vague	2	15	16	24	13.4	35.8	1.3	16	15	24	35.8	13.4	1.3	2	0.641	0.001	L	16	35.8	265.303	266.557	267.198	267.200	0
1	22071802	78	High	1.5	Vague	2	16	17	32	35.8	43.6	7.1	17	32	16	43.6	7.1	35.8	2	0.718	0.000	L	17	43.6	267.702	270.607	271.326	271.328	0
1	22071802	79	High	1.5	Precise	1	18	17	14	24.3	43.6	7.9	17	18	14	43.6	24.3	7.9	2	0.697	0.001	L	17	43.6	271.830	274.701	275.398	275.400	0
1	22071802	80	High	1.5	Precise	1	12	15	9	10.3	13.4	4.9	12	9	15	10.3	4.9	13.4	NaN	NaN	NaN	NaN	NaN	NaN	275.903	276.650	NaN	278.136	1
1	22071802	81	High	1.5	Vague	2	12	10	22	10.3	16.2	3.2	10	12	22	16.2	10.3	3.2	2	0.754	0.001	L	10	16.2	280.139	281.932	282.686	282.688	0
1	22071802	82	High	1.5	Vague	2	10	17	26	16.2	43.6	9.4	17	26	10	43.6	9.4	16.2	2	0.819	0.000	L	17	43.6	283.191	283.706	284.525	284.528	0
1	22071802	83	High	1.5	Precise	1	12	18	9	10.3	24.3	4.9	12	9	18	10.3	4.9	24.3	1	1.352	0.000	L	12	10.3	285.031	287.877	289.229	289.232	0
1	22071802	84	High	1.5	Precise	1	18	17	3	24.3	43.6	1.4	17	18	3	43.6	24.3	1.4	2	0.648	0.000	L	17	43.6	289.735	290.437	291.086	291.088	0
1	22071802	85	High	1.5	Vague	2	12	15	23	10.3	13.4	0.4	23	12	15	0.4	10.3	13.4	2	1.094	0.001	R	15	13.4	291.591	293.544	294.638	294.640	0
1	22071802	86	High	1.5	Precise	1	12	18	5	10.3	24.3	1.9	12	18	5	10.3	24.3	1.9	1	1.177	0.000	L	12	10.3	295.142	296.949	298.126	298.128	0
1	22071802	87	High	1.5	Vague	2	12	16	22	10.3	35.8	3.2	22	16	12	3.2	35.8	10.3	2	0.955	0.000	D	16	35.8	298.630	299.154	300.109	300.112	0
1	22071802	88	High	1.5	Precise	1	12	15	8	10.3	13.4	2.3	15	8	12	13.4	2.3	10.3	2	1.241	0.000	L	15	13.4	300.614	303.508	304.749	304.752	0
1	22071802	89	High	1.5	Vague	2	16	17	22	35.8	43.6	3.2	17	22	16	43.6	3.2	35.8	2	0.586	0.000	L	17	43.6	305.255	307.748	308.333	308.336	0
1	22071802	90	High	1.5	Precise	1	18	16	14	24.3	35.8	7.9	18	14	16	24.3	7.9	35.8	2	0.525	0.000	R	16	35.8	308.839	309.585	310.110	310.112	0
1	22071802	91	High	1.5	Vague	2	12	16	25	10.3	35.8	8.4	25	12	16	8.4	10.3	35.8	2	0.478	0.000	R	16	35.8	310.615	312.048	312.526	312.528	0
1	22071802	92	High	1.5	Vague	2	12	15	24	10.3	13.4	1.3	15	24	12	13.4	1.3	10.3	2	1.259	0.001	L	15	13.4	313.031	314.443	315.702	315.704	0
1	22071802	93	High	1.5	Precise	1	15	16	14	13.4	35.8	7.9	14	15	16	7.9	13.4	35.8	2	0.686	0.001	R	16	35.8	316.207	317.216	317.902	317.904	0
1	22071802	94	High	1.5	Precise	1	10	18	14	16.2	24.3	7.9	14	18	10	7.9	24.3	16.2	1	1.006	0.000	R	10	16.2	318.407	319.056	320.062	320.064	0
1	22071802	95	High	1.5	Vague	2	10	18	32	16.2	24.3	7.1	18	32	10	24.3	7.1	16.2	1	1.033	0.000	R	10	16.2	320.567	322.276	323.309	323.312	0
1	22071802	96	High	1.5	Precise	1	15	17	9	13.4	43.6	4.9	9	17	15	4.9	43.6	13.4	2	0.943	0.000	D	17	43.6	323.815	326.271	327.213	327.216	0
1	22071802	97	High	1.5	Precise	1	15	17	5	13.4	43.6	1.9	17	15	5	43.6	13.4	1.9	2	0.887	0.000	L	17	43.6	327.718	329.430	330.317	330.320	0
1	22071802	98	High	1.5	Vague	2	18	16	22	24.3	35.8	3.2	22	16	18	3.2	35.8	24.3	2	0.812	0.000	D	16	35.8	330.823	331.410	332.222	332.224	0
1	22071802	99	High	1.5	Precise	1	15	17	8	13.4	43.6	2.3	17	8	15	43.6	2.3	13.4	2	0.833	0.000	L	17	43.6	332.727	335.381	336.213	336.216	0
1	22071802	100	High	1.5	Vague	2	15	17	26	13.4	43.6	9.4	26	15	17	9.4	13.4	43.6	2	0.804	0.000	R	17	43.6	336.719	338.961	339.765	339.768	0
1	22071802	101	High	1.5	Precise	1	15	18	9	13.4	24.3	4.9	9	15	18	4.9	13.4	24.3	1	1.292	0.000	D	15	13.4	340.270	341.482	342.773	342.776	0
1	22071802	102	High	1.5	Vague	2	10	17	25	16.2	43.6	8.4	25	17	10	8.4	43.6	16.2	2	0.629	0.001	D	17	43.6	343.278	345.097	345.726	345.728	0
1	22071802	103	High	1.5	Vague	2	16	17	26	35.8	43.6	9.4	26	16	17	9.4	35.8	43.6	2	0.877	0.000	R	17	43.6	346.231	347.576	348.453	348.456	0
1	22071802	104	High	1.5	Vague	2	15	18	24	13.4	24.3	1.3	15	18	24	13.4	24.3	1.3	2	1.115	0.001	D	18	24.3	348.958	349.483	350.598	350.600	0
1	22071802	105	High	1.5	Vague	2	15	10	32	13.4	16.2	7.1	32	10	15	7.1	16.2	13.4	2	1.058	0.001	D	10	16.2	351.102	352.196	353.254	353.256	0
1	22071802	106	High	1.5	Precise	1	12	18	14	10.3	24.3	7.9	14	12	18	7.9	10.3	24.3	2	0.939	0.000	R	18	24.3	353.758	355.282	356.221	356.224	0
1	22071802	107	High	1.5	Vague	2	12	18	32	10.3	24.3	7.1	12	18	32	10.3	24.3	7.1	2	1.057	0.000	D	18	24.3	356.727	358.189	359.246	359.248	0
1	22071802	108	High	1.5	Vague	2	16	17	24	35.8	43.6	1.3	17	24	16	43.6	1.3	35.8	2	0.734	0.000	L	17	43.6	359.750	362.551	363.285	363.288	0
1	22071802	109	High	1.5	Vague	2	10	18	22	16.2	24.3	3.2	18	10	22	24.3	16.2	3.2	1	1.241	0.000	D	10	16.2	363.791	365.460	366.701	366.704	0
1	22071802	110	High	1.5	Precise	1	12	15	5	10.3	13.4	1.9	5	12	15	1.9	10.3	13.4	2	1.342	0.000	R	15	13.4	367.206	368.920	370.261	370.264	0
1	22071802	111	High	1.5	Vague	2	18	17	25	24.3	43.6	8.4	18	25	17	24.3	8.4	43.6	2	0.588	0.000	R	17	43.6	370.766	372.761	373.349	373.352	0
1	22071802	112	High	1.5	Vague	2	12	18	25	10.3	24.3	8.4	12	18	25	10.3	24.3	8.4	2	1.118	0.000	D	18	24.3	373.855	376.287	377.406	377.408	0
1	22071802	113	High	1.5	Vague	2	15	16	23	13.4	35.8	0.4	23	16	15	0.4	35.8	13.4	2	0.786	0.001	D	16	35.8	377.911	380.524	381.310	381.312	0
1	22071802	114	High	1.5	Precise	1	15	18	3	13.4	24.3	1.4	3	18	15	1.4	24.3	13.4	2	1.100	0.000	D	18	24.3	381.815	384.265	385.366	385.368	0
1	22071802	115	High	1.5	Precise	1	12	10	3	10.3	16.2	1.4	10	3	12	16.2	1.4	10.3	2	1.234	0.000	L	10	16.2	385.871	388.484	389.718	389.720	0
1	22071802	116	High	1.5	Precise	1	12	17	7	10.3	43.6	0.8	7	12	17	0.8	10.3	43.6	2	0.778	0.000	R	17	43.6	390.222	391.275	392.053	392.056	0
1	22071802	117	High	1.5	Vague	2	16	17	25	35.8	43.6	8.4	17	16	25	43.6	35.8	8.4	2	0.748	0.001	L	17	43.6	392.559	393.329	394.078	394.080	0
1	22071802	118	High	1.5	Precise	1	12	10	14	10.3	16.2	7.9	10	14	12	16.2	7.9	10.3	2	1.069	0.000	L	10	16.2	394.582	395.376	396.446	396.448	0
1	22071802	119	High	1.5	Precise	1	15	18	7	13.4	24.3	0.8	18	15	7	24.3	13.4	0.8	2	1.261	0.000	L	18	24.3	396.950	398.841	400.101	400.104	0
1	22071802	120	High	1.5	Precise	1	15	16	3	13.4	35.8	1.4	15	16	3	13.4	35.8	1.4	2	0.980	0.000	D	16	35.8	400.606	403.593	404.574	404.576	0
1	22071802	121	High	1.5	Precise	1	18	17	7	24.3	43.6	0.8	18	7	17	24.3	0.8	43.6	2	0.686	0.000	R	17	43.6	428.668	430.223	430.910	430.912	0
1	22071802	122	High	1.5	Precise	1	15	10	7	13.4	16.2	0.8	10	15	7	16.2	13.4	0.8	2	1.031	0.000	L	10	16.2	431.415	431.942	432.974	432.976	0
1	22071802	123	High	1.5	Precise	1	18	16	8	24.3	35.8	2.3	16	18	8	35.8	24.3	2.3	2	0.872	0.000	L	16	35.8	433.479	434.262	435.133	435.136	0
1	22071802	124	High	1.5	Vague	2	18	17	32	24.3	43.6	7.1	18	17	32	24.3	43.6	7.1	2	0.714	0.001	D	17	43.6	435.639	437.124	437.838	437.840	0
1	22071802	125	High	1.5	Precise	1	10	16	8	16.2	35.8	2.3	8	16	10	2.3	35.8	16.2	2	0.715	0.000	D	16	35.8	438.343	439.787	440.502	440.504	0
1	22071802	126	High	1.5	Precise	1	10	16	5	16.2	35.8	1.9	16	5	10	35.8	1.9	16.2	2	0.688	0.000	L	16	35.8	441.006	441.621	442.309	442.312	0
1	22071802	127	High	1.5	Vague	2	10	17	32	16.2	43.6	7.1	32	10	17	7.1	16.2	43.6	2	0.703	0.000	R	17	43.6	442.814	443.775	444.477	444.480	0
1	22071802	128	High	1.5	Vague	2	12	17	22	10.3	43.6	3.2	12	17	22	10.3	43.6	3.2	2	0.693	0.000	D	17	43.6	444.982	447.792	448.486	448.488	0
1	22071802	129	High	1.5	Precise	1	10	18	9	16.2	24.3	4.9	18	9	10	24.3	4.9	16.2	1	0.969	0.000	R	10	16.2	448.991	450.277	451.246	451.248	0
1	22071802	130	High	1.5	Vague	2	12	17	26	10.3	43.6	9.4	12	26	17	10.3	9.4	43.6	2	0.952	0.000	R	17	43.6	451.750	453.774	454.725	454.728	0
1	22071802	131	High	1.5	Precise	1	15	18	8	13.4	24.3	2.3	18	8	15	24.3	2.3	13.4	1	1.280	0.000	R	15	13.4	455.230	458.005	459.285	459.288	0
1	22071802	132	High	1.5	Precise	1	18	16	9	24.3	35.8	4.9	18	9	16	24.3	4.9	35.8	2	0.584	0.000	R	16	35.8	459.790	461.925	462.509	462.512	0
1	22071802	133	High	1.5	Precise	1	12	16	9	10.3	35.8	4.9	16	9	12	35.8	4.9	10.3	2	0.666	0.001	L	16	35.8	463.015	464.891	465.558	465.560	0
1	22071802	134	High	1.5	Vague	2	18	17	24	24.3	43.6	1.3	17	24	18	43.6	1.3	24.3	2	0.584	0.000	L	17	43.6	466.063	468.853	469.437	469.440	0
1	22071802	135	High	1.5	Precise	1	12	18	3	10.3	24.3	1.4	3	12	18	1.4	10.3	24.3	2	1.401	0.000	R	18	24.3	469.943	470.733	472.133	472.136	0
1	22071802	136	High	1.5	Vague	2	10	16	25	16.2	35.8	8.4	16	10	25	35.8	16.2	8.4	2	0.654	0.000	L	16	35.8	472.639	474.760	475.414	475.416	0
1	22071802	137	High	1.5	Vague	2	12	17	25	10.3	43.6	8.4	17	12	25	43.6	10.3	8.4	2	0.799	0.000	L	17	43.6	475.918	476.663	477.462	477.464	0
1	22071802	138	High	1.5	Precise	1	10	18	3	16.2	24.3	1.4	10	18	3	16.2	24.3	1.4	1	0.905	0.001	L	10	16.2	477.967	479.253	480.158	480.160	0
1	22071802	139	High	1.5	Vague	2	15	18	25	13.4	24.3	8.4	25	15	18	8.4	13.4	24.3	NaN	NaN	NaN	NaN	NaN	NaN	480.663	481.998	NaN	483.488	1
1	22071802	140	High	1.5	Vague	2	12	16	32	10.3	35.8	7.1	16	32	12	35.8	7.1	10.3	2	0.578	0.000	L	16	35.8	485.492	486.972	487.549	487.552	0
1	22071802	141	High	1.5	Vague	2	12	17	23	10.3	43.6	0.4	23	17	12	0.4	43.6	10.3	2	0.784	0.001	D	17	43.6	488.055	490.174	490.958	490.960	0
1	22071802	142	High	1.5	Precise	1	15	18	14	13.4	24.3	7.9	18	15	14	24.3	13.4	7.9	2	0.981	0.000	L	18	24.3	491.462	494.025	495.006	495.008	0
1	22071802	143	High	1.5	Precise	1	16	17	14	35.8	43.6	7.9	14	16	17	7.9	35.8	43.6	2	0.835	0.000	R	17	43.6	495.510	497.402	498.238	498.240	0
1	22071802	144	High	1.5	Precise	1	10	18	5	16.2	24.3	1.9	18	10	5	24.3	16.2	1.9	1	0.874	0.000	D	10	16.2	498.743	500.411	501.285	501.288	0
1	22071802	145	High	1.5	Vague	2	12	10	24	10.3	16.2	1.3	10	24	12	16.2	1.3	10.3	2	0.717	0.000	L	10	16.2	501.791	504.217	504.933	504.936	0
1	22071802	146	High	1.5	Precise	1	18	16	5	24.3	35.8	1.9	18	16	5	24.3	35.8	1.9	2	0.773	0.000	D	16	35.8	505.439	507.961	508.734	508.736	0
1	22071802	147	High	1.5	Precise	1	10	17	8	16.2	43.6	2.3	8	17	10	2.3	43.6	16.2	2	0.772	0.000	D	17	43.6	509.238	510.257	511.029	511.032	0
1	22071802	148	High	1.5	Vague	2	10	18	26	16.2	24.3	9.4	26	10	18	9.4	16.2	24.3	1	0.973	0.001	D	10	16.2	511.534	513.409	514.382	514.384	0
1	22071802	149	High	1.5	Vague	2	18	16	24	24.3	35.8	1.3	16	24	18	35.8	1.3	24.3	2	0.597	0.000	L	16	35.8	514.886	515.600	516.197	516.200	0
1	22071802	150	High	1.5	Precise	1	16	17	8	35.8	43.6	2.3	8	16	17	2.3	35.8	43.6	2	0.663	0.000	R	17	43.6	516.702	518.174	518.838	518.840	0
1	22071802	151	High	1.5	Precise	1	15	17	7	13.4	43.6	0.8	17	7	15	43.6	0.8	13.4	2	0.558	0.000	L	17	43.6	519.343	521.903	522.461	522.464	0
1	22071802	152	High	1.5	Vague	2	15	10	23	13.4	16.2	0.4	15	23	10	13.4	0.4	16.2	1	0.832	0.000	L	15	13.4	522.967	525.374	526.206	526.208	0
1	22071802	153	High	1.5	Precise	1	10	16	7	16.2	35.8	0.8	16	7	10	35.8	0.8	16.2	2	0.786	0.000	L	16	35.8	526.711	528.155	528.941	528.944	0
1	22071802	154	High	1.5	Vague	2	15	17	24	13.4	43.6	1.3	24	17	15	1.3	43.6	13.4	2	0.674	0.000	D	17	43.6	529.446	531.236	531.909	531.912	0
1	22071802	155	High	1.5	Vague	2	10	18	23	16.2	24.3	0.4	18	23	10	24.3	0.4	16.2	1	0.915	0.001	R	10	16.2	532.414	534.427	535.342	535.344	0
1	22071802	156	High	1.5	Precise	1	12	16	3	10.3	35.8	1.4	3	12	16	1.4	10.3	35.8	2	0.939	0.000	R	16	35.8	535.846	536.674	537.614	537.616	0
1	22071802	157	High	1.5	Precise	1	15	10	9	13.4	16.2	4.9	10	15	9	16.2	13.4	4.9	2	1.043	0.000	L	10	16.2	538.118	539.162	540.205	540.208	0
1	22071802	158	High	1.5	Vague	2	10	17	22	16.2	43.6	3.2	10	17	22	16.2	43.6	3.2	2	0.692	0.000	D	17	43.6	540.710	543.345	544.038	544.040	0
1	22071802	159	High	1.5	Vague	2	10	18	25	16.2	24.3	8.4	18	25	10	24.3	8.4	16.2	1	1.139	0.000	R	10	16.2	544.542	546.298	547.437	547.440	0
1	22071802	160	High	1.5	Vague	2	18	16	26	24.3	35.8	9.4	16	26	18	35.8	9.4	24.3	2	0.654	0.000	L	16	35.8	547.942	550.000	550.653	550.656	0
1	22071802	161	High	1.5	Precise	1	15	16	9	13.4	35.8	4.9	15	9	16	13.4	4.9	35.8	2	0.814	0.000	R	16	35.8	551.158	552.447	553.261	553.264	0
1	22071802	162	High	1.5	Vague	2	10	16	22	16.2	35.8	3.2	16	22	10	35.8	3.2	16.2	2	0.782	0.000	L	16	35.8	553.766	555.296	556.077	556.080	0
1	22071802	163	High	1.5	Vague	2	15	18	32	13.4	24.3	7.1	18	15	32	24.3	13.4	7.1	NaN	NaN	NaN	NaN	NaN	NaN	556.583	558.920	NaN	560.406	1
1	22071802	164	High	1.5	Precise	1	12	16	14	10.3	35.8	7.9	14	12	16	7.9	10.3	35.8	2	0.708	0.001	R	16	35.8	562.409	565.113	565.821	565.824	0
1	22071802	165	High	1.5	Precise	1	16	17	7	35.8	43.6	0.8	7	17	16	0.8	43.6	35.8	1	0.798	0.000	R	16	35.8	566.327	566.952	567.749	567.752	0
1	22071802	166	High	1.5	Vague	2	15	16	22	13.4	35.8	3.2	22	16	15	3.2	35.8	13.4	2	0.818	0.000	D	16	35.8	568.255	569.435	570.253	570.256	0
1	22071802	167	High	1.5	Vague	2	10	18	24	16.2	24.3	1.3	24	10	18	1.3	16.2	24.3	1	0.779	0.000	D	10	16.2	570.758	573.074	573.853	573.856	0
1	22071802	168	High	1.5	Precise	1	15	16	5	13.4	35.8	1.9	5	16	15	1.9	35.8	13.4	2	0.753	0.001	D	16	35.8	574.358	576.853	577.606	577.608	0
1	22071802	169	High	1.5	Precise	1	16	17	5	35.8	43.6	1.9	5	17	16	1.9	43.6	35.8	2	0.675	0.001	D	17	43.6	578.111	579.379	580.054	580.056	0
1	22071802	170	High	1.5	Vague	2	10	17	23	16.2	43.6	0.4	23	17	10	0.4	43.6	16.2	2	0.641	0.000	D	17	43.6	580.559	581.604	582.245	582.248	0
1	22071802	171	High	1.5	Vague	2	12	15	26	10.3	13.4	9.4	26	15	12	9.4	13.4	10.3	3	1.157	0.000	L	26	9.4	582.750	583.664	584.822	584.824	0
1	22071802	172	High	1.5	Precise	1	10	16	3	16.2	35.8	1.4	3	16	10	1.4	35.8	16.2	2	0.712	0.000	D	16	35.8	585.326	587.557	588.270	588.272	0
1	22071802	173	High	1.5	Vague	2	12	15	25	10.3	13.4	8.4	25	12	15	8.4	10.3	13.4	3	1.151	0.000	L	25	8.4	588.775	591.374	592.526	592.528	0
1	22071802	174	High	1.5	Vague	2	12	17	24	10.3	43.6	1.3	17	24	12	43.6	1.3	10.3	2	0.869	0.001	L	17	43.6	593.031	593.696	594.565	594.568	0
1	22071802	175	High	1.5	Precise	1	10	17	5	16.2	43.6	1.9	10	5	17	16.2	1.9	43.6	2	0.593	0.000	R	17	43.6	595.071	596.764	597.357	597.360	0
1	22071802	176	High	1.5	Precise	1	12	10	8	10.3	16.2	2.3	10	8	12	16.2	2.3	10.3	2	1.348	0.000	L	10	16.2	597.862	599.833	601.181	601.184	0
1	22071802	177	High	1.5	Vague	2	18	17	26	24.3	43.6	9.4	18	26	17	24.3	9.4	43.6	2	0.785	0.001	R	17	43.6	601.686	604.180	604.965	604.968	0
1	22071802	178	High	1.5	Vague	2	18	17	23	24.3	43.6	0.4	23	17	18	0.4	43.6	24.3	2	0.545	0.000	D	17	43.6	605.470	607.093	607.637	607.640	0
1	22071802	179	High	1.5	Precise	1	12	16	5	10.3	35.8	1.9	5	12	16	1.9	10.3	35.8	2	0.811	0.000	R	16	35.8	608.142	610.530	611.341	611.344	0
1	22071802	180	High	1.5	Precise	1	12	17	8	10.3	43.6	2.3	17	12	8	43.6	10.3	2.3	2	0.640	0.000	L	17	43.6	611.846	612.749	613.389	613.392	0
1	22071802	181	Low	10.0	Precise	1	10	17	13	16.2	43.6	4.3	17	10	13	43.6	16.2	4.3	2	1.009	0.000	L	17	43.6	640.304	643.284	644.294	644.296	0
1	22071802	182	Low	10.0	Precise	1	16	17	2	35.8	43.6	0.5	16	2	17	35.8	0.5	43.6	2	0.714	0.000	R	17	43.6	644.798	646.363	647.077	647.080	0
1	22071802	183	Low	10.0	Vague	2	12	16	19	10.3	35.8	1.6	19	12	16	1.6	10.3	35.8	2	2.152	0.000	R	16	35.8	647.583	648.109	650.261	650.264	0
1	22071802	184	Low	10.0	Vague	2	16	17	28	35.8	43.6	8.7	17	28	16	43.6	8.7	35.8	2	1.326	0.001	L	17	43.6	650.767	653.431	654.757	654.760	0
1	22071802	185	Low	10.0	Vague	2	15	16	20	13.4	35.8	0.9	16	15	20	35.8	13.4	0.9	2	1.016	0.000	L	16	35.8	655.263	657.125	658.141	658.144	0
1	22071802	186	Low	10.0	Vague	2	15	17	28	13.4	43.6	8.7	17	28	15	43.6	8.7	13.4	2	1.738	0.000	L	17	43.6	658.646	659.907	661.645	661.648	0
1	22071802	187	Low	10.0	Vague	2	12	15	27	10.3	13.4	4.9	15	12	27	13.4	10.3	4.9	1	3.643	0.000	D	12	10.3	662.150	664.466	668.109	668.112	0
1	22071802	188	Low	10.0	Vague	2	15	17	21	13.4	43.6	0.4	17	21	15	43.6	0.4	13.4	2	0.846	0.000	L	17	43.6	668.614	669.535	670.381	670.384	0
1	22071802	189	Low	10.0	Precise	1	16	17	13	35.8	43.6	4.3	16	17	13	35.8	43.6	4.3	2	1.580	0.000	D	17	43.6	670.887	672.433	674.013	674.016	0
1	22071802	190	Low	10.0	Precise	1	18	17	2	24.3	43.6	0.5	2	18	17	0.5	24.3	43.6	2	1.851	0.001	R	17	43.6	674.518	676.075	677.925	677.928	0
1	22071802	191	Low	10.0	Vague	2	12	17	36	10.3	43.6	8.1	17	12	36	43.6	10.3	8.1	2	1.226	0.000	L	17	43.6	678.430	678.956	680.181	680.184	0
1	22071802	192	Low	10.0	Precise	1	12	10	1	10.3	16.2	1.0	10	1	12	16.2	1.0	10.3	2	1.345	0.000	L	10	16.2	680.686	681.412	682.757	682.760	0
1	22071802	193	Low	10.0	Vague	2	12	15	21	10.3	13.4	0.4	15	21	12	13.4	0.4	10.3	1	2.816	0.000	R	12	10.3	683.262	685.229	688.045	688.048	0
1	22071802	194	Low	10.0	Vague	2	12	17	21	10.3	43.6	0.4	12	17	21	10.3	43.6	0.4	2	1.185	0.000	D	17	43.6	688.550	690.332	691.517	691.520	0
1	22071802	195	Low	10.0	Precise	1	12	16	2	10.3	35.8	0.5	2	12	16	0.5	10.3	35.8	2	1.261	0.000	R	16	35.8	692.023	693.416	694.677	694.680	0
1	22071802	196	Low	10.0	Vague	2	10	16	36	16.2	35.8	8.1	16	10	36	35.8	16.2	8.1	2	1.566	0.000	L	16	35.8	695.182	695.871	697.437	697.439	0
1	22071802	197	Low	10.0	Precise	1	12	15	13	10.3	13.4	4.3	15	13	12	13.4	4.3	10.3	1	2.638	0.000	R	12	10.3	697.942	699.536	702.173	702.176	0
1	22071802	198	Low	10.0	Precise	1	15	16	2	13.4	35.8	0.5	15	16	2	13.4	35.8	0.5	2	0.981	0.000	D	16	35.8	702.679	704.344	705.325	705.328	0
1	22071802	199	Low	10.0	Precise	1	15	10	1	13.4	16.2	1.0	1	15	10	1.0	13.4	16.2	2	1.215	0.000	R	10	16.2	705.830	706.455	707.669	707.672	0
1	22071802	200	Low	10.0	Precise	1	10	16	11	16.2	35.8	1.5	16	11	10	35.8	1.5	16.2	2	1.020	0.000	L	16	35.8	708.175	709.921	710.941	710.943	0
1	22071802	201	Low	10.0	Precise	1	12	10	13	10.3	16.2	4.3	13	12	10	4.3	10.3	16.2	2	1.415	0.000	R	10	16.2	711.446	713.079	714.493	714.496	0
1	22071802	202	Low	10.0	Precise	1	10	18	6	16.2	24.3	2.0	10	6	18	16.2	2.0	24.3	1	2.174	0.000	L	10	16.2	714.999	717.367	719.541	719.544	0
1	22071802	203	Low	10.0	Vague	2	18	16	27	24.3	35.8	4.9	27	16	18	4.9	35.8	24.3	2	1.067	0.000	D	16	35.8	720.046	721.602	722.669	722.672	0
1	22071802	204	Low	10.0	Precise	1	15	10	6	13.4	16.2	2.0	10	6	15	16.2	2.0	13.4	2	3.156	0.000	L	10	16.2	723.175	724.305	727.461	727.464	0
1	22071802	205	Low	10.0	Vague	2	15	17	20	13.4	43.6	0.9	20	17	15	0.9	43.6	13.4	2	0.818	0.000	D	17	43.6	727.967	729.012	729.830	729.832	0
1	22071802	206	Low	10.0	Vague	2	10	18	21	16.2	24.3	0.4	21	10	18	0.4	16.2	24.3	2	1.486	0.000	R	18	24.3	730.334	731.408	732.893	732.896	0
1	22071802	207	Low	10.0	Vague	2	12	18	21	10.3	24.3	0.4	12	18	21	10.3	24.3	0.4	2	1.440	0.000	D	18	24.3	733.398	734.877	736.318	736.320	0
1	22071802	208	Low	10.0	Vague	2	12	16	28	10.3	35.8	8.7	28	12	16	8.7	10.3	35.8	2	0.911	0.000	R	16	35.8	736.823	737.630	738.541	738.544	0
1	22071802	209	Low	10.0	Vague	2	15	10	19	13.4	16.2	1.6	10	19	15	16.2	1.6	13.4	2	1.991	0.000	L	10	16.2	739.046	741.062	743.053	743.055	0
1	22071802	210	Low	10.0	Precise	1	15	10	13	13.4	16.2	4.3	13	15	10	4.3	13.4	16.2	2	2.249	0.000	R	10	16.2	743.558	744.684	746.933	746.936	0
1	22071802	211	Low	10.0	Vague	2	15	17	19	13.4	43.6	1.6	19	15	17	1.6	13.4	43.6	2	1.307	0.000	R	17	43.6	747.438	748.842	750.149	750.152	0
1	22071802	212	Low	10.0	Vague	2	10	16	20	16.2	35.8	0.9	10	16	20	16.2	35.8	0.9	2	1.158	0.000	D	16	35.8	750.654	751.447	752.605	752.608	0
1	22071802	213	Low	10.0	Precise	1	10	18	4	16.2	24.3	6.2	18	4	10	24.3	6.2	16.2	1	2.952	0.000	R	10	16.2	753.110	755.805	758.757	758.760	0
1	22071802	214	Low	10.0	Vague	2	15	16	28	13.4	35.8	8.7	16	15	28	35.8	13.4	8.7	2	2.093	0.001	L	16	35.8	759.262	760.337	762.430	762.432	0
1	22071802	215	Low	10.0	Precise	1	10	18	11	16.2	24.3	1.5	18	10	11	24.3	16.2	1.5	1	2.480	0.001	D	10	16.2	762.935	763.990	766.470	766.472	0
1	22071802	216	Low	10.0	Precise	1	10	16	13	16.2	35.8	4.3	10	16	13	16.2	35.8	4.3	2	1.036	0.001	D	16	35.8	766.975	767.514	768.550	768.552	0
1	22071802	217	Low	10.0	Vague	2	12	17	19	10.3	43.6	1.6	12	19	17	10.3	1.6	43.6	2	1.227	0.000	R	17	43.6	769.054	771.675	772.901	772.904	0
1	22071802	218	Low	10.0	Precise	1	12	18	11	10.3	24.3	1.5	11	12	18	1.5	10.3	24.3	2	1.487	0.000	R	18	24.3	773.407	774.351	775.837	775.840	0
1	22071802	219	Low	10.0	Vague	2	18	16	36	24.3	35.8	8.1	18	16	36	24.3	35.8	8.1	2	1.378	0.000	D	16	35.8	776.343	777.395	778.773	778.776	0
1	22071802	220	Low	10.0	Vague	2	10	17	36	16.2	43.6	8.1	10	17	36	16.2	43.6	8.1	2	1.487	0.000	D	17	43.6	779.279	782.039	783.525	783.528	0
1	22071802	221	Low	10.0	Precise	1	15	18	11	13.4	24.3	1.5	18	11	15	24.3	1.5	13.4	2	1.662	0.001	L	18	24.3	784.031	785.024	786.685	786.688	0
1	22071802	222	Low	10.0	Vague	2	12	17	28	10.3	43.6	8.7	17	28	12	43.6	8.7	10.3	2	1.463	0.000	L	17	43.6	787.191	790.110	791.573	791.576	0
1	22071802	223	Low	10.0	Precise	1	12	17	6	10.3	43.6	2.0	17	12	6	43.6	10.3	2.0	2	1.338	0.000	L	17	43.6	792.078	793.355	794.693	794.696	0
1	22071802	224	Low	10.0	Vague	2	12	17	20	10.3	43.6	0.9	17	20	12	43.6	0.9	10.3	2	1.545	0.000	L	17	43.6	795.198	797.540	799.085	799.088	0
1	22071802	225	Low	10.0	Vague	2	18	17	19	24.3	43.6	1.6	19	18	17	1.6	24.3	43.6	2	1.350	0.001	R	17	43.6	799.590	801.415	802.765	802.768	0
1	22071802	226	Low	10.0	Vague	2	15	10	27	13.4	16.2	4.9	15	10	27	13.4	16.2	4.9	2	1.667	0.001	D	10	16.2	803.270	804.203	805.869	805.873	0
1	22071802	227	Low	10.0	Vague	2	16	17	21	35.8	43.6	0.4	16	21	17	35.8	0.4	43.6	1	1.960	0.000	L	16	35.8	806.375	808.086	810.045	810.048	0
1	22071802	228	Low	10.0	Precise	1	18	16	11	24.3	35.8	1.5	18	11	16	24.3	1.5	35.8	2	1.523	0.000	R	16	35.8	810.550	812.522	814.045	814.048	0
1	22071802	229	Low	10.0	Precise	1	12	18	13	10.3	24.3	4.3	18	12	13	24.3	10.3	4.3	2	2.536	0.000	L	18	24.3	814.550	817.437	819.973	819.976	0
1	22071802	230	Low	10.0	Vague	2	18	17	20	24.3	43.6	0.9	17	18	20	43.6	24.3	0.9	2	0.932	0.000	L	17	43.6	820.479	823.297	824.229	824.232	0
1	22071802	231	Low	10.0	Precise	1	15	17	2	13.4	43.6	0.5	2	15	17	0.5	13.4	43.6	2	1.012	0.001	R	17	43.6	824.735	826.969	827.981	827.984	0
1	22071802	232	Low	10.0	Vague	2	15	17	27	13.4	43.6	4.9	15	27	17	13.4	4.9	43.6	2	2.397	0.000	R	17	43.6	828.486	830.001	832.397	832.400	0
1	22071802	233	Low	10.0	Precise	1	15	17	6	13.4	43.6	2.0	6	17	15	2.0	43.6	13.4	2	1.681	0.000	D	17	43.6	832.902	835.789	837.469	837.472	0
1	22071802	234	Low	10.0	Precise	1	16	17	4	35.8	43.6	6.2	4	17	16	6.2	43.6	35.8	1	1.161	0.000	R	16	35.8	837.974	840.364	841.525	841.527	0
1	22071802	235	Low	10.0	Vague	2	15	16	27	13.4	35.8	4.9	27	16	15	4.9	35.8	13.4	2	0.991	0.000	D	16	35.8	842.030	843.046	844.037	844.040	0
1	22071802	236	Low	10.0	Vague	2	12	16	27	10.3	35.8	4.9	27	16	12	4.9	35.8	10.3	2	0.926	0.000	D	16	35.8	844.542	846.615	847.541	847.544	0
1	22071802	237	Low	10.0	Precise	1	18	16	6	24.3	35.8	2.0	6	18	16	2.0	24.3	35.8	2	1.393	0.000	R	16	35.8	848.046	849.452	850.845	850.848	0
1	22071802	238	Low	10.0	Precise	1	10	18	2	16.2	24.3	0.5	10	2	18	16.2	0.5	24.3	2	2.471	0.000	R	18	24.3	851.350	854.183	856.653	856.656	0
1	22071802	239	Low	10.0	Vague	2	15	10	20	13.4	16.2	0.9	15	10	20	13.4	16.2	0.9	2	1.591	0.000	D	10	16.2	857.158	858.415	860.005	860.008	0
1	22071802	240	Low	10.0	Vague	2	16	17	36	35.8	43.6	8.1	16	36	17	35.8	8.1	43.6	2	2.319	0.000	R	17	43.6	860.510	862.302	864.621	864.623	0
1	22071802	241	Low	10.0	Precise	1	15	10	4	13.4	16.2	6.2	15	10	4	13.4	16.2	6.2	2	1.951	0.000	D	10	16.2	871.355	873.598	875.549	875.552	0
1	22071802	242	Low	10.0	Precise	1	12	15	1	10.3	13.4	1.0	15	1	12	13.4	1.0	10.3	1	2.444	0.001	R	12	10.3	876.054	878.769	881.213	881.216	0
1	22071802	243	Low	10.0	Vague	2	15	18	28	13.4	24.3	8.7	15	18	28	13.4	24.3	8.7	2	1.782	0.000	D	18	24.3	881.719	883.983	885.765	885.768	0
1	22071802	244	Low	10.0	Precise	1	15	17	11	13.4	43.6	1.5	11	15	17	1.5	13.4	43.6	2	1.219	0.001	R	17	43.6	886.271	888.106	889.325	889.328	0
1	22071802	245	Low	10.0	Vague	2	18	16	28	24.3	35.8	8.7	18	28	16	24.3	8.7	35.8	2	3.029	0.001	R	16	35.8	889.830	891.657	894.685	894.688	0
1	22071802	246	Low	10.0	Vague	2	15	18	21	13.4	24.3	0.4	15	18	21	13.4	24.3	0.4	2	1.671	0.000	D	18	24.3	895.191	896.734	898.405	898.408	0
1	22071802	247	Low	10.0	Vague	2	15	18	36	13.4	24.3	8.1	15	18	36	13.4	24.3	8.1	2	3.690	0.001	D	18	24.3	898.910	901.563	905.254	905.256	0
1	22071802	248	Low	10.0	Precise	1	15	18	6	13.4	24.3	2.0	18	6	15	24.3	2.0	13.4	2	1.814	0.001	L	18	24.3	905.759	907.856	909.669	909.672	0
1	22071802	249	Low	10.0	Vague	2	12	17	27	10.3	43.6	4.9	17	12	27	43.6	10.3	4.9	2	3.335	0.000	L	17	43.6	910.175	912.238	915.573	915.576	0
1	22071802	250	Low	10.0	Precise	1	15	16	11	13.4	35.8	1.5	11	15	16	1.5	13.4	35.8	2	1.130	0.000	R	16	35.8	916.078	916.995	918.125	918.128	0
1	22071802	251	Low	10.0	Vague	2	15	16	21	13.4	35.8	0.4	16	15	21	35.8	13.4	0.4	2	2.979	0.000	L	16	35.8	918.630	921.298	924.277	924.280	0
1	22071802	252	Low	10.0	Vague	2	18	17	36	24.3	43.6	8.1	18	36	17	24.3	8.1	43.6	2	2.873	0.001	R	17	43.6	924.782	925.820	928.693	928.696	0
1	22071802	253	Low	10.0	Precise	1	18	17	13	24.3	43.6	4.3	17	18	13	43.6	24.3	4.3	2	1.616	0.000	L	17	43.6	929.198	931.748	933.365	933.368	0
1	22071802	254	Low	10.0	Precise	1	12	10	4	10.3	16.2	6.2	4	12	10	6.2	10.3	16.2	2	2.208	0.001	R	10	16.2	933.870	934.526	936.733	936.736	0
1	22071802	255	Low	10.0	Precise	1	10	17	6	16.2	43.6	2.0	17	10	6	43.6	16.2	2.0	2	1.489	0.000	L	17	43.6	937.238	937.828	939.317	939.320	0
1	22071802	256	Low	10.0	Precise	1	15	10	11	13.4	16.2	1.5	10	11	15	16.2	1.5	13.4	2	2.180	0.000	L	10	16.2	939.823	942.217	944.397	944.400	0
1	22071802	257	Low	10.0	Vague	2	12	16	36	10.3	35.8	8.1	16	12	36	35.8	10.3	8.1	2	1.481	0.001	L	16	35.8	944.902	945.652	947.133	947.136	0
1	22071802	258	Low	10.0	Precise	1	10	17	11	16.2	43.6	1.5	10	11	17	16.2	1.5	43.6	2	1.997	0.000	R	17	43.6	947.638	950.256	952.253	952.256	0
1	22071802	259	Low	10.0	Vague	2	10	18	19	16.2	24.3	1.6	10	18	19	16.2	24.3	1.6	2	1.477	0.001	D	18	24.3	952.759	953.705	955.181	955.184	0
1	22071802	260	Low	10.0	Precise	1	12	17	13	10.3	43.6	4.3	12	13	17	10.3	4.3	43.6	2	1.956	0.000	R	17	43.6	955.686	957.809	959.765	959.768	0
1	22071802	261	Low	10.0	Precise	1	15	16	6	13.4	35.8	2.0	6	16	15	2.0	35.8	13.4	2	2.189	0.000	D	16	35.8	960.270	963.032	965.221	965.223	0
1	22071802	262	Low	10.0	Precise	1	12	15	6	10.3	13.4	2.0	15	6	12	13.4	2.0	10.3	1	2.625	0.000	R	12	10.3	965.726	966.332	968.957	968.959	0
1	22071802	263	Low	10.0	Vague	2	10	17	21	16.2	43.6	0.4	10	21	17	16.2	0.4	43.6	2	2.349	0.000	R	17	43.6	969.463	971.456	973.805	973.808	0
1	22071802	264	Low	10.0	Vague	2	18	16	20	24.3	35.8	0.9	16	18	20	35.8	24.3	0.9	2	1.992	0.000	L	16	35.8	974.310	976.477	978.469	978.472	0
1	22071802	265	Low	10.0	Precise	1	12	17	11	10.3	43.6	1.5	11	17	12	1.5	43.6	10.3	2	1.855	0.000	D	17	43.6	978.974	980.991	982.845	982.848	0
1	22071802	266	Low	10.0	Precise	1	15	16	4	13.4	35.8	6.2	16	4	15	35.8	6.2	13.4	2	2.183	0.001	L	16	35.8	983.350	986.199	988.381	988.384	0
1	22071802	267	Low	10.0	Vague	2	12	10	27	10.3	16.2	4.9	10	12	27	16.2	10.3	4.9	2	1.581	0.001	L	10	16.2	988.886	989.976	991.557	991.560	0
1	22071802	268	Low	10.0	Precise	1	12	16	1	10.3	35.8	1.0	16	12	1	35.8	10.3	1.0	2	1.265	0.000	L	16	35.8	992.062	994.844	996.109	996.111	0
1	22071802	269	Low	10.0	Vague	2	12	16	21	10.3	35.8	0.4	12	21	16	10.3	0.4	35.8	2	2.513	0.001	R	16	35.8	996.614	998.869	1001.381	1001.384	0
1	22071802	270	Low	10.0	Vague	2	15	16	36	13.4	35.8	8.1	15	16	36	13.4	35.8	8.1	2	2.603	0.000	D	16	35.8	1001.886	1004.634	1007.237	1007.240	0
1	22071802	271	Low	10.0	Vague	2	16	17	19	35.8	43.6	1.6	16	19	17	35.8	1.6	43.6	1	2.698	0.000	L	16	35.8	1007.742	1009.819	1012.517	1012.519	0
1	22071802	272	Low	10.0	Precise	1	12	18	1	10.3	24.3	1.0	18	1	12	24.3	1.0	10.3	2	2.164	0.000	L	18	24.3	1013.022	1014.785	1016.949	1016.951	0
1	22071802	273	Low	10.0	Precise	1	10	18	13	16.2	24.3	4.3	10	13	18	16.2	4.3	24.3	1	2.435	0.001	L	10	16.2	1017.454	1020.250	1022.685	1022.688	0
1	22071802	274	Low	10.0	Vague	2	10	18	28	16.2	24.3	8.7	28	18	10	8.7	24.3	16.2	2	2.191	0.000	D	18	24.3	1023.190	1024.838	1027.029	1027.032	0
1	22071802	275	Low	10.0	Vague	2	12	16	20	10.3	35.8	0.9	20	16	12	0.9	35.8	10.3	2	1.386	0.000	D	16	35.8	1027.534	1028.731	1030.117	1030.120	0
1	22071802	276	Low	10.0	Precise	1	15	17	13	13.4	43.6	4.3	13	17	15	4.3	43.6	13.4	2	1.831	0.001	D	17	43.6	1030.622	1031.918	1033.749	1033.752	0
1	22071802	277	Low	10.0	Vague	2	10	18	20	16.2	24.3	0.9	10	18	20	16.2	24.3	0.9	1	3.313	0.001	L	10	16.2	1034.254	1036.548	1039.861	1039.864	0
1	22071802	278	Low	10.0	Precise	1	12	15	4	10.3	13.4	6.2	12	15	4	10.3	13.4	6.2	1	3.328	0.000	L	12	10.3	1040.366	1041.397	1044.725	1044.728	0
1	22071802	279	Low	10.0	Vague	2	18	17	28	24.3	43.6	8.7	18	28	17	24.3	8.7	43.6	2	2.381	0.000	R	17	43.6	1045.230	1045.848	1048.229	1048.232	0
1	22071802	280	Low	10.0	Precise	1	12	15	2	10.3	13.4	0.5	15	2	12	13.4	0.5	10.3	1	2.453	0.001	R	12	10.3	1048.734	1050.168	1052.621	1052.624	0
1	22071802	281	Low	10.0	Vague	2	15	18	27	13.4	24.3	4.9	15	27	18	13.4	4.9	24.3	2	2.515	0.000	R	18	24.3	1053.127	1054.579	1057.093	1057.096	0
1	22071802	282	Low	10.0	Precise	1	15	17	1	13.4	43.6	1.0	17	15	1	43.6	13.4	1.0	2	1.113	0.000	L	17	43.6	1057.598	1059.580	1060.693	1060.696	0
1	22071802	283	Low	10.0	Precise	1	10	18	1	16.2	24.3	1.0	10	1	18	16.2	1.0	24.3	2	3.288	0.000	R	18	24.3	1061.198	1061.973	1065.261	1065.264	0
1	22071802	284	Low	10.0	Precise	1	12	16	6	10.3	35.8	2.0	12	16	6	10.3	35.8	2.0	2	1.072	0.000	D	16	35.8	1065.767	1067.589	1068.661	1068.663	0
1	22071802	285	Low	10.0	Vague	2	10	16	27	16.2	35.8	4.9	27	10	16	4.9	16.2	35.8	2	2.296	0.001	R	16	35.8	1069.166	1070.941	1073.237	1073.240	0
1	22071802	286	Low	10.0	Precise	1	15	18	1	13.4	24.3	1.0	1	15	18	1.0	13.4	24.3	2	1.950	0.000	R	18	24.3	1073.742	1074.799	1076.749	1076.751	0
1	22071802	287	Low	10.0	Vague	2	10	17	28	16.2	43.6	8.7	17	28	10	43.6	8.7	16.2	2	1.798	0.000	L	17	43.6	1077.254	1079.575	1081.373	1081.376	0
1	22071802	288	Low	10.0	Precise	1	18	17	1	24.3	43.6	1.0	17	18	1	43.6	24.3	1.0	2	2.608	0.001	L	17	43.6	1081.879	1083.109	1085.717	1085.721	0
1	22071802	289	Low	10.0	Precise	1	10	16	4	16.2	35.8	6.2	16	4	10	35.8	6.2	16.2	2	5.506	0.000	L	16	35.8	1086.223	1089.211	1094.717	1094.719	0
1	22071802	290	Low	10.0	Vague	2	15	16	19	13.4	35.8	1.6	15	19	16	13.4	1.6	35.8	2	1.808	0.000	R	16	35.8	1095.222	1096.749	1098.557	1098.560	0
1	22071802	291	Low	10.0	Precise	1	12	16	4	10.3	35.8	6.2	12	4	16	10.3	6.2	35.8	2	0.917	0.001	R	16	35.8	1099.062	1100.384	1101.301	1101.303	0
1	22071802	292	Low	10.0	Precise	1	15	18	2	13.4	24.3	0.5	18	15	2	24.3	13.4	0.5	2	1.734	0.000	L	18	24.3	1101.806	1104.175	1105.909	1105.912	0
1	22071802	293	Low	10.0	Precise	1	12	15	11	10.3	13.4	1.5	12	11	15	10.3	1.5	13.4	1	3.538	0.000	L	12	10.3	1106.414	1108.251	1111.789	1111.792	0
1	22071802	294	Low	10.0	Vague	2	12	18	28	10.3	24.3	8.7	18	12	28	24.3	10.3	8.7	2	4.623	0.000	L	18	24.3	1112.294	1115.134	1119.757	1119.760	0
1	22071802	295	Low	10.0	Precise	1	15	18	13	13.4	24.3	4.3	15	13	18	13.4	4.3	24.3	2	1.661	0.000	R	18	24.3	1120.262	1121.248	1122.909	1122.911	0
1	22071802	296	Low	10.0	Precise	1	16	17	6	35.8	43.6	2.0	17	16	6	43.6	35.8	2.0	2	1.894	0.000	L	17	43.6	1123.414	1124.175	1126.069	1126.072	0
1	22071802	297	Low	10.0	Precise	1	16	17	11	35.8	43.6	1.5	16	11	17	35.8	1.5	43.6	1	1.279	0.001	L	16	35.8	1126.574	1129.094	1130.373	1130.376	0
1	22071802	298	Low	10.0	Vague	2	16	17	27	35.8	43.6	4.9	17	27	16	43.6	4.9	35.8	2	1.749	0.000	L	17	43.6	1130.879	1133.280	1135.029	1135.031	0
1	22071802	299	Low	10.0	Vague	2	15	18	20	13.4	24.3	0.9	15	18	20	13.4	24.3	0.9	2	1.656	0.000	D	18	24.3	1135.534	1137.445	1139.101	1139.103	0
1	22071802	300	Low	10.0	Precise	1	15	17	4	13.4	43.6	6.2	15	17	4	13.4	43.6	6.2	2	1.204	0.001	D	17	43.6	1139.606	1142.258	1143.461	1143.464	0
1	22071802	301	Low	10.0	Vague	2	15	10	28	13.4	16.2	8.7	10	28	15	16.2	8.7	13.4	2	1.421	0.000	L	10	16.2	1175.619	1176.544	1177.965	1177.968	0
1	22071802	302	Low	10.0	Precise	1	18	17	11	24.3	43.6	1.5	18	17	11	24.3	43.6	1.5	2	1.124	0.001	D	17	43.6	1178.470	1179.033	1180.157	1180.160	0
1	22071802	303	Low	10.0	Precise	1	16	17	1	35.8	43.6	1.0	16	1	17	35.8	1.0	43.6	1	1.494	0.000	L	16	35.8	1180.662	1183.295	1184.789	1184.792	0
1	22071802	304	Low	10.0	Vague	2	10	18	36	16.2	24.3	8.1	18	10	36	24.3	16.2	8.1	2	2.482	0.001	L	18	24.3	1185.294	1187.083	1189.565	1189.568	0
1	22071802	305	Low	10.0	Precise	1	12	17	4	10.3	43.6	6.2	12	4	17	10.3	6.2	43.6	2	1.190	0.000	R	17	43.6	1190.071	1191.456	1192.645	1192.648	0
1	22071802	306	Low	10.0	Vague	2	12	10	28	10.3	16.2	8.7	10	28	12	16.2	8.7	10.3	2	1.904	0.000	L	10	16.2	1193.150	1196.132	1198.037	1198.039	0
1	22071802	307	Low	10.0	Precise	1	12	17	2	10.3	43.6	0.5	17	2	12	43.6	0.5	10.3	2	1.382	0.000	L	17	43.6	1198.542	1201.159	1202.541	1202.543	0
1	22071802	308	Low	10.0	Vague	2	15	18	19	13.4	24.3	1.6	15	18	19	13.4	24.3	1.6	2	1.512	0.001	D	18	24.3	1203.046	1205.917	1207.429	1207.432	0
1	22071802	309	Low	10.0	Vague	2	10	16	21	16.2	35.8	0.4	10	16	21	16.2	35.8	0.4	2	1.538	0.001	D	16	35.8	1207.934	1208.955	1210.493	1210.496	0
1	22071802	310	Low	10.0	Vague	2	12	10	21	10.3	16.2	0.4	12	10	21	10.3	16.2	0.4	2	1.446	0.000	D	10	16.2	1210.998	1212.279	1213.725	1213.727	0
1	22071802	311	Low	10.0	Vague	2	10	17	27	16.2	43.6	4.9	17	27	10	43.6	4.9	16.2	2	1.196	0.001	L	17	43.6	1214.230	1215.153	1216.349	1216.351	0
1	22071802	312	Low	10.0	Precise	1	12	10	2	10.3	16.2	0.5	10	2	12	16.2	0.5	10.3	2	2.449	0.000	L	10	16.2	1216.854	1217.364	1219.813	1219.815	0
1	22071802	313	Low	10.0	Precise	1	12	17	1	10.3	43.6	1.0	12	17	1	10.3	43.6	1.0	2	1.208	0.000	D	17	43.6	1220.318	1222.405	1223.613	1223.616	0
1	22071802	314	Low	10.0	Precise	1	10	17	1	16.2	43.6	1.0	10	1	17	16.2	1.0	43.6	2	1.301	0.000	R	17	43.6	1224.118	1225.320	1226.621	1226.623	0
1	22071802	315	Low	10.0	Precise	1	12	10	6	10.3	16.2	2.0	12	10	6	10.3	16.2	2.0	2	1.513	0.000	D	10	16.2	1227.126	1229.116	1230.629	1230.631	0
1	22071802	316	Low	10.0	Vague	2	12	10	19	10.3	16.2	1.6	19	10	12	1.6	16.2	10.3	2	1.707	0.000	D	10	16.2	1231.134	1232.402	1234.109	1234.112	0
1	22071802	317	Low	10.0	Precise	1	12	18	6	10.3	24.3	2.0	18	6	12	24.3	2.0	10.3	2	2.787	0.000	L	18	24.3	1234.614	1235.426	1238.213	1238.215	0
1	22071802	318	Low	10.0	Precise	1	15	10	2	13.4	16.2	0.5	10	15	2	16.2	13.4	0.5	2	1.656	0.000	L	10	16.2	1238.718	1239.893	1241.549	1241.551	0
1	22071802	319	Low	10.0	Vague	2	12	15	20	10.3	13.4	0.9	20	12	15	0.9	10.3	13.4	1	2.347	0.000	D	12	10.3	1242.054	1243.106	1245.453	1245.456	0
1	22071802	320	Low	10.0	Precise	1	18	16	1	24.3	35.8	1.0	16	1	18	35.8	1.0	24.3	2	0.827	0.000	L	16	35.8	1245.958	1246.506	1247.333	1247.335	0
1	22071802	321	Low	10.0	Vague	2	12	15	19	10.3	13.4	1.6	19	12	15	1.6	10.3	13.4	1	2.819	0.001	D	12	10.3	1247.839	1250.570	1253.389	1253.392	0
1	22071802	322	Low	10.0	Vague	2	18	16	19	24.3	35.8	1.6	19	16	18	1.6	35.8	24.3	2	0.977	0.000	D	16	35.8	1253.895	1255.277	1256.253	1256.256	0
1	22071802	323	Low	10.0	Precise	1	12	18	2	10.3	24.3	0.5	12	18	2	10.3	24.3	0.5	2	3.912	0.000	D	18	24.3	1256.758	1257.445	1261.357	1261.359	0
1	22071802	324	Low	10.0	Vague	2	12	10	36	10.3	16.2	8.1	12	10	36	10.3	16.2	8.1	2	2.152	0.001	D	10	16.2	1261.862	1262.429	1264.581	1264.584	0
1	22071802	325	Low	10.0	Vague	2	16	17	20	35.8	43.6	0.9	17	20	16	43.6	0.9	35.8	2	3.013	0.001	L	17	43.6	1265.086	1266.824	1269.837	1269.840	0
1	22071802	326	Low	10.0	Precise	1	18	16	4	24.3	35.8	6.2	16	18	4	35.8	24.3	6.2	2	1.774	0.000	L	16	35.8	1270.342	1272.270	1274.045	1274.048	0
1	22071802	327	Low	10.0	Vague	2	15	10	21	13.4	16.2	0.4	15	10	21	13.4	16.2	0.4	2	2.146	0.000	D	10	16.2	1274.550	1277.523	1279.669	1279.672	0
1	22071802	328	Low	10.0	Vague	2	10	17	20	16.2	43.6	0.9	20	10	17	0.9	16.2	43.6	2	2.230	0.001	R	17	43.6	1280.174	1280.951	1283.181	1283.183	0
1	22071802	329	Low	10.0	Precise	1	10	17	2	16.2	43.6	0.5	2	17	10	0.5	43.6	16.2	2	1.548	0.000	D	17	43.6	1283.686	1284.746	1286.293	1286.296	0
1	22071802	330	Low	10.0	Vague	2	12	18	36	10.3	24.3	8.1	12	18	36	10.3	24.3	8.1	2	2.364	0.000	D	18	24.3	1286.798	1287.921	1290.285	1290.288	0
1	22071802	331	Low	10.0	Precise	1	15	18	4	13.4	24.3	6.2	4	15	18	6.2	13.4	24.3	2	2.716	0.000	R	18	24.3	1290.790	1292.360	1295.077	1295.079	0
1	22071802	332	Low	10.0	Precise	1	18	17	4	24.3	43.6	6.2	4	17	18	6.2	43.6	24.3	2	2.165	0.001	D	17	43.6	1295.582	1297.664	1299.829	1299.832	0
1	22071802	333	Low	10.0	Precise	1	12	16	13	10.3	35.8	4.3	12	16	13	10.3	35.8	4.3	2	1.488	0.001	D	16	35.8	1300.334	1300.925	1302.413	1302.415	0
1	22071802	334	Low	10.0	Vague	2	12	15	36	10.3	13.4	8.1	15	36	12	13.4	8.1	10.3	1	3.887	0.001	R	12	10.3	1302.918	1305.815	1309.701	1309.704	0
1	22071802	335	Low	10.0	Precise	1	18	17	6	24.3	43.6	2.0	18	17	6	24.3	43.6	2.0	2	2.428	0.001	D	17	43.6	1310.207	1311.537	1313.965	1313.967	0
1	22071802	336	Low	10.0	Vague	2	12	10	20	10.3	16.2	0.9	12	10	20	10.3	16.2	0.9	2	1.530	0.000	D	10	16.2	1314.470	1316.882	1318.413	1318.415	0
1	22071802	337	Low	10.0	Vague	2	18	17	27	24.3	43.6	4.9	17	27	18	43.6	4.9	24.3	2	2.347	0.000	L	17	43.6	1318.918	1320.930	1323.277	1323.280	0
1	22071802	338	Low	10.0	Precise	1	18	16	2	24.3	35.8	0.5	16	18	2	35.8	24.3	0.5	2	2.594	0.000	L	16	35.8	1323.782	1325.259	1327.853	1327.855	0
1	22071802	339	Low	10.0	Vague	2	12	18	20	10.3	24.3	0.9	12	18	20	10.3	24.3	0.9	2	3.113	0.001	D	18	24.3	1328.358	1330.572	1333.685	1333.688	0
1	22071802	340	Low	10.0	Precise	1	15	16	13	13.4	35.8	4.3	15	16	13	13.4	35.8	4.3	2	2.107	0.001	D	16	35.8	1334.191	1335.282	1337.389	1337.392	0
1	22071802	341	Low	10.0	Vague	2	10	17	19	16.2	43.6	1.6	19	17	10	1.6	43.6	16.2	2	1.720	0.000	D	17	43.6	1337.894	1340.757	1342.477	1342.479	0
1	22071802	342	Low	10.0	Precise	1	10	16	6	16.2	35.8	2.0	6	10	16	2.0	16.2	35.8	2	1.075	0.000	R	16	35.8	1342.982	1345.530	1346.605	1346.607	0
1	22071802	343	Low	10.0	Precise	1	10	16	2	16.2	35.8	0.5	10	2	16	16.2	0.5	35.8	2	1.200	0.000	R	16	35.8	1347.110	1347.876	1349.077	1349.079	0
1	22071802	344	Low	10.0	Vague	2	12	18	19	10.3	24.3	1.6	12	19	18	10.3	1.6	24.3	2	1.986	0.000	R	18	24.3	1349.582	1350.794	1352.781	1352.783	0
1	22071802	345	Low	10.0	Vague	2	15	10	36	13.4	16.2	8.1	10	36	15	16.2	8.1	13.4	2	1.685	0.000	L	10	16.2	1353.286	1356.000	1357.685	1357.687	0
1	22071802	346	Low	10.0	Vague	2	12	15	28	10.3	13.4	8.7	28	15	12	8.7	13.4	10.3	3	3.520	0.000	L	28	8.7	1358.190	1359.541	1363.061	1363.064	0
1	22071802	347	Low	10.0	Precise	1	10	16	1	16.2	35.8	1.0	1	16	10	1.0	35.8	16.2	2	0.914	0.000	D	16	35.8	1363.566	1365.195	1366.109	1366.111	0
1	22071802	348	Low	10.0	Precise	1	15	16	1	13.4	35.8	1.0	1	15	16	1.0	13.4	35.8	2	0.987	0.000	R	16	35.8	1366.614	1367.778	1368.765	1368.767	0
1	22071802	349	Low	10.0	Vague	2	10	16	28	16.2	35.8	8.7	16	28	10	35.8	8.7	16.2	2	1.117	0.001	L	16	35.8	1369.270	1371.184	1372.301	1372.303	0
1	22071802	350	Low	10.0	Precise	1	10	17	4	16.2	43.6	6.2	17	4	10	43.6	6.2	16.2	2	0.994	0.000	L	17	43.6	1372.806	1374.098	1375.093	1375.095	0
1	22071802	351	Low	10.0	Precise	1	12	16	11	10.3	35.8	1.5	11	16	12	1.5	35.8	10.3	2	0.875	0.000	D	16	35.8	1375.598	1377.986	1378.861	1378.864	0
1	22071802	352	Low	10.0	Precise	1	18	16	13	24.3	35.8	4.3	16	18	13	35.8	24.3	4.3	2	1.175	0.000	L	16	35.8	1379.367	1381.558	1382.733	1382.735	0
1	22071802	353	Low	10.0	Precise	1	12	10	11	10.3	16.2	1.5	11	12	10	1.5	10.3	16.2	2	2.113	0.001	R	10	16.2	1383.237	1384.972	1387.085	1387.088	0
1	22071802	354	Low	10.0	Vague	2	10	18	27	16.2	24.3	4.9	27	10	18	4.9	16.2	24.3	1	0.922	0.001	D	10	16.2	1387.590	1390.219	1391.141	1391.143	0
1	22071802	355	Low	10.0	Vague	2	18	17	21	24.3	43.6	0.4	17	18	21	43.6	24.3	0.4	2	1.434	0.000	L	17	43.6	1391.646	1394.298	1395.733	1395.735	0
1	22071802	356	Low	10.0	Precise	1	12	18	4	10.3	24.3	6.2	12	4	18	10.3	6.2	24.3	2	1.759	0.000	R	18	24.3	1396.238	1396.942	1398.701	1398.703	0
1	22071802	357	Low	10.0	Vague	2	15	17	36	13.4	43.6	8.1	36	17	15	8.1	43.6	13.4	2	1.131	0.000	D	17	43.6	1399.206	1400.386	1401.517	1401.519	0
1	22071802	358	Low	10.0	Vague	2	18	16	21	24.3	35.8	0.4	16	21	18	35.8	0.4	24.3	2	0.940	0.000	L	16	35.8	1402.022	1402.634	1403.573	1403.576	0
1	22071802	359	Low	10.0	Vague	2	12	18	27	10.3	24.3	4.9	18	27	12	24.3	4.9	10.3	2	1.358	0.000	L	18	24.3	1404.078	1406.463	1407.821	1407.823	0
1	22071802	360	Low	10.0	Vague	2	10	16	19	16.2	35.8	1.6	10	19	16	16.2	1.6	35.8	2	0.739	0.000	R	16	35.8	1408.326	1409.746	1410.485	1410.487	0
