Group	subID	trial	TimePressure	TimeConstraint	Vagueness	Vaguenesscode	ID1	ID2	ID3	V1	V2	V3	ID_left	ID_middle	ID_right	Bid_left	Bid_middle	Bid_right	chosenItem	RT	RTvariance	chosenPosition	chosenID	chosenValue	fixation_time	option_time	choice_time	feedback_time	timeout
2	22071903	1	Low	10.0	Precise	1	25	33	21	20.0	47.6	1.0	25	21	33	20.0	1.0	47.6	1	3.945	0.000	L	25	20.0	4.509	6.592	10.538	10.541	0
2	22071903	2	Low	10.0	Vague	2	23	36	13	5.0	5.0	0.0	13	36	23	0.0	5.0	5.0	1	2.105	0.001	R	23	5.0	11.045	13.153	15.258	15.262	0
2	22071903	3	Low	10.0	Precise	1	23	24	32	5.0	7.2	0.0	24	23	32	7.2	5.0	0.0	1	1.418	0.000	D	23	5.0	15.766	17.760	19.178	19.181	0
2	22071903	4	Low	10.0	Vague	2	27	25	13	6.0	20.0	0.0	27	13	25	6.0	0.0	20.0	2	1.554	0.000	R	25	20.0	19.684	22.376	23.930	23.933	0
2	22071903	5	Low	10.0	Vague	2	23	25	2	5.0	20.0	0.0	25	23	2	20.0	5.0	0.0	2	0.555	0.001	L	25	20.0	24.436	27.000	27.554	27.558	0
2	22071903	6	Low	10.0	Precise	1	23	25	28	5.0	20.0	0.0	25	23	28	20.0	5.0	0.0	2	0.567	0.000	L	25	20.0	28.064	30.867	31.434	31.436	0
2	22071903	7	Low	10.0	Precise	1	36	33	35	5.0	47.6	0.0	35	36	33	0.0	5.0	47.6	1	2.960	0.000	D	36	5.0	31.939	33.178	36.138	36.141	0
2	22071903	8	Low	10.0	Vague	2	27	24	17	6.0	7.2	0.0	17	24	27	0.0	7.2	6.0	1	1.077	0.000	R	27	6.0	36.643	38.333	39.410	39.413	0
2	22071903	9	Low	10.0	Vague	2	24	25	13	7.2	20.0	0.0	24	13	25	7.2	0.0	20.0	1	1.127	0.000	L	24	7.2	39.916	40.803	41.930	41.932	0
2	22071903	10	Low	10.0	Precise	1	36	25	30	5.0	20.0	0.0	36	30	25	5.0	0.0	20.0	2	0.671	0.000	R	25	20.0	42.435	44.763	45.434	45.436	0
2	22071903	11	Low	10.0	Vague	2	36	25	7	5.0	20.0	5.0	25	36	7	20.0	5.0	5.0	2	0.548	0.000	L	25	20.0	45.939	48.502	49.050	49.052	0
2	22071903	12	Low	10.0	Precise	1	23	27	22	5.0	6.0	0.0	27	22	23	6.0	0.0	5.0	2	1.208	0.001	L	27	6.0	49.555	50.794	52.002	52.005	0
2	22071903	13	Low	10.0	Precise	1	27	33	28	6.0	47.6	0.0	27	28	33	6.0	0.0	47.6	1	1.124	0.001	L	27	6.0	52.507	53.150	54.274	54.277	0
2	22071903	14	Low	10.0	Vague	2	23	36	17	5.0	5.0	0.0	23	36	17	5.0	5.0	0.0	1	1.265	0.001	L	23	5.0	54.779	56.314	57.578	57.581	0
2	22071903	15	Low	10.0	Precise	1	27	24	28	6.0	7.2	0.0	27	24	28	6.0	7.2	0.0	2	1.050	0.001	D	24	7.2	58.083	58.680	59.730	59.733	0
2	22071903	16	Low	10.0	Precise	1	23	33	28	5.0	47.6	0.0	28	23	33	0.0	5.0	47.6	1	1.304	0.000	D	23	5.0	60.236	61.610	62.914	62.916	0
2	22071903	17	Low	10.0	Precise	1	25	33	22	20.0	47.6	0.0	25	33	22	20.0	47.6	0.0	1	0.586	0.000	L	25	20.0	63.419	64.911	65.498	65.500	0
2	22071903	18	Low	10.0	Precise	1	27	24	30	6.0	7.2	0.0	27	30	24	6.0	0.0	7.2	2	1.226	0.000	R	24	7.2	66.003	68.496	69.722	69.724	0
2	22071903	19	Low	10.0	Precise	1	36	33	21	5.0	47.6	1.0	21	33	36	1.0	47.6	5.0	3	1.204	0.000	L	21	1.0	70.227	73.109	74.314	74.316	0
2	22071903	20	Low	10.0	Vague	2	23	33	13	5.0	47.6	0.0	33	13	23	47.6	0.0	5.0	1	1.118	0.000	R	23	5.0	74.819	76.644	77.762	77.765	0
2	22071903	21	Low	10.0	Precise	1	27	25	30	6.0	20.0	0.0	30	25	27	0.0	20.0	6.0	2	0.659	0.000	D	25	20.0	78.267	81.063	81.722	81.724	0
2	22071903	22	Low	10.0	Precise	1	27	25	21	6.0	20.0	1.0	21	27	25	1.0	6.0	20.0	2	0.593	0.000	R	25	20.0	82.227	84.489	85.082	85.084	0
2	22071903	23	Low	10.0	Precise	1	24	25	21	7.2	20.0	1.0	24	25	21	7.2	20.0	1.0	2	0.733	0.000	D	25	20.0	85.587	88.037	88.770	88.772	0
2	22071903	24	Low	10.0	Precise	1	36	24	30	5.0	7.2	0.0	30	36	24	0.0	5.0	7.2	2	0.862	0.001	R	24	7.2	89.275	91.172	92.034	92.037	0
2	22071903	25	Low	10.0	Vague	2	27	24	2	6.0	7.2	0.0	24	2	27	7.2	0.0	6.0	2	0.609	0.000	L	24	7.2	92.539	94.033	94.642	94.644	0
2	22071903	26	Low	10.0	Precise	1	25	33	28	20.0	47.6	0.0	28	33	25	0.0	47.6	20.0	1	0.463	0.000	R	25	20.0	95.147	96.563	97.026	97.028	0
2	22071903	27	Low	10.0	Vague	2	24	33	10	7.2	47.6	8.5	24	33	10	7.2	47.6	8.5	1	0.488	0.000	L	24	7.2	97.531	100.210	100.698	100.700	0
2	22071903	28	Low	10.0	Vague	2	36	33	17	5.0	47.6	0.0	17	36	33	0.0	5.0	47.6	1	1.447	0.000	D	36	5.0	101.203	103.883	105.330	105.332	0
2	22071903	29	Low	10.0	Precise	1	24	33	30	7.2	47.6	0.0	30	33	24	0.0	47.6	7.2	1	0.642	0.000	R	24	7.2	105.835	108.240	108.882	108.884	0
2	22071903	30	Low	10.0	Vague	2	36	25	2	5.0	20.0	0.0	2	36	25	0.0	5.0	20.0	2	0.432	0.000	R	25	20.0	109.387	111.842	112.274	112.276	0
2	22071903	31	Low	10.0	Vague	2	23	24	5	5.0	7.2	1.0	23	5	24	5.0	1.0	7.2	2	0.642	0.000	R	24	7.2	112.779	115.736	116.378	116.380	0
2	22071903	32	Low	10.0	Precise	1	23	25	21	5.0	20.0	1.0	25	21	23	20.0	1.0	5.0	2	0.464	0.000	L	25	20.0	116.883	117.802	118.266	118.268	0
2	22071903	33	Low	10.0	Precise	1	25	33	30	20.0	47.6	0.0	25	30	33	20.0	0.0	47.6	1	0.522	0.000	L	25	20.0	118.770	121.752	122.274	122.276	0
2	22071903	34	Low	10.0	Precise	1	36	24	35	5.0	7.2	0.0	35	36	24	0.0	5.0	7.2	2	0.524	0.000	R	24	7.2	122.779	123.310	123.834	123.836	0
2	22071903	35	Low	10.0	Vague	2	24	25	10	7.2	20.0	8.5	24	10	25	7.2	8.5	20.0	2	0.424	0.000	R	25	20.0	124.338	127.098	127.522	127.524	0
2	22071903	36	Low	10.0	Vague	2	27	33	7	6.0	47.6	5.0	33	7	27	47.6	5.0	6.0	1	0.564	0.001	R	27	6.0	128.027	129.214	129.778	129.780	0
2	22071903	37	Low	10.0	Precise	1	23	36	22	5.0	5.0	0.0	22	36	23	0.0	5.0	5.0	1	0.799	0.000	R	23	5.0	130.283	132.627	133.426	133.428	0
2	22071903	38	Low	10.0	Precise	1	23	24	30	5.0	7.2	0.0	24	23	30	7.2	5.0	0.0	2	0.758	0.001	L	24	7.2	133.931	136.180	136.938	136.940	0
2	22071903	39	Low	10.0	Precise	1	24	25	22	7.2	20.0	0.0	24	22	25	7.2	0.0	20.0	2	0.477	0.000	R	25	20.0	137.443	138.860	139.338	139.340	0
2	22071903	40	Low	10.0	Vague	2	24	33	2	7.2	47.6	0.0	24	33	2	7.2	47.6	0.0	1	0.490	0.000	L	24	7.2	139.843	141.847	142.338	142.341	0
2	22071903	41	Low	10.0	Precise	1	36	33	32	5.0	47.6	0.0	36	32	33	5.0	0.0	47.6	1	1.849	0.000	L	36	5.0	142.843	143.969	145.818	145.820	0
2	22071903	42	Low	10.0	Vague	2	23	24	2	5.0	7.2	0.0	2	23	24	0.0	5.0	7.2	2	0.577	0.000	R	24	7.2	146.323	148.169	148.746	148.748	0
2	22071903	43	Low	10.0	Vague	2	23	33	17	5.0	47.6	0.0	33	17	23	47.6	0.0	5.0	1	0.526	0.000	R	23	5.0	149.251	150.812	151.338	151.340	0
2	22071903	44	Low	10.0	Precise	1	36	33	22	5.0	47.6	0.0	36	22	33	5.0	0.0	47.6	3	1.465	0.001	D	22	0.0	151.843	153.753	155.218	155.220	0
2	22071903	45	Low	10.0	Precise	1	24	25	35	7.2	20.0	0.0	35	24	25	0.0	7.2	20.0	2	0.526	0.000	R	25	20.0	155.723	156.876	157.402	157.404	0
2	22071903	46	Low	10.0	Precise	1	27	25	32	6.0	20.0	0.0	27	25	32	6.0	20.0	0.0	2	0.526	0.000	D	25	20.0	157.907	159.532	160.058	160.060	0
2	22071903	47	Low	10.0	Vague	2	36	33	7	5.0	47.6	5.0	33	36	7	47.6	5.0	5.0	1	1.068	0.000	D	36	5.0	160.563	163.158	164.226	164.228	0
2	22071903	48	Low	10.0	Vague	2	36	27	17	5.0	6.0	0.0	27	36	17	6.0	5.0	0.0	2	0.715	0.001	L	27	6.0	164.731	167.383	168.098	168.100	0
2	22071903	49	Low	10.0	Precise	1	27	25	22	6.0	20.0	0.0	27	22	25	6.0	0.0	20.0	2	0.472	0.000	R	25	20.0	168.603	170.210	170.682	170.684	0
2	22071903	50	Low	10.0	Vague	2	23	27	5	5.0	6.0	1.0	23	5	27	5.0	1.0	6.0	1	0.706	0.000	L	23	5.0	171.187	174.160	174.865	174.868	0
2	22071903	51	Low	10.0	Vague	2	36	33	10	5.0	47.6	8.5	10	36	33	8.5	5.0	47.6	1	1.247	0.001	D	36	5.0	175.370	177.739	178.986	178.988	0
2	22071903	52	Low	10.0	Precise	1	23	33	22	5.0	47.6	0.0	33	23	22	47.6	5.0	0.0	1	1.118	0.001	D	23	5.0	179.491	180.948	182.066	182.068	0
2	22071903	53	Low	10.0	Vague	2	23	36	5	5.0	5.0	1.0	36	5	23	5.0	1.0	5.0	1	0.611	0.000	R	23	5.0	182.571	184.519	185.130	185.132	0
2	22071903	54	Low	10.0	Vague	2	23	36	10	5.0	5.0	8.5	23	10	36	5.0	8.5	5.0	1	0.601	0.000	L	23	5.0	185.634	186.400	187.002	187.004	0
2	22071903	55	Low	10.0	Vague	2	23	24	7	5.0	7.2	5.0	23	7	24	5.0	5.0	7.2	1	1.078	0.000	L	23	5.0	187.506	189.355	190.434	190.436	0
2	22071903	56	Low	10.0	Precise	1	36	24	28	5.0	7.2	0.0	28	24	36	0.0	7.2	5.0	2	0.895	0.000	D	24	7.2	190.939	192.019	192.914	192.916	0
2	22071903	57	Low	10.0	Precise	1	25	33	32	20.0	47.6	0.0	25	33	32	20.0	47.6	0.0	1	0.580	0.000	L	25	20.0	193.419	195.062	195.642	195.644	0
2	22071903	58	Low	10.0	Vague	2	27	25	10	6.0	20.0	8.5	25	27	10	20.0	6.0	8.5	2	0.536	0.001	L	25	20.0	196.147	198.458	198.994	198.996	0
2	22071903	59	Low	10.0	Precise	1	36	27	32	5.0	6.0	0.0	27	36	32	6.0	5.0	0.0	2	1.270	0.000	L	27	6.0	199.499	200.843	202.113	202.117	0
2	22071903	60	Low	10.0	Precise	1	36	33	30	5.0	47.6	0.0	30	33	36	0.0	47.6	5.0	1	1.516	0.000	R	36	5.0	202.620	205.414	206.930	206.932	0
2	22071903	61	Low	10.0	Precise	1	36	27	21	5.0	6.0	1.0	36	21	27	5.0	1.0	6.0	2	0.676	0.000	R	27	6.0	230.894	232.197	232.874	232.876	0
2	22071903	62	Low	10.0	Vague	2	27	33	10	6.0	47.6	8.5	33	10	27	47.6	8.5	6.0	1	0.792	0.000	R	27	6.0	233.379	234.386	235.178	235.180	0
2	22071903	63	Low	10.0	Precise	1	25	33	35	20.0	47.6	0.0	33	35	25	47.6	0.0	20.0	1	0.546	0.000	R	25	20.0	235.682	236.904	237.450	237.452	0
2	22071903	64	Low	10.0	Precise	1	23	27	30	5.0	6.0	0.0	23	27	30	5.0	6.0	0.0	1	0.665	0.000	L	23	5.0	237.955	239.577	240.242	240.244	0
2	22071903	65	Low	10.0	Precise	1	23	27	21	5.0	6.0	1.0	27	23	21	6.0	5.0	1.0	1	1.098	0.000	D	23	5.0	240.747	242.296	243.394	243.396	0
2	22071903	66	Low	10.0	Vague	2	27	24	10	6.0	7.2	8.5	27	10	24	6.0	8.5	7.2	1	0.774	0.000	L	27	6.0	243.899	246.156	246.930	246.932	0
2	22071903	67	Low	10.0	Precise	1	23	33	21	5.0	47.6	1.0	33	23	21	47.6	5.0	1.0	1	0.840	0.000	D	23	5.0	247.435	248.482	249.322	249.324	0
2	22071903	68	Low	10.0	Vague	2	24	25	2	7.2	20.0	0.0	2	24	25	0.0	7.2	20.0	2	0.471	0.001	R	25	20.0	249.828	252.187	252.658	252.661	0
2	22071903	69	Low	10.0	Precise	1	27	24	22	6.0	7.2	0.0	27	22	24	6.0	0.0	7.2	1	0.787	0.000	L	27	6.0	253.163	255.847	256.634	256.636	0
2	22071903	70	Low	10.0	Precise	1	27	33	32	6.0	47.6	0.0	33	27	32	47.6	6.0	0.0	1	0.731	0.000	D	27	6.0	257.139	257.679	258.410	258.412	0
2	22071903	71	Low	10.0	Vague	2	36	27	10	5.0	6.0	8.5	36	10	27	5.0	8.5	6.0	2	0.934	0.001	R	27	6.0	258.915	261.739	262.674	262.677	0
2	22071903	72	Low	10.0	Vague	2	23	25	5	5.0	20.0	1.0	23	25	5	5.0	20.0	1.0	2	0.971	0.000	D	25	20.0	263.179	265.871	266.842	266.844	0
2	22071903	73	Low	10.0	Vague	2	23	25	10	5.0	20.0	8.5	23	10	25	5.0	8.5	20.0	2	0.617	0.001	R	25	20.0	267.347	269.976	270.594	270.596	0
2	22071903	74	Low	10.0	Precise	1	23	24	35	5.0	7.2	0.0	24	23	35	7.2	5.0	0.0	2	0.778	0.000	L	24	7.2	271.098	273.232	274.009	274.012	0
2	22071903	75	Low	10.0	Vague	2	36	27	5	5.0	6.0	1.0	36	27	5	5.0	6.0	1.0	2	0.672	0.000	D	27	6.0	274.515	277.266	277.938	277.940	0
2	22071903	76	Low	10.0	Vague	2	27	33	13	6.0	47.6	0.0	27	13	33	6.0	0.0	47.6	1	1.050	0.000	L	27	6.0	278.443	279.464	280.514	280.516	0
2	22071903	77	Low	10.0	Precise	1	36	27	22	5.0	6.0	0.0	36	22	27	5.0	0.0	6.0	2	0.775	0.000	R	27	6.0	281.019	282.970	283.746	283.748	0
2	22071903	78	Low	10.0	Vague	2	25	33	17	20.0	47.6	0.0	17	25	33	0.0	20.0	47.6	1	0.663	0.001	D	25	20.0	284.251	286.611	287.274	287.276	0
2	22071903	79	Low	10.0	Precise	1	24	25	30	7.2	20.0	0.0	24	30	25	7.2	0.0	20.0	2	1.038	0.000	R	25	20.0	287.779	290.772	291.810	291.812	0
2	22071903	80	Low	10.0	Precise	1	36	24	22	5.0	7.2	0.0	22	36	24	0.0	5.0	7.2	2	0.612	0.000	R	24	7.2	292.315	295.253	295.865	295.868	0
2	22071903	81	Low	10.0	Precise	1	27	33	22	6.0	47.6	0.0	22	27	33	0.0	6.0	47.6	1	0.676	0.001	D	27	6.0	296.370	299.317	299.994	299.996	0
2	22071903	82	Low	10.0	Vague	2	25	33	5	20.0	47.6	1.0	33	5	25	47.6	1.0	20.0	1	0.453	0.000	R	25	20.0	300.499	301.484	301.938	301.940	0
2	22071903	83	Low	10.0	Vague	2	24	25	17	7.2	20.0	0.0	24	25	17	7.2	20.0	0.0	2	0.544	0.000	D	25	20.0	302.443	303.641	304.185	304.188	0
2	22071903	84	Low	10.0	Precise	1	24	25	32	7.2	20.0	0.0	24	25	32	7.2	20.0	0.0	2	0.556	0.001	D	25	20.0	304.690	305.550	306.106	306.108	0
2	22071903	85	Low	10.0	Precise	1	36	24	32	5.0	7.2	0.0	36	24	32	5.0	7.2	0.0	2	0.625	0.001	D	24	7.2	306.611	308.041	308.666	308.668	0
2	22071903	86	Low	10.0	Precise	1	23	36	28	5.0	5.0	0.0	23	36	28	5.0	5.0	0.0	1	0.896	0.000	L	23	5.0	309.171	310.193	311.090	311.092	0
2	22071903	87	Low	10.0	Vague	2	36	25	10	5.0	20.0	8.5	25	10	36	20.0	8.5	5.0	2	0.491	0.001	L	25	20.0	311.595	314.031	314.522	314.524	0
2	22071903	88	Low	10.0	Vague	2	23	36	7	5.0	5.0	5.0	36	7	23	5.0	5.0	5.0	1	0.622	0.001	R	23	5.0	315.027	317.860	318.482	318.484	0
2	22071903	89	Low	10.0	Precise	1	27	24	21	6.0	7.2	1.0	24	27	21	7.2	6.0	1.0	2	0.571	0.001	L	24	7.2	318.987	320.127	320.698	320.700	0
2	22071903	90	Low	10.0	Vague	2	36	33	5	5.0	47.6	1.0	36	33	5	5.0	47.6	1.0	1	1.277	0.000	L	36	5.0	321.203	323.781	325.058	325.060	0
2	22071903	91	Low	10.0	Vague	2	36	24	13	5.0	7.2	0.0	36	24	13	5.0	7.2	0.0	2	0.538	0.000	D	24	7.2	325.563	327.111	327.650	327.652	0
2	22071903	92	Low	10.0	Precise	1	24	33	32	7.2	47.6	0.0	24	32	33	7.2	0.0	47.6	1	0.514	0.000	L	24	7.2	328.155	330.359	330.874	330.876	0
2	22071903	93	Low	10.0	Vague	2	24	33	13	7.2	47.6	0.0	33	24	13	47.6	7.2	0.0	1	0.499	0.000	D	24	7.2	331.379	334.022	334.522	334.524	0
2	22071903	94	Low	10.0	Vague	2	23	33	2	5.0	47.6	0.0	23	2	33	5.0	0.0	47.6	1	0.850	0.000	L	23	5.0	335.027	335.736	336.585	336.588	0
2	22071903	95	Low	10.0	Precise	1	36	27	35	5.0	6.0	0.0	27	36	35	6.0	5.0	0.0	2	0.750	0.001	L	27	6.0	337.091	339.284	340.034	340.036	0
2	22071903	96	Low	10.0	Vague	2	36	24	17	5.0	7.2	0.0	36	17	24	5.0	0.0	7.2	2	0.546	0.000	R	24	7.2	340.539	342.927	343.474	343.476	0
2	22071903	97	Low	10.0	Vague	2	27	24	5	6.0	7.2	1.0	24	27	5	7.2	6.0	1.0	2	0.483	0.000	L	24	7.2	343.978	345.111	345.594	345.596	0
2	22071903	98	Low	10.0	Precise	1	23	33	35	5.0	47.6	0.0	33	35	23	47.6	0.0	5.0	1	0.645	0.001	R	23	5.0	346.099	348.509	349.154	349.156	0
2	22071903	99	Low	10.0	Precise	1	23	24	21	5.0	7.2	1.0	24	23	21	7.2	5.0	1.0	2	0.613	0.000	L	24	7.2	349.659	350.668	351.281	351.284	0
2	22071903	100	Low	10.0	Precise	1	36	25	28	5.0	20.0	0.0	36	25	28	5.0	20.0	0.0	2	0.666	0.001	D	25	20.0	351.787	353.784	354.450	354.452	0
2	22071903	101	Low	10.0	Vague	2	36	25	13	5.0	20.0	0.0	25	13	36	20.0	0.0	5.0	2	0.469	0.000	L	25	20.0	354.955	357.669	358.138	358.140	0
2	22071903	102	Low	10.0	Vague	2	27	25	5	6.0	20.0	1.0	25	27	5	20.0	6.0	1.0	2	0.555	0.000	L	25	20.0	358.643	360.830	361.385	361.388	0
2	22071903	103	Low	10.0	Precise	1	24	33	22	7.2	47.6	0.0	22	33	24	0.0	47.6	7.2	1	0.533	0.000	R	24	7.2	361.891	362.724	363.257	363.260	0
2	22071903	104	Low	10.0	Precise	1	23	25	35	5.0	20.0	0.0	25	23	35	20.0	5.0	0.0	2	0.437	0.000	L	25	20.0	363.763	365.821	366.258	366.260	0
2	22071903	105	Low	10.0	Vague	2	24	25	5	7.2	20.0	1.0	5	24	25	1.0	7.2	20.0	2	0.528	0.001	R	25	20.0	366.763	369.105	369.634	369.636	0
2	22071903	106	Low	10.0	Precise	1	36	25	21	5.0	20.0	1.0	25	36	21	20.0	5.0	1.0	2	0.442	0.000	L	25	20.0	370.139	371.584	372.026	372.028	0
2	22071903	107	Low	10.0	Vague	2	36	25	5	5.0	20.0	1.0	5	25	36	1.0	20.0	5.0	2	0.578	0.000	D	25	20.0	372.531	374.279	374.857	374.860	0
2	22071903	108	Low	10.0	Precise	1	27	33	35	6.0	47.6	0.0	27	35	33	6.0	0.0	47.6	1	0.801	0.000	L	27	6.0	375.363	377.784	378.586	378.588	0
2	22071903	109	Low	10.0	Vague	2	36	25	17	5.0	20.0	0.0	36	17	25	5.0	0.0	20.0	2	0.507	0.000	R	25	20.0	379.090	379.742	380.249	380.252	0
2	22071903	110	Low	10.0	Vague	2	27	33	17	6.0	47.6	0.0	17	33	27	0.0	47.6	6.0	1	0.637	0.001	R	27	6.0	380.754	381.868	382.506	382.508	0
2	22071903	111	Low	10.0	Precise	1	27	33	30	6.0	47.6	0.0	33	27	30	47.6	6.0	0.0	1	0.644	0.000	D	27	6.0	383.011	383.646	384.290	384.292	0
2	22071903	112	Low	10.0	Precise	1	24	33	28	7.2	47.6	0.0	28	24	33	0.0	7.2	47.6	1	0.637	0.000	D	24	7.2	384.795	386.629	387.266	387.268	0
2	22071903	113	Low	10.0	Vague	2	27	25	7	6.0	20.0	5.0	25	27	7	20.0	6.0	5.0	2	0.481	0.000	L	25	20.0	387.771	390.177	390.658	390.660	0
2	22071903	114	Low	10.0	Vague	2	36	27	13	5.0	6.0	0.0	27	36	13	6.0	5.0	0.0	2	0.580	0.000	L	27	6.0	391.163	391.894	392.474	392.476	0
2	22071903	115	Low	10.0	Vague	2	23	36	2	5.0	5.0	0.0	2	23	36	0.0	5.0	5.0	1	0.610	0.001	D	23	5.0	392.979	394.120	394.730	394.732	0
2	22071903	116	Low	10.0	Precise	1	24	25	28	7.2	20.0	0.0	28	25	24	0.0	20.0	7.2	1	0.711	0.000	R	24	7.2	395.235	397.426	398.137	398.140	0
2	22071903	117	Low	10.0	Precise	1	36	25	32	5.0	20.0	0.0	25	36	32	20.0	5.0	0.0	2	0.471	0.000	L	25	20.0	398.642	399.994	400.465	400.468	0
2	22071903	118	Low	10.0	Vague	2	36	24	5	5.0	7.2	1.0	5	24	36	1.0	7.2	5.0	2	0.718	0.001	D	24	7.2	400.970	403.395	404.114	404.116	0
2	22071903	119	Low	10.0	Vague	2	23	25	7	5.0	20.0	5.0	7	25	23	5.0	20.0	5.0	2	0.655	0.000	D	25	20.0	404.619	406.218	406.874	406.876	0
2	22071903	120	Low	10.0	Vague	2	23	27	17	5.0	6.0	0.0	17	27	23	0.0	6.0	5.0	2	1.008	0.000	D	27	6.0	407.378	408.194	409.202	409.204	0
2	22071903	121	Low	10.0	Vague	2	36	24	7	5.0	7.2	5.0	24	36	7	7.2	5.0	5.0	2	0.626	0.000	L	24	7.2	424.113	426.895	427.522	427.524	0
2	22071903	122	Low	10.0	Precise	1	27	25	35	6.0	20.0	0.0	27	35	25	6.0	0.0	20.0	2	0.492	0.000	R	25	20.0	428.027	430.110	430.601	430.604	0
2	22071903	123	Low	10.0	Precise	1	27	24	35	6.0	7.2	0.0	27	24	35	6.0	7.2	0.0	2	0.867	0.000	D	24	7.2	431.106	433.646	434.513	434.516	0
2	22071903	124	Low	10.0	Vague	2	27	24	7	6.0	7.2	5.0	24	7	27	7.2	5.0	6.0	2	0.582	0.000	L	24	7.2	435.019	436.419	437.001	437.004	0
2	22071903	125	Low	10.0	Precise	1	23	27	35	5.0	6.0	0.0	27	35	23	6.0	0.0	5.0	2	0.718	0.000	L	27	6.0	437.506	440.172	440.890	440.892	0
2	22071903	126	Low	10.0	Vague	2	27	33	2	6.0	47.6	0.0	33	2	27	47.6	0.0	6.0	1	0.546	0.000	R	27	6.0	441.395	443.808	444.353	444.356	0
2	22071903	127	Low	10.0	Precise	1	23	25	32	5.0	20.0	0.0	23	25	32	5.0	20.0	0.0	2	0.604	0.000	D	25	20.0	444.859	446.229	446.834	446.836	0
2	22071903	128	Low	10.0	Precise	1	36	24	21	5.0	7.2	1.0	21	36	24	1.0	5.0	7.2	2	0.554	0.001	R	24	7.2	447.339	449.168	449.722	449.724	0
2	22071903	129	Low	10.0	Vague	2	23	25	17	5.0	20.0	0.0	25	17	23	20.0	0.0	5.0	2	0.473	0.001	L	25	20.0	450.227	451.417	451.890	451.893	0
2	22071903	130	Low	10.0	Vague	2	27	25	17	6.0	20.0	0.0	25	27	17	20.0	6.0	0.0	2	0.494	0.000	L	25	20.0	452.396	454.388	454.882	454.884	0
2	22071903	131	Low	10.0	Vague	2	23	27	2	5.0	6.0	0.0	23	27	2	5.0	6.0	0.0	1	0.743	0.000	L	23	5.0	455.387	456.738	457.481	457.484	0
2	22071903	132	Low	10.0	Vague	2	25	33	7	20.0	47.6	5.0	33	25	7	47.6	20.0	5.0	1	0.493	0.000	D	25	20.0	457.986	459.428	459.921	459.924	0
2	22071903	133	Low	10.0	Precise	1	23	33	32	5.0	47.6	0.0	33	32	23	47.6	0.0	5.0	1	0.555	0.000	R	23	5.0	460.426	462.319	462.873	462.876	0
2	22071903	134	Low	10.0	Vague	2	27	25	2	6.0	20.0	0.0	2	27	25	0.0	6.0	20.0	2	0.498	0.000	R	25	20.0	463.378	465.272	465.769	465.772	0
2	22071903	135	Low	10.0	Precise	1	23	24	22	5.0	7.2	0.0	23	22	24	5.0	0.0	7.2	2	0.680	0.000	R	24	7.2	466.275	468.642	469.321	469.324	0
2	22071903	136	Low	10.0	Precise	1	23	36	32	5.0	5.0	0.0	23	32	36	5.0	0.0	5.0	1	1.021	0.000	L	23	5.0	469.826	470.804	471.825	471.828	0
2	22071903	137	Low	10.0	Precise	1	36	33	28	5.0	47.6	0.0	33	36	28	47.6	5.0	0.0	1	1.334	0.000	D	36	5.0	472.331	474.948	476.282	476.284	0
2	22071903	138	Low	10.0	Vague	2	23	24	13	5.0	7.2	0.0	23	13	24	5.0	0.0	7.2	2	0.670	0.000	R	24	7.2	476.786	479.299	479.970	479.972	0
2	22071903	139	Low	10.0	Vague	2	23	24	10	5.0	7.2	8.5	23	10	24	5.0	8.5	7.2	2	0.626	0.000	R	24	7.2	480.474	482.960	483.585	483.588	0
2	22071903	140	Low	10.0	Vague	2	24	33	17	7.2	47.6	0.0	24	33	17	7.2	47.6	0.0	1	0.566	0.001	L	24	7.2	484.091	485.315	485.882	485.884	0
2	22071903	141	Low	10.0	Vague	2	23	27	10	5.0	6.0	8.5	27	10	23	6.0	8.5	5.0	2	0.912	0.000	L	27	6.0	486.386	487.610	488.521	488.524	0
2	22071903	142	Low	10.0	Precise	1	36	25	35	5.0	20.0	0.0	25	36	35	20.0	5.0	0.0	2	0.524	0.000	L	25	20.0	489.027	490.446	490.970	490.972	0
2	22071903	143	Low	10.0	Precise	1	23	25	30	5.0	20.0	0.0	30	23	25	0.0	5.0	20.0	2	0.577	0.001	R	25	20.0	491.474	494.184	494.762	494.764	0
2	22071903	144	Low	10.0	Vague	2	36	27	2	5.0	6.0	0.0	2	36	27	0.0	5.0	6.0	2	0.687	0.000	R	27	6.0	495.266	497.546	498.233	498.236	0
2	22071903	145	Low	10.0	Vague	2	27	24	13	6.0	7.2	0.0	13	24	27	0.0	7.2	6.0	2	1.035	0.000	D	24	7.2	498.738	500.943	501.977	501.980	0
2	22071903	146	Low	10.0	Vague	2	23	27	13	5.0	6.0	0.0	27	23	13	6.0	5.0	0.0	2	0.721	0.000	L	27	6.0	502.482	503.800	504.521	504.524	0
2	22071903	147	Low	10.0	Vague	2	23	33	10	5.0	47.6	8.5	23	10	33	5.0	8.5	47.6	1	0.652	0.001	L	23	5.0	505.026	506.566	507.217	507.220	0
2	22071903	148	Low	10.0	Precise	1	23	36	35	5.0	5.0	0.0	36	23	35	5.0	5.0	0.0	1	0.793	0.000	D	23	5.0	507.723	508.824	509.617	509.620	0
2	22071903	149	Low	10.0	Precise	1	23	25	22	5.0	20.0	0.0	22	23	25	0.0	5.0	20.0	2	0.481	0.000	R	25	20.0	510.123	510.936	511.418	511.420	0
2	22071903	150	Low	10.0	Precise	1	27	25	28	6.0	20.0	0.0	25	27	28	20.0	6.0	0.0	2	0.440	0.001	L	25	20.0	511.923	513.161	513.601	513.604	0
2	22071903	151	Low	10.0	Precise	1	36	27	28	5.0	6.0	0.0	28	27	36	0.0	6.0	5.0	2	0.690	0.000	D	27	6.0	514.106	515.272	515.962	515.964	0
2	22071903	152	Low	10.0	Vague	2	36	24	2	5.0	7.2	0.0	2	36	24	0.0	5.0	7.2	2	0.505	0.000	R	24	7.2	516.466	517.976	518.481	518.484	0
2	22071903	153	Low	10.0	Precise	1	36	25	22	5.0	20.0	0.0	25	36	22	20.0	5.0	0.0	2	0.508	0.001	L	25	20.0	518.987	521.774	522.282	522.284	0
2	22071903	154	Low	10.0	Vague	2	24	33	5	7.2	47.6	1.0	5	33	24	1.0	47.6	7.2	1	0.512	0.000	R	24	7.2	522.786	523.617	524.129	524.132	0
2	22071903	155	Low	10.0	Precise	1	23	24	28	5.0	7.2	0.0	24	23	28	7.2	5.0	0.0	2	0.489	0.000	L	24	7.2	524.634	527.385	527.873	527.876	0
2	22071903	156	Low	10.0	Precise	1	24	33	21	7.2	47.6	1.0	21	33	24	1.0	47.6	7.2	1	0.443	0.000	R	24	7.2	528.378	530.798	531.241	531.244	0
2	22071903	157	Low	10.0	Precise	1	27	33	21	6.0	47.6	1.0	21	27	33	1.0	6.0	47.6	1	0.985	0.000	D	27	6.0	531.746	532.344	533.329	533.332	0
2	22071903	158	Low	10.0	Vague	2	23	24	17	5.0	7.2	0.0	24	23	17	7.2	5.0	0.0	2	0.568	0.000	L	24	7.2	533.835	534.553	535.121	535.124	0
2	22071903	159	Low	10.0	Vague	2	36	27	7	5.0	6.0	5.0	36	7	27	5.0	5.0	6.0	2	0.789	0.001	R	27	6.0	535.626	536.341	537.130	537.132	0
2	22071903	160	Low	10.0	Precise	1	27	24	32	6.0	7.2	0.0	32	27	24	0.0	6.0	7.2	2	0.496	0.001	R	24	7.2	537.635	539.058	539.554	539.556	0
2	22071903	161	Low	10.0	Precise	1	24	33	35	7.2	47.6	0.0	24	33	35	7.2	47.6	0.0	1	0.570	0.000	L	24	7.2	540.058	541.376	541.945	541.948	0
2	22071903	162	Low	10.0	Vague	2	23	33	7	5.0	47.6	5.0	33	23	7	47.6	5.0	5.0	1	0.586	0.001	D	23	5.0	542.450	545.103	545.690	545.692	0
2	22071903	163	Low	10.0	Precise	1	23	27	28	5.0	6.0	0.0	27	23	28	6.0	5.0	0.0	2	0.619	0.000	L	27	6.0	546.195	547.063	547.682	547.684	0
2	22071903	164	Low	10.0	Precise	1	23	36	21	5.0	5.0	1.0	23	21	36	5.0	1.0	5.0	1	0.587	0.000	L	23	5.0	548.186	550.630	551.217	551.220	0
2	22071903	165	Low	10.0	Precise	1	36	27	30	5.0	6.0	0.0	30	27	36	0.0	6.0	5.0	2	0.583	0.001	D	27	6.0	551.722	553.627	554.210	554.212	0
2	22071903	166	Low	10.0	Precise	1	23	36	30	5.0	5.0	0.0	23	30	36	5.0	0.0	5.0	1	0.878	0.001	L	23	5.0	554.715	557.387	558.266	558.268	0
2	22071903	167	Low	10.0	Vague	2	36	33	2	5.0	47.6	0.0	2	36	33	0.0	5.0	47.6	1	0.993	0.001	D	36	5.0	558.771	561.673	562.666	562.668	0
2	22071903	168	Low	10.0	Vague	2	23	25	13	5.0	20.0	0.0	13	25	23	0.0	20.0	5.0	2	0.731	0.000	D	25	20.0	563.171	563.855	564.585	564.588	0
2	22071903	169	Low	10.0	Precise	1	23	33	30	5.0	47.6	0.0	30	33	23	0.0	47.6	5.0	1	0.702	0.000	R	23	5.0	565.091	567.228	567.929	567.932	0
2	22071903	170	Low	10.0	Vague	2	27	33	5	6.0	47.6	1.0	33	5	27	47.6	1.0	6.0	1	0.614	0.001	R	27	6.0	568.435	569.852	570.466	570.468	0
2	22071903	171	Low	10.0	Vague	2	36	24	10	5.0	7.2	8.5	24	10	36	7.2	8.5	5.0	2	0.585	0.000	L	24	7.2	570.970	571.888	572.473	572.476	0
2	22071903	172	Low	10.0	Vague	2	23	27	7	5.0	6.0	5.0	7	27	23	5.0	6.0	5.0	2	1.144	0.001	D	27	6.0	572.978	575.882	577.026	577.028	0
2	22071903	173	Low	10.0	Vague	2	25	33	10	20.0	47.6	8.5	33	25	10	47.6	20.0	8.5	1	0.542	0.001	D	25	20.0	577.531	580.444	580.986	580.988	0
2	22071903	174	Low	10.0	Vague	2	24	25	7	7.2	20.0	5.0	25	7	24	20.0	5.0	7.2	2	0.480	0.000	L	25	20.0	581.491	583.153	583.633	583.636	0
2	22071903	175	Low	10.0	Vague	2	25	33	13	20.0	47.6	0.0	13	33	25	0.0	47.6	20.0	1	0.505	0.000	R	25	20.0	584.139	584.769	585.273	585.276	0
2	22071903	176	Low	10.0	Vague	2	25	33	2	20.0	47.6	0.0	25	33	2	20.0	47.6	0.0	1	0.427	0.000	L	25	20.0	585.779	588.711	589.138	589.141	0
2	22071903	177	Low	10.0	Precise	1	23	27	32	5.0	6.0	0.0	23	32	27	5.0	0.0	6.0	1	0.704	0.000	L	23	5.0	589.643	591.074	591.777	591.780	0
2	22071903	178	Low	10.0	Vague	2	23	33	5	5.0	47.6	1.0	33	23	5	47.6	5.0	1.0	1	0.540	0.000	D	23	5.0	592.282	593.109	593.649	593.652	0
2	22071903	179	Low	10.0	Vague	2	36	33	13	5.0	47.6	0.0	13	33	36	0.0	47.6	5.0	1	1.456	0.000	R	36	5.0	594.154	594.882	596.337	596.340	0
2	22071903	180	Low	10.0	Vague	2	24	33	7	7.2	47.6	5.0	7	33	24	5.0	47.6	7.2	1	0.477	0.000	R	24	7.2	596.842	599.788	600.265	600.268	0
2	22071903	181	High	1.5	Vague	2	27	24	1	6.0	7.2	7.4	27	24	1	6.0	7.2	7.4	2	0.536	0.000	D	24	7.2	608.406	610.009	610.545	610.548	0
2	22071903	182	High	1.5	Vague	2	36	24	1	5.0	7.2	7.4	24	1	36	7.2	7.4	5.0	2	0.416	0.000	L	24	7.2	611.051	612.265	612.681	612.684	0
2	22071903	183	High	1.5	Vague	2	23	33	16	5.0	47.6	0.0	16	33	23	0.0	47.6	5.0	1	0.616	0.001	R	23	5.0	613.187	616.041	616.658	616.660	0
2	22071903	184	High	1.5	Vague	2	23	27	6	5.0	6.0	0.0	6	27	23	0.0	6.0	5.0	1	0.577	0.000	R	23	5.0	617.162	619.265	619.841	619.844	0
2	22071903	185	High	1.5	Vague	2	23	25	1	5.0	20.0	7.4	25	23	1	20.0	5.0	7.4	2	0.445	0.000	L	25	20.0	620.346	622.628	623.073	623.076	0
2	22071903	186	High	1.5	Vague	2	36	33	18	5.0	47.6	0.0	33	36	18	47.6	5.0	0.0	2	0.632	0.000	L	33	47.6	623.579	624.650	625.281	625.284	0
2	22071903	187	High	1.5	Precise	1	24	25	31	7.2	20.0	0.0	31	24	25	0.0	7.2	20.0	2	0.403	0.000	R	25	20.0	625.787	628.414	628.817	628.820	0
2	22071903	188	High	1.5	Precise	1	23	24	20	5.0	7.2	0.8	23	20	24	5.0	0.8	7.2	2	0.617	0.000	R	24	7.2	629.322	630.392	631.009	631.012	0
2	22071903	189	High	1.5	Vague	2	23	33	6	5.0	47.6	0.0	23	33	6	5.0	47.6	0.0	1	0.515	0.001	L	23	5.0	631.514	634.006	634.521	634.524	0
2	22071903	190	High	1.5	Vague	2	24	33	16	7.2	47.6	0.0	24	16	33	7.2	0.0	47.6	1	0.509	0.000	L	24	7.2	635.026	638.012	638.521	638.524	0
2	22071903	191	High	1.5	Vague	2	23	36	16	5.0	5.0	0.0	16	36	23	0.0	5.0	5.0	1	0.515	0.001	R	23	5.0	639.026	640.519	641.034	641.036	0
2	22071903	192	High	1.5	Vague	2	23	33	9	5.0	47.6	10.8	9	23	33	10.8	5.0	47.6	1	0.524	0.000	D	23	5.0	641.539	643.285	643.809	643.812	0
2	22071903	193	High	1.5	Precise	1	23	25	26	5.0	20.0	0.0	25	23	26	20.0	5.0	0.0	2	0.413	0.000	L	25	20.0	644.314	646.837	647.249	647.252	0
2	22071903	194	High	1.5	Precise	1	36	33	26	5.0	47.6	0.0	26	36	33	0.0	5.0	47.6	1	0.746	0.000	D	36	5.0	647.754	650.727	651.473	651.476	0
2	22071903	195	High	1.5	Vague	2	24	33	18	7.2	47.6	0.0	33	18	24	47.6	0.0	7.2	1	0.431	0.001	R	24	7.2	651.979	654.018	654.450	654.452	0
2	22071903	196	High	1.5	Vague	2	36	27	1	5.0	6.0	7.4	1	36	27	7.4	5.0	6.0	2	0.598	0.000	R	27	6.0	654.955	655.555	656.153	656.156	0
2	22071903	197	High	1.5	Vague	2	36	25	9	5.0	20.0	10.8	36	25	9	5.0	20.0	10.8	2	0.467	0.001	D	25	20.0	656.658	659.207	659.674	659.676	0
2	22071903	198	High	1.5	Precise	1	36	24	29	5.0	7.2	0.0	29	24	36	0.0	7.2	5.0	2	0.468	0.000	D	24	7.2	660.178	660.838	661.305	661.308	0
2	22071903	199	High	1.5	Precise	1	27	25	34	6.0	20.0	0.0	34	27	25	0.0	6.0	20.0	2	0.406	0.000	R	25	20.0	661.810	663.931	664.337	664.340	0
2	22071903	200	High	1.5	Precise	1	36	27	29	5.0	6.0	0.0	29	36	27	0.0	5.0	6.0	2	0.480	0.000	R	27	6.0	664.842	665.665	666.145	666.148	0
2	22071903	201	High	1.5	Precise	1	23	27	31	5.0	6.0	0.0	31	23	27	0.0	5.0	6.0	2	0.380	0.000	R	27	6.0	666.651	668.141	668.521	668.524	0
2	22071903	202	High	1.5	Precise	1	36	33	29	5.0	47.6	0.0	36	29	33	5.0	0.0	47.6	1	0.721	0.000	L	36	5.0	669.026	671.688	672.409	672.411	0
2	22071903	203	High	1.5	Vague	2	27	24	3	6.0	7.2	5.0	3	24	27	5.0	7.2	6.0	1	0.522	0.000	R	27	6.0	672.914	675.896	676.417	676.420	0
2	22071903	204	High	1.5	Precise	1	24	25	19	7.2	20.0	1.7	19	25	24	1.7	20.0	7.2	2	0.542	0.000	D	25	20.0	676.922	678.892	679.433	679.436	0
2	22071903	205	High	1.5	Vague	2	24	25	9	7.2	20.0	10.8	24	9	25	7.2	10.8	20.0	2	0.432	0.001	R	25	20.0	679.939	682.098	682.529	682.532	0
2	22071903	206	High	1.5	Vague	2	36	24	9	5.0	7.2	10.8	9	36	24	10.8	5.0	7.2	2	0.478	0.000	R	24	7.2	683.035	685.667	686.145	686.148	0
2	22071903	207	High	1.5	Precise	1	24	25	34	7.2	20.0	0.0	34	25	24	0.0	20.0	7.2	2	0.406	0.000	D	25	20.0	686.651	689.019	689.425	689.428	0
2	22071903	208	High	1.5	Vague	2	23	25	9	5.0	20.0	10.8	25	23	9	20.0	5.0	10.8	2	0.449	0.000	L	25	20.0	689.931	692.144	692.593	692.595	0
2	22071903	209	High	1.5	Vague	2	25	33	18	20.0	47.6	0.0	33	25	18	47.6	20.0	0.0	1	0.505	0.000	D	25	20.0	693.098	693.752	694.257	694.259	0
2	22071903	210	High	1.5	Precise	1	23	27	34	5.0	6.0	0.0	34	27	23	0.0	6.0	5.0	1	0.508	0.000	R	23	5.0	694.762	696.069	696.577	696.580	0
2	22071903	211	High	1.5	Vague	2	36	25	3	5.0	20.0	5.0	3	36	25	5.0	5.0	20.0	2	0.464	0.000	R	25	20.0	697.082	698.449	698.913	698.916	0
2	22071903	212	High	1.5	Precise	1	36	24	34	5.0	7.2	0.0	36	24	34	5.0	7.2	0.0	2	0.512	0.000	D	24	7.2	699.419	701.074	701.585	701.588	0
2	22071903	213	High	1.5	Precise	1	36	33	31	5.0	47.6	0.0	31	33	36	0.0	47.6	5.0	1	0.579	0.000	R	36	5.0	702.091	702.710	703.289	703.291	0
2	22071903	214	High	1.5	Vague	2	23	27	18	5.0	6.0	0.0	23	18	27	5.0	0.0	6.0	2	0.698	0.000	R	27	6.0	703.794	705.015	705.713	705.716	0
2	22071903	215	High	1.5	Vague	2	27	33	16	6.0	47.6	0.0	16	27	33	0.0	6.0	47.6	1	0.534	0.000	D	27	6.0	706.219	708.099	708.633	708.636	0
2	22071903	216	High	1.5	Vague	2	27	33	3	6.0	47.6	5.0	3	27	33	5.0	6.0	47.6	1	0.493	0.001	D	27	6.0	709.138	711.453	711.946	711.948	0
2	22071903	217	High	1.5	Vague	2	23	27	16	5.0	6.0	0.0	16	23	27	0.0	5.0	6.0	2	0.555	0.000	R	27	6.0	712.451	715.094	715.649	715.652	0
2	22071903	218	High	1.5	Precise	1	36	27	31	5.0	6.0	0.0	31	36	27	0.0	5.0	6.0	2	0.444	0.000	R	27	6.0	716.154	718.070	718.513	718.516	0
2	22071903	219	High	1.5	Vague	2	23	25	16	5.0	20.0	0.0	16	23	25	0.0	5.0	20.0	2	0.384	0.000	R	25	20.0	719.018	720.825	721.209	721.212	0
2	22071903	220	High	1.5	Vague	2	24	25	6	7.2	20.0	0.0	24	6	25	7.2	0.0	20.0	2	0.378	0.000	R	25	20.0	721.714	723.872	724.249	724.252	0
2	22071903	221	High	1.5	Vague	2	23	25	18	5.0	20.0	0.0	23	25	18	5.0	20.0	0.0	2	0.467	0.000	D	25	20.0	724.754	725.527	725.993	725.996	0
2	22071903	222	High	1.5	Vague	2	23	36	9	5.0	5.0	10.8	9	36	23	10.8	5.0	5.0	1	0.565	0.000	R	23	5.0	726.498	728.348	728.913	728.916	0
2	22071903	223	High	1.5	Precise	1	25	33	19	20.0	47.6	1.7	33	25	19	47.6	20.0	1.7	1	0.438	0.001	D	25	20.0	729.418	730.587	731.025	731.028	0
2	22071903	224	High	1.5	Vague	2	36	24	16	5.0	7.2	0.0	24	36	16	7.2	5.0	0.0	2	0.543	0.000	L	24	7.2	731.530	733.858	734.401	734.404	0
2	22071903	225	High	1.5	Vague	2	36	33	3	5.0	47.6	5.0	3	33	36	5.0	47.6	5.0	1	0.623	0.000	R	36	5.0	734.906	737.162	737.785	737.788	0
2	22071903	226	High	1.5	Vague	2	27	33	6	6.0	47.6	0.0	27	6	33	6.0	0.0	47.6	1	0.546	0.000	L	27	6.0	738.290	739.551	740.097	740.100	0
2	22071903	227	High	1.5	Precise	1	27	33	31	6.0	47.6	0.0	27	33	31	6.0	47.6	0.0	1	0.519	0.000	L	27	6.0	740.602	741.826	742.345	742.348	0
2	22071903	228	High	1.5	Precise	1	27	33	34	6.0	47.6	0.0	33	27	34	47.6	6.0	0.0	1	0.707	0.001	D	27	6.0	742.850	745.214	745.921	745.924	0
2	22071903	229	High	1.5	Vague	2	27	33	9	6.0	47.6	10.8	33	27	9	47.6	6.0	10.8	1	0.494	0.000	D	27	6.0	746.426	748.244	748.737	748.740	0
2	22071903	230	High	1.5	Precise	1	23	25	29	5.0	20.0	0.0	23	29	25	5.0	0.0	20.0	2	0.379	0.000	R	25	20.0	749.242	751.350	751.729	751.732	0
2	22071903	231	High	1.5	Precise	1	27	24	31	6.0	7.2	0.0	31	27	24	0.0	6.0	7.2	2	0.513	0.001	R	24	7.2	752.234	753.632	754.145	754.148	0
2	22071903	232	High	1.5	Precise	1	27	24	34	6.0	7.2	0.0	34	27	24	0.0	6.0	7.2	2	0.451	0.000	R	24	7.2	754.651	756.310	756.761	756.764	0
2	22071903	233	High	1.5	Vague	2	23	33	1	5.0	47.6	7.4	33	1	23	47.6	7.4	5.0	1	0.625	0.001	R	23	5.0	757.266	758.352	758.977	758.980	0
2	22071903	234	High	1.5	Vague	2	23	27	1	5.0	6.0	7.4	27	1	23	6.0	7.4	5.0	1	0.497	0.001	R	23	5.0	759.483	760.144	760.641	760.644	0
2	22071903	235	High	1.5	Precise	1	27	25	19	6.0	20.0	1.7	27	25	19	6.0	20.0	1.7	2	0.448	0.000	D	25	20.0	761.147	763.897	764.345	764.348	0
2	22071903	236	High	1.5	Vague	2	23	27	3	5.0	6.0	5.0	23	27	3	5.0	6.0	5.0	1	0.549	0.000	L	23	5.0	764.850	766.812	767.361	767.364	0
2	22071903	237	High	1.5	Vague	2	23	24	18	5.0	7.2	0.0	24	18	23	7.2	0.0	5.0	2	0.614	0.000	L	24	7.2	767.867	769.075	769.689	769.691	0
2	22071903	238	High	1.5	Precise	1	23	36	34	5.0	5.0	0.0	34	36	23	0.0	5.0	5.0	1	0.521	0.000	R	23	5.0	770.194	772.032	772.553	772.556	0
2	22071903	239	High	1.5	Vague	2	36	33	6	5.0	47.6	0.0	36	6	33	5.0	0.0	47.6	1	0.629	0.001	L	36	5.0	773.058	773.788	774.417	774.420	0
2	22071903	240	High	1.5	Vague	2	23	36	1	5.0	5.0	7.4	36	23	1	5.0	5.0	7.4	3	0.565	0.000	R	1	7.4	774.922	777.884	778.449	778.452	0
2	22071903	241	High	1.5	Precise	1	27	33	26	6.0	47.6	0.0	26	27	33	0.0	6.0	47.6	1	0.589	0.001	D	27	6.0	785.140	786.740	787.329	787.332	0
2	22071903	242	High	1.5	Vague	2	27	24	9	6.0	7.2	10.8	24	27	9	7.2	6.0	10.8	2	0.493	0.000	L	24	7.2	787.834	788.917	789.409	789.412	0
2	22071903	243	High	1.5	Precise	1	27	24	19	6.0	7.2	1.7	24	19	27	7.2	1.7	6.0	2	0.460	0.001	L	24	7.2	789.914	792.093	792.553	792.556	0
2	22071903	244	High	1.5	Precise	1	36	25	20	5.0	20.0	0.8	20	36	25	0.8	5.0	20.0	2	0.470	0.000	R	25	20.0	793.058	794.947	795.417	795.419	0
2	22071903	245	High	1.5	Vague	2	36	24	3	5.0	7.2	5.0	3	24	36	5.0	7.2	5.0	2	0.446	0.000	D	24	7.2	795.922	798.267	798.713	798.716	0
2	22071903	246	High	1.5	Vague	2	25	33	1	20.0	47.6	7.4	1	33	25	7.4	47.6	20.0	1	0.413	0.000	R	25	20.0	799.218	799.964	800.377	800.379	0
2	22071903	247	High	1.5	Vague	2	23	24	3	5.0	7.2	5.0	3	24	23	5.0	7.2	5.0	2	0.494	0.001	D	24	7.2	800.883	802.651	803.145	803.148	0
2	22071903	248	High	1.5	Vague	2	27	25	3	6.0	20.0	5.0	25	3	27	20.0	5.0	6.0	2	0.418	0.001	L	25	20.0	803.650	806.072	806.489	806.492	0
2	22071903	249	High	1.5	Precise	1	27	24	26	6.0	7.2	0.0	26	27	24	0.0	6.0	7.2	2	0.446	0.000	R	24	7.2	806.994	808.235	808.681	808.684	0
2	22071903	250	High	1.5	Precise	1	23	36	20	5.0	5.0	0.8	36	20	23	5.0	0.8	5.0	3	0.585	0.000	D	20	0.8	809.186	811.224	811.809	811.812	0
2	22071903	251	High	1.5	Vague	2	24	33	6	7.2	47.6	0.0	6	24	33	0.0	7.2	47.6	1	0.490	0.000	D	24	7.2	812.314	813.687	814.177	814.180	0
2	22071903	252	High	1.5	Precise	1	23	33	29	5.0	47.6	0.0	23	29	33	5.0	0.0	47.6	1	0.424	0.000	L	23	5.0	814.683	817.073	817.497	817.500	0
2	22071903	253	High	1.5	Vague	2	36	27	9	5.0	6.0	10.8	36	27	9	5.0	6.0	10.8	2	0.505	0.000	D	27	6.0	818.002	820.920	821.425	821.428	0
2	22071903	254	High	1.5	Precise	1	27	33	29	6.0	47.6	0.0	27	29	33	6.0	0.0	47.6	1	0.453	0.000	L	27	6.0	821.930	824.628	825.081	825.084	0
2	22071903	255	High	1.5	Precise	1	27	33	20	6.0	47.6	0.8	27	20	33	6.0	0.8	47.6	1	0.566	0.000	L	27	6.0	825.586	826.195	826.761	826.764	0
2	22071903	256	High	1.5	Precise	1	23	36	31	5.0	5.0	0.0	36	31	23	5.0	0.0	5.0	1	0.457	0.000	R	23	5.0	827.266	828.200	828.657	828.659	0
2	22071903	257	High	1.5	Precise	1	36	24	19	5.0	7.2	1.7	36	19	24	5.0	1.7	7.2	2	0.436	0.000	R	24	7.2	829.162	831.549	831.985	831.987	0
2	22071903	258	High	1.5	Precise	1	36	27	34	5.0	6.0	0.0	36	34	27	5.0	0.0	6.0	2	0.471	0.000	R	27	6.0	832.490	835.346	835.817	835.820	0
2	22071903	259	High	1.5	Vague	2	24	25	3	7.2	20.0	5.0	3	24	25	5.0	7.2	20.0	2	0.468	0.001	R	25	20.0	836.322	837.341	837.809	837.813	0
2	22071903	260	High	1.5	Precise	1	27	25	31	6.0	20.0	0.0	25	31	27	20.0	0.0	6.0	2	0.390	0.000	L	25	20.0	838.316	839.611	840.001	840.004	0
2	22071903	261	High	1.5	Vague	2	36	33	1	5.0	47.6	7.4	33	1	36	47.6	7.4	5.0	1	0.611	0.001	R	36	5.0	840.506	842.158	842.769	842.772	0
2	22071903	262	High	1.5	Vague	2	27	33	18	6.0	47.6	0.0	33	27	18	47.6	6.0	0.0	2	0.593	0.000	L	33	47.6	843.274	843.768	844.361	844.363	0
2	22071903	263	High	1.5	Vague	2	25	33	9	20.0	47.6	10.8	9	25	33	10.8	20.0	47.6	1	0.497	0.000	D	25	20.0	844.866	847.480	847.977	847.980	0
2	22071903	264	High	1.5	Vague	2	24	33	3	7.2	47.6	5.0	24	3	33	7.2	5.0	47.6	1	0.475	0.001	L	24	7.2	848.483	849.182	849.657	849.660	0
2	22071903	265	High	1.5	Vague	2	23	27	9	5.0	6.0	10.8	27	9	23	6.0	10.8	5.0	2	0.539	0.000	L	27	6.0	850.162	850.733	851.273	851.276	0
2	22071903	266	High	1.5	Vague	2	24	25	16	7.2	20.0	0.0	24	25	16	7.2	20.0	0.0	2	0.447	0.000	D	25	20.0	851.778	854.066	854.513	854.515	0
2	22071903	267	High	1.5	Vague	2	23	24	9	5.0	7.2	10.8	23	9	24	5.0	10.8	7.2	2	0.678	0.000	R	24	7.2	855.018	857.867	858.545	858.547	0
2	22071903	268	High	1.5	Vague	2	36	25	1	5.0	20.0	7.4	25	1	36	20.0	7.4	5.0	2	0.445	0.000	L	25	20.0	859.050	861.613	862.057	862.060	0
2	22071903	269	High	1.5	Vague	2	36	33	16	5.0	47.6	0.0	36	16	33	5.0	0.0	47.6	1	0.838	0.000	L	36	5.0	862.562	864.619	865.457	865.460	0
2	22071903	270	High	1.5	Precise	1	24	33	29	7.2	47.6	0.0	33	29	24	47.6	0.0	7.2	1	0.483	0.000	R	24	7.2	865.962	868.518	869.001	869.003	0
2	22071903	271	High	1.5	Precise	1	36	25	26	5.0	20.0	0.0	25	36	26	20.0	5.0	0.0	2	0.502	0.000	L	25	20.0	869.506	870.947	871.449	871.452	0
2	22071903	272	High	1.5	Precise	1	36	27	19	5.0	6.0	1.7	19	27	36	1.7	6.0	5.0	2	0.534	0.000	D	27	6.0	871.954	874.676	875.209	875.212	0
2	22071903	273	High	1.5	Precise	1	24	25	26	7.2	20.0	0.0	26	25	24	0.0	20.0	7.2	2	0.554	0.000	D	25	20.0	875.714	877.327	877.881	877.883	0
2	22071903	274	High	1.5	Precise	1	23	33	26	5.0	47.6	0.0	26	23	33	0.0	5.0	47.6	1	0.627	0.000	D	23	5.0	878.386	879.814	880.441	880.444	0
2	22071903	275	High	1.5	Precise	1	23	25	34	5.0	20.0	0.0	25	23	34	20.0	5.0	0.0	2	0.477	0.001	L	25	20.0	880.947	881.628	882.105	882.108	0
2	22071903	276	High	1.5	Vague	2	27	25	6	6.0	20.0	0.0	25	27	6	20.0	6.0	0.0	2	0.442	0.001	L	25	20.0	882.610	884.799	885.241	885.244	0
2	22071903	277	High	1.5	Precise	1	27	33	19	6.0	47.6	1.7	19	27	33	1.7	6.0	47.6	1	0.531	0.000	D	27	6.0	885.746	886.941	887.473	887.475	0
2	22071903	278	High	1.5	Precise	1	23	24	29	5.0	7.2	0.0	29	24	23	0.0	7.2	5.0	2	0.538	0.000	D	24	7.2	887.978	889.663	890.201	890.203	0
2	22071903	279	High	1.5	Vague	2	23	25	3	5.0	20.0	5.0	25	23	3	20.0	5.0	5.0	2	0.446	0.000	L	25	20.0	890.706	893.331	893.777	893.779	0
2	22071903	280	High	1.5	Precise	1	36	33	19	5.0	47.6	1.7	36	33	19	5.0	47.6	1.7	1	0.690	0.000	L	36	5.0	894.282	897.087	897.777	897.779	0
2	22071903	281	High	1.5	Vague	2	23	36	3	5.0	5.0	5.0	23	36	3	5.0	5.0	5.0	1	0.667	0.000	L	23	5.0	898.282	900.526	901.193	901.195	0
2	22071903	282	High	1.5	Precise	1	23	25	19	5.0	20.0	1.7	23	19	25	5.0	1.7	20.0	2	0.515	0.000	R	25	20.0	901.698	904.494	905.009	905.012	0
2	22071903	283	High	1.5	Precise	1	25	33	20	20.0	47.6	0.8	25	33	20	20.0	47.6	0.8	1	0.539	0.001	L	25	20.0	905.514	906.631	907.169	907.173	0
2	22071903	284	High	1.5	Precise	1	24	25	29	7.2	20.0	0.0	25	24	29	20.0	7.2	0.0	2	0.457	0.000	L	25	20.0	907.675	910.016	910.473	910.475	0
2	22071903	285	High	1.5	Precise	1	27	24	29	6.0	7.2	0.0	29	27	24	0.0	6.0	7.2	2	0.517	0.000	R	24	7.2	910.978	912.748	913.265	913.267	0
2	22071903	286	High	1.5	Precise	1	36	27	26	5.0	6.0	0.0	26	36	27	0.0	5.0	6.0	2	0.598	0.000	R	27	6.0	913.770	914.459	915.057	915.059	0
2	22071903	287	High	1.5	Precise	1	36	25	29	5.0	20.0	0.0	25	29	36	20.0	0.0	5.0	2	0.463	0.000	L	25	20.0	915.562	918.194	918.657	918.660	0
2	22071903	288	High	1.5	Precise	1	36	33	20	5.0	47.6	0.8	36	33	20	5.0	47.6	0.8	1	0.833	0.000	L	36	5.0	919.162	920.712	921.545	921.547	0
2	22071903	289	High	1.5	Vague	2	23	33	18	5.0	47.6	0.0	33	18	23	47.6	0.0	5.0	1	0.568	0.000	R	23	5.0	922.050	923.697	924.265	924.267	0
2	22071903	290	High	1.5	Vague	2	25	33	6	20.0	47.6	0.0	25	33	6	20.0	47.6	0.0	1	0.425	0.000	L	25	20.0	924.770	927.528	927.953	927.955	0
2	22071903	291	High	1.5	Precise	1	25	33	26	20.0	47.6	0.0	25	33	26	20.0	47.6	0.0	1	0.433	0.000	L	25	20.0	928.458	930.776	931.209	931.212	0
2	22071903	292	High	1.5	Vague	2	25	33	16	20.0	47.6	0.0	25	16	33	20.0	0.0	47.6	1	0.434	0.000	L	25	20.0	931.714	933.951	934.385	934.387	0
2	22071903	293	High	1.5	Precise	1	23	27	29	5.0	6.0	0.0	27	29	23	6.0	0.0	5.0	2	0.627	0.000	L	27	6.0	934.890	935.422	936.049	936.051	0
2	22071903	294	High	1.5	Precise	1	23	36	26	5.0	5.0	0.0	23	36	26	5.0	5.0	0.0	1	0.439	0.000	L	23	5.0	936.554	937.898	938.337	938.339	0
2	22071903	295	High	1.5	Vague	2	27	24	18	6.0	7.2	0.0	27	18	24	6.0	0.0	7.2	1	0.606	0.000	L	27	6.0	938.842	940.427	941.033	941.035	0
2	22071903	296	High	1.5	Precise	1	23	25	31	5.0	20.0	0.0	23	25	31	5.0	20.0	0.0	2	0.795	0.000	D	25	20.0	941.538	942.150	942.945	942.948	0
2	22071903	297	High	1.5	Vague	2	36	27	6	5.0	6.0	0.0	6	36	27	0.0	5.0	6.0	2	0.655	0.000	R	27	6.0	943.450	945.362	946.017	946.019	0
2	22071903	298	High	1.5	Precise	1	23	36	29	5.0	5.0	0.0	29	23	36	0.0	5.0	5.0	1	0.565	0.001	D	23	5.0	946.522	949.100	949.665	949.667	0
2	22071903	299	High	1.5	Precise	1	23	24	34	5.0	7.2	0.0	23	34	24	5.0	0.0	7.2	2	0.711	0.000	R	24	7.2	950.170	951.235	951.945	951.948	0
2	22071903	300	High	1.5	Precise	1	24	33	20	7.2	47.6	0.8	24	33	20	7.2	47.6	0.8	1	0.503	0.000	L	24	7.2	952.450	954.930	955.433	955.435	0
2	22071903	301	High	1.5	Precise	1	27	25	29	6.0	20.0	0.0	27	29	25	6.0	0.0	20.0	2	0.519	0.000	R	25	20.0	963.040	963.618	964.137	964.139	0
2	22071903	302	High	1.5	Vague	2	23	24	6	5.0	7.2	0.0	6	23	24	0.0	5.0	7.2	2	0.639	0.000	R	24	7.2	964.641	966.994	967.633	967.635	0
2	22071903	303	High	1.5	Vague	2	36	25	16	5.0	20.0	0.0	25	16	36	20.0	0.0	5.0	2	0.478	0.001	L	25	20.0	968.138	969.099	969.577	969.580	0
2	22071903	304	High	1.5	Vague	2	24	25	1	7.2	20.0	7.4	25	1	24	20.0	7.4	7.2	2	0.444	0.000	L	25	20.0	970.082	972.581	973.025	973.027	0
2	22071903	305	High	1.5	Precise	1	23	27	26	5.0	6.0	0.0	26	27	23	0.0	6.0	5.0	2	0.845	0.000	D	27	6.0	973.530	975.748	976.593	976.596	0
2	22071903	306	High	1.5	Precise	1	36	24	26	5.0	7.2	0.0	26	36	24	0.0	5.0	7.2	2	0.521	0.001	R	24	7.2	977.098	978.505	979.025	979.028	0
2	22071903	307	High	1.5	Vague	2	36	33	9	5.0	47.6	10.8	36	9	33	5.0	10.8	47.6	1	0.623	0.000	L	36	5.0	979.530	981.034	981.657	981.659	0
2	22071903	308	High	1.5	Precise	1	23	27	19	5.0	6.0	1.7	27	19	23	6.0	1.7	5.0	2	0.577	0.000	L	27	6.0	982.162	983.664	984.241	984.243	0
2	22071903	309	High	1.5	Precise	1	27	25	20	6.0	20.0	0.8	27	25	20	6.0	20.0	0.8	2	0.455	0.000	D	25	20.0	984.746	987.738	988.193	988.195	0
2	22071903	310	High	1.5	Vague	2	36	27	16	5.0	6.0	0.0	16	27	36	0.0	6.0	5.0	2	0.525	0.001	D	27	6.0	988.698	991.221	991.745	991.748	0
2	22071903	311	High	1.5	Precise	1	25	33	31	20.0	47.6	0.0	25	33	31	20.0	47.6	0.0	1	0.484	0.000	L	25	20.0	992.250	993.877	994.361	994.363	0
2	22071903	312	High	1.5	Precise	1	23	24	31	5.0	7.2	0.0	31	24	23	0.0	7.2	5.0	2	0.578	0.000	D	24	7.2	994.866	995.920	996.497	996.500	0
2	22071903	313	High	1.5	Vague	2	24	33	9	7.2	47.6	10.8	24	9	33	7.2	10.8	47.6	1	0.490	0.000	L	24	7.2	997.002	999.103	999.593	999.595	0
2	22071903	314	High	1.5	Vague	2	36	27	3	5.0	6.0	5.0	27	3	36	6.0	5.0	5.0	2	0.680	0.000	L	27	6.0	1000.098	1002.689	1003.369	1003.372	0
2	22071903	315	High	1.5	Vague	2	24	33	1	7.2	47.6	7.4	1	33	24	7.4	47.6	7.2	1	0.471	0.000	R	24	7.2	1003.874	1005.994	1006.465	1006.467	0
2	22071903	316	High	1.5	Precise	1	27	24	20	6.0	7.2	0.8	24	20	27	7.2	0.8	6.0	2	0.548	0.000	L	24	7.2	1006.970	1007.669	1008.217	1008.219	0
2	22071903	317	High	1.5	Vague	2	36	27	18	5.0	6.0	0.0	18	27	36	0.0	6.0	5.0	2	0.540	0.000	D	27	6.0	1008.722	1011.533	1012.073	1012.075	0
2	22071903	318	High	1.5	Precise	1	24	33	26	7.2	47.6	0.0	26	24	33	0.0	7.2	47.6	1	0.561	0.001	D	24	7.2	1012.578	1014.752	1015.313	1015.316	0
2	22071903	319	High	1.5	Vague	2	36	25	18	5.0	20.0	0.0	36	18	25	5.0	0.0	20.0	2	0.479	0.000	R	25	20.0	1015.819	1017.210	1017.689	1017.692	0
2	22071903	320	High	1.5	Vague	2	23	24	16	5.0	7.2	0.0	24	23	16	7.2	5.0	0.0	2	0.528	0.000	L	24	7.2	1018.195	1019.210	1019.737	1019.739	0
2	22071903	321	High	1.5	Precise	1	25	33	29	20.0	47.6	0.0	33	25	29	47.6	20.0	0.0	1	0.456	0.000	D	25	20.0	1020.242	1022.097	1022.553	1022.555	0
2	22071903	322	High	1.5	Precise	1	23	24	26	5.0	7.2	0.0	24	26	23	7.2	0.0	5.0	2	0.476	0.000	L	24	7.2	1023.058	1024.725	1025.201	1025.203	0
2	22071903	323	High	1.5	Vague	2	24	25	18	7.2	20.0	0.0	24	18	25	7.2	0.0	20.0	1	0.510	0.000	L	24	7.2	1025.706	1027.147	1027.657	1027.660	0
2	22071903	324	High	1.5	Vague	2	23	25	6	5.0	20.0	0.0	23	25	6	5.0	20.0	0.0	2	0.594	0.000	D	25	20.0	1028.162	1029.494	1030.089	1030.091	0
2	22071903	325	High	1.5	Precise	1	24	33	34	7.2	47.6	0.0	33	34	24	47.6	0.0	7.2	1	0.602	0.001	R	24	7.2	1030.593	1031.551	1032.153	1032.156	0
2	22071903	326	High	1.5	Precise	1	24	33	19	7.2	47.6	1.7	24	19	33	7.2	1.7	47.6	1	0.565	0.000	L	24	7.2	1032.658	1035.188	1035.753	1035.756	0
2	22071903	327	High	1.5	Vague	2	27	24	6	6.0	7.2	0.0	6	27	24	0.0	6.0	7.2	2	0.626	0.001	R	24	7.2	1036.258	1036.783	1037.409	1037.411	0
2	22071903	328	High	1.5	Vague	2	27	25	18	6.0	20.0	0.0	25	18	27	20.0	0.0	6.0	2	0.581	0.000	L	25	20.0	1037.914	1038.539	1039.121	1039.123	0
2	22071903	329	High	1.5	Precise	1	27	25	26	6.0	20.0	0.0	26	25	27	0.0	20.0	6.0	2	0.632	0.000	D	25	20.0	1039.626	1042.057	1042.689	1042.691	0
2	22071903	330	High	1.5	Vague	2	23	24	1	5.0	7.2	7.4	1	23	24	7.4	5.0	7.2	2	0.732	0.000	R	24	7.2	1043.194	1044.605	1045.337	1045.339	0
2	22071903	331	High	1.5	Precise	1	36	24	31	5.0	7.2	0.0	24	36	31	7.2	5.0	0.0	2	0.600	0.001	L	24	7.2	1045.842	1048.585	1049.185	1049.188	0
2	22071903	332	High	1.5	Vague	2	23	33	3	5.0	47.6	5.0	23	33	3	5.0	47.6	5.0	1	0.880	0.000	L	23	5.0	1049.690	1051.561	1052.441	1052.443	0
2	22071903	333	High	1.5	Vague	2	27	25	16	6.0	20.0	0.0	27	16	25	6.0	0.0	20.0	2	0.592	0.000	R	25	20.0	1052.945	1053.649	1054.241	1054.243	0
2	22071903	334	High	1.5	Vague	2	36	24	6	5.0	7.2	0.0	36	24	6	5.0	7.2	0.0	2	0.517	0.000	D	24	7.2	1054.746	1057.252	1057.769	1057.771	0
2	22071903	335	High	1.5	Vague	2	27	33	1	6.0	47.6	7.4	33	1	27	47.6	7.4	6.0	1	0.708	0.000	R	27	6.0	1058.274	1058.933	1059.641	1059.643	0
2	22071903	336	High	1.5	Vague	2	25	33	3	20.0	47.6	5.0	3	25	33	5.0	20.0	47.6	1	0.508	0.001	D	25	20.0	1060.146	1062.173	1062.681	1062.685	0
2	22071903	337	High	1.5	Precise	1	36	25	34	5.0	20.0	0.0	34	25	36	0.0	20.0	5.0	2	0.502	0.000	D	25	20.0	1063.187	1065.778	1066.281	1066.283	0
2	22071903	338	High	1.5	Precise	1	36	33	34	5.0	47.6	0.0	34	33	36	0.0	47.6	5.0	2	0.809	0.000	D	33	47.6	1066.786	1068.088	1068.897	1068.899	0
2	22071903	339	High	1.5	Precise	1	23	33	34	5.0	47.6	0.0	33	34	23	47.6	0.0	5.0	1	0.968	0.000	R	23	5.0	1069.402	1072.313	1073.281	1073.283	0
2	22071903	340	High	1.5	Precise	1	25	33	34	20.0	47.6	0.0	33	25	34	47.6	20.0	0.0	1	0.575	0.000	D	25	20.0	1073.785	1074.530	1075.105	1075.107	0
2	22071903	341	High	1.5	Precise	1	23	33	20	5.0	47.6	0.8	23	33	20	5.0	47.6	0.8	1	0.751	0.001	L	23	5.0	1075.610	1076.242	1076.993	1076.995	0
2	22071903	342	High	1.5	Vague	2	36	25	6	5.0	20.0	0.0	6	25	36	0.0	20.0	5.0	2	0.612	0.001	D	25	20.0	1077.498	1078.701	1079.313	1079.315	0
2	22071903	343	High	1.5	Vague	2	23	36	6	5.0	5.0	0.0	23	6	36	5.0	0.0	5.0	1	0.627	0.000	L	23	5.0	1079.818	1082.094	1082.721	1082.723	0
2	22071903	344	High	1.5	Precise	1	23	25	20	5.0	20.0	0.8	25	20	23	20.0	0.8	5.0	2	0.585	0.000	L	25	20.0	1083.226	1085.840	1086.425	1086.427	0
2	22071903	345	High	1.5	Precise	1	23	33	19	5.0	47.6	1.7	33	23	19	47.6	5.0	1.7	1	0.635	0.000	D	23	5.0	1086.929	1089.094	1089.729	1089.731	0
2	22071903	346	High	1.5	Precise	1	36	27	20	5.0	6.0	0.8	36	20	27	5.0	0.8	6.0	2	1.150	0.000	R	27	6.0	1090.234	1092.154	1093.305	1093.307	0
2	22071903	347	High	1.5	Precise	1	23	33	31	5.0	47.6	0.0	33	23	31	47.6	5.0	0.0	1	0.630	0.001	D	23	5.0	1093.810	1096.187	1096.817	1096.819	0
2	22071903	348	High	1.5	Vague	2	27	24	16	6.0	7.2	0.0	16	24	27	0.0	7.2	6.0	2	0.975	0.000	D	24	7.2	1097.322	1097.994	1098.969	1098.971	0
2	22071903	349	High	1.5	Precise	1	36	24	20	5.0	7.2	0.8	36	20	24	5.0	0.8	7.2	2	0.849	0.001	R	24	7.2	1099.474	1100.712	1101.561	1101.563	0
2	22071903	350	High	1.5	Vague	2	27	25	9	6.0	20.0	10.8	25	9	27	20.0	10.8	6.0	2	0.513	0.000	L	25	20.0	1102.066	1103.919	1104.433	1104.435	0
2	22071903	351	High	1.5	Precise	1	23	27	20	5.0	6.0	0.8	23	20	27	5.0	0.8	6.0	2	0.849	0.000	R	27	6.0	1104.938	1106.392	1107.241	1107.243	0
2	22071903	352	High	1.5	Vague	2	27	25	1	6.0	20.0	7.4	27	1	25	6.0	7.4	20.0	2	0.540	0.000	R	25	20.0	1107.746	1110.309	1110.849	1110.851	0
2	22071903	353	High	1.5	Precise	1	24	25	20	7.2	20.0	0.8	20	24	25	0.8	7.2	20.0	2	0.507	0.000	R	25	20.0	1111.354	1112.182	1112.689	1112.691	0
2	22071903	354	High	1.5	Vague	2	23	36	18	5.0	5.0	0.0	36	23	18	5.0	5.0	0.0	1	1.001	0.000	D	23	5.0	1113.195	1114.360	1115.361	1115.363	0
2	22071903	355	High	1.5	Precise	1	36	25	19	5.0	20.0	1.7	25	36	19	20.0	5.0	1.7	2	0.499	0.000	L	25	20.0	1115.866	1118.302	1118.801	1118.803	0
2	22071903	356	High	1.5	Vague	2	36	24	18	5.0	7.2	0.0	24	18	36	7.2	0.0	5.0	2	0.558	0.000	L	24	7.2	1119.306	1121.555	1122.113	1122.115	0
2	22071903	357	High	1.5	Precise	1	23	24	19	5.0	7.2	1.7	23	19	24	5.0	1.7	7.2	2	0.697	0.001	R	24	7.2	1122.617	1123.648	1124.345	1124.347	0
2	22071903	358	High	1.5	Precise	1	36	25	31	5.0	20.0	0.0	31	36	25	0.0	5.0	20.0	2	0.487	0.000	R	25	20.0	1124.850	1126.834	1127.321	1127.323	0
2	22071903	359	High	1.5	Precise	1	24	33	31	7.2	47.6	0.0	33	24	31	47.6	7.2	0.0	1	0.646	0.000	D	24	7.2	1127.826	1128.659	1129.305	1129.307	0
2	22071903	360	High	1.5	Precise	1	23	36	19	5.0	5.0	1.7	36	23	19	5.0	5.0	1.7	1	1.015	0.000	D	23	5.0	1129.810	1132.370	1133.385	1133.387	0
