Group	subID	trial	TimePressure	TimeConstraint	Vagueness	Vaguenesscode	ID1	ID2	ID3	V1	V2	V3	ID_left	ID_middle	ID_right	Bid_left	Bid_middle	Bid_right	chosenItem	RT	RTvariance	chosenPosition	chosenID	chosenValue	fixation_time	option_time	choice_time	feedback_time	timeout
2	22071907	1	Low	10.0	Vague	2	28	33	3	11.2	22.8	3.0	33	28	3	22.8	11.2	3.0	1	1.810	0.001	D	28	11.2	5.182	6.333	8.142	8.146	0
2	22071907	2	Low	10.0	Precise	1	33	32	31	22.8	28.3	8.9	32	33	31	28.3	22.8	8.9	2	1.987	0.001	L	32	28.3	8.649	11.451	13.438	13.441	0
2	22071907	3	Low	10.0	Precise	1	24	33	31	9.0	22.8	8.9	24	33	31	9.0	22.8	8.9	1	2.539	0.000	L	24	9.0	13.945	15.987	18.526	18.529	0
2	22071907	4	Low	10.0	Vague	2	24	36	5	9.0	15.4	2.7	5	24	36	2.7	9.0	15.4	2	2.164	0.001	R	36	15.4	19.033	20.635	22.798	22.802	0
2	22071907	5	Low	10.0	Precise	1	24	28	21	9.0	11.2	0.6	21	28	24	0.6	11.2	9.0	2	1.126	0.001	D	28	11.2	23.306	24.840	25.966	25.971	0
2	22071907	6	Low	10.0	Precise	1	26	36	19	10.0	15.4	1.5	36	26	19	15.4	10.0	1.5	2	1.735	0.001	L	36	15.4	26.476	27.719	29.454	29.457	0
2	22071907	7	Low	10.0	Vague	2	28	33	17	11.2	22.8	8.0	28	17	33	11.2	8.0	22.8	1	0.885	0.001	L	28	11.2	29.960	30.986	31.870	31.873	0
2	22071907	8	Low	10.0	Vague	2	24	26	3	9.0	10.0	3.0	26	3	24	10.0	3.0	9.0	3	2.558	0.000	D	3	3.0	32.375	35.104	37.662	37.665	0
2	22071907	9	Low	10.0	Precise	1	26	36	21	10.0	15.4	0.6	36	21	26	15.4	0.6	10.0	2	1.684	0.000	L	36	15.4	38.168	39.962	41.646	41.649	0
2	22071907	10	Low	10.0	Precise	1	28	32	34	11.2	28.3	4.4	28	34	32	11.2	4.4	28.3	1	0.787	0.001	L	28	11.2	42.152	43.868	44.654	44.657	0
2	22071907	11	Low	10.0	Precise	1	24	33	30	9.0	22.8	7.5	24	33	30	9.0	22.8	7.5	1	2.020	0.001	L	24	9.0	45.160	47.771	49.790	49.793	0
2	22071907	12	Low	10.0	Precise	1	24	28	31	9.0	11.2	8.9	31	28	24	8.9	11.2	9.0	2	1.412	0.000	D	28	11.2	50.296	51.674	53.086	53.089	0
2	22071907	13	Low	10.0	Precise	1	26	33	35	10.0	22.8	7.0	33	35	26	22.8	7.0	10.0	2	2.274	0.000	L	33	22.8	53.591	54.364	56.638	56.641	0
2	22071907	14	Low	10.0	Precise	1	24	33	34	9.0	22.8	4.4	34	33	24	4.4	22.8	9.0	1	1.978	0.000	R	24	9.0	57.144	57.684	59.662	59.665	0
2	22071907	15	Low	10.0	Precise	1	28	36	21	11.2	15.4	0.6	21	28	36	0.6	11.2	15.4	1	0.884	0.000	D	28	11.2	60.167	62.058	62.942	62.945	0
2	22071907	16	Low	10.0	Vague	2	24	33	3	9.0	22.8	3.0	24	3	33	9.0	3.0	22.8	3	1.726	0.001	D	3	3.0	63.448	65.584	67.310	67.313	0
2	22071907	17	Low	10.0	Precise	1	28	36	30	11.2	15.4	7.5	28	36	30	11.2	15.4	7.5	1	0.822	0.001	L	28	11.2	67.815	68.920	69.742	69.745	0
2	22071907	18	Low	10.0	Vague	2	26	33	5	10.0	22.8	2.7	5	33	26	2.7	22.8	10.0	2	1.654	0.001	D	33	22.8	70.247	73.065	74.718	74.721	0
2	22071907	19	Low	10.0	Vague	2	28	36	7	11.2	15.4	1.6	28	36	7	11.2	15.4	1.6	1	0.802	0.000	L	28	11.2	75.224	77.212	78.014	78.017	0
2	22071907	20	Low	10.0	Precise	1	26	36	30	10.0	15.4	7.5	36	26	30	15.4	10.0	7.5	2	1.434	0.000	L	36	15.4	78.519	81.428	82.862	82.864	0
2	22071907	21	Low	10.0	Precise	1	26	33	30	10.0	22.8	7.5	26	30	33	10.0	7.5	22.8	2	1.072	0.000	R	33	22.8	83.368	85.550	86.622	86.625	0
2	22071907	22	Low	10.0	Vague	2	28	36	17	11.2	15.4	8.0	36	17	28	15.4	8.0	11.2	1	0.935	0.000	R	28	11.2	87.128	88.680	89.614	89.617	0
2	22071907	23	Low	10.0	Vague	2	28	33	7	11.2	22.8	1.6	28	33	7	11.2	22.8	1.6	1	0.771	0.001	L	28	11.2	90.119	93.100	93.870	93.873	0
2	22071907	24	Low	10.0	Vague	2	24	33	17	9.0	22.8	8.0	17	24	33	8.0	9.0	22.8	2	1.523	0.000	R	33	22.8	94.375	95.083	96.606	96.609	0
2	22071907	25	Low	10.0	Vague	2	24	28	3	9.0	11.2	3.0	28	24	3	11.2	9.0	3.0	2	0.758	0.000	L	28	11.2	97.111	98.328	99.086	99.089	0
2	22071907	26	Low	10.0	Precise	1	36	32	31	15.4	28.3	8.9	32	36	31	28.3	15.4	8.9	2	1.181	0.000	L	32	28.3	99.592	101.681	102.862	102.865	0
2	22071907	27	Low	10.0	Vague	2	28	36	11	11.2	15.4	7.2	36	28	11	15.4	11.2	7.2	1	0.970	0.001	D	28	11.2	103.368	105.444	106.415	106.417	0
2	22071907	28	Low	10.0	Precise	1	24	36	30	9.0	15.4	7.5	24	30	36	9.0	7.5	15.4	1	1.771	0.000	L	24	9.0	106.920	107.539	109.310	109.313	0
2	22071907	29	Low	10.0	Precise	1	24	32	35	9.0	28.3	7.0	35	24	32	7.0	9.0	28.3	2	1.506	0.001	R	32	28.3	109.816	111.677	113.182	113.186	0
2	22071907	30	Low	10.0	Precise	1	36	32	35	15.4	28.3	7.0	35	36	32	7.0	15.4	28.3	2	1.391	0.000	R	32	28.3	113.689	116.271	117.662	117.665	0
2	22071907	31	Low	10.0	Vague	2	24	36	3	9.0	15.4	3.0	36	24	3	15.4	9.0	3.0	1	1.533	0.000	D	24	9.0	118.167	120.562	122.094	122.097	0
2	22071907	32	Low	10.0	Vague	2	24	36	11	9.0	15.4	7.2	36	11	24	15.4	7.2	9.0	2	1.275	0.001	L	36	15.4	122.599	123.523	124.798	124.801	0
2	22071907	33	Low	10.0	Precise	1	26	28	34	10.0	11.2	4.4	28	34	26	11.2	4.4	10.0	2	0.862	0.000	L	28	11.2	125.303	126.848	127.710	127.713	0
2	22071907	34	Low	10.0	Precise	1	26	33	21	10.0	22.8	0.6	26	21	33	10.0	0.6	22.8	2	1.435	0.001	R	33	22.8	128.215	129.283	130.719	130.721	0
2	22071907	35	Low	10.0	Vague	2	24	32	3	9.0	28.3	3.0	32	24	3	28.3	9.0	3.0	2	1.487	0.001	L	32	28.3	131.223	131.776	133.262	133.265	0
2	22071907	36	Low	10.0	Vague	2	26	36	5	10.0	15.4	2.7	5	26	36	2.7	10.0	15.4	2	1.420	0.000	R	36	15.4	133.767	135.074	136.494	136.497	0
2	22071907	37	Low	10.0	Vague	2	26	28	7	10.0	11.2	1.6	28	7	26	11.2	1.6	10.0	2	0.841	0.001	L	28	11.2	136.999	138.902	139.742	139.745	0
2	22071907	38	Low	10.0	Vague	2	24	32	17	9.0	28.3	8.0	24	32	17	9.0	28.3	8.0	2	1.579	0.001	D	32	28.3	140.248	142.532	144.110	144.113	0
2	22071907	39	Low	10.0	Vague	2	28	32	11	11.2	28.3	7.2	32	28	11	28.3	11.2	7.2	1	1.355	0.001	D	28	11.2	144.616	147.059	148.415	148.417	0
2	22071907	40	Low	10.0	Vague	2	36	33	17	15.4	22.8	8.0	33	36	17	22.8	15.4	8.0	1	1.367	0.000	D	36	15.4	148.920	151.879	153.246	153.249	0
2	22071907	41	Low	10.0	Precise	1	24	32	21	9.0	28.3	0.6	21	32	24	0.6	28.3	9.0	2	1.162	0.000	D	32	28.3	153.751	155.572	156.734	156.737	0
2	22071907	42	Low	10.0	Vague	2	24	26	7	9.0	10.0	1.6	24	26	7	9.0	10.0	1.6	1	1.826	0.001	L	24	9.0	157.239	159.148	160.974	160.977	0
2	22071907	43	Low	10.0	Precise	1	36	32	21	15.4	28.3	0.6	32	36	21	28.3	15.4	0.6	2	0.959	0.000	L	32	28.3	161.480	162.176	163.135	163.137	0
2	22071907	44	Low	10.0	Precise	1	24	32	31	9.0	28.3	8.9	24	31	32	9.0	8.9	28.3	2	1.053	0.000	R	32	28.3	163.640	164.209	165.262	165.265	0
2	22071907	45	Low	10.0	Vague	2	33	32	7	22.8	28.3	1.6	7	33	32	1.6	22.8	28.3	2	1.449	0.000	R	32	28.3	165.767	167.781	169.230	169.233	0
2	22071907	46	Low	10.0	Vague	2	24	28	14	9.0	11.2	5.1	28	14	24	11.2	5.1	9.0	2	0.801	0.000	L	28	11.2	169.735	170.781	171.582	171.585	0
2	22071907	47	Low	10.0	Vague	2	26	28	17	10.0	11.2	8.0	28	26	17	11.2	10.0	8.0	2	0.750	0.001	L	28	11.2	172.088	173.297	174.046	174.050	0
2	22071907	48	Low	10.0	Vague	2	33	32	5	22.8	28.3	2.7	33	32	5	22.8	28.3	2.7	2	1.432	0.000	D	32	28.3	174.553	176.742	178.174	178.177	0
2	22071907	49	Low	10.0	Precise	1	28	33	34	11.2	22.8	4.4	28	34	33	11.2	4.4	22.8	1	0.779	0.001	L	28	11.2	178.679	181.476	182.254	182.257	0
2	22071907	50	Low	10.0	Precise	1	36	32	30	15.4	28.3	7.5	36	30	32	15.4	7.5	28.3	2	1.028	0.001	R	32	28.3	182.760	183.690	184.718	184.721	0
2	22071907	51	Low	10.0	Vague	2	26	32	3	10.0	28.3	3.0	32	26	3	28.3	10.0	3.0	2	0.924	0.000	L	32	28.3	185.223	186.610	187.534	187.537	0
2	22071907	52	Low	10.0	Precise	1	36	33	19	15.4	22.8	1.5	33	36	19	22.8	15.4	1.5	1	1.334	0.001	D	36	15.4	188.039	190.840	192.175	192.177	0
2	22071907	53	Low	10.0	Vague	2	26	36	11	10.0	15.4	7.2	26	36	11	10.0	15.4	7.2	2	1.561	0.000	D	36	15.4	192.680	194.869	196.430	196.433	0
2	22071907	54	Low	10.0	Vague	2	26	28	14	10.0	11.2	5.1	26	14	28	10.0	5.1	11.2	2	0.974	0.000	R	28	11.2	196.936	197.584	198.558	198.561	0
2	22071907	55	Low	10.0	Vague	2	24	26	17	9.0	10.0	8.0	24	17	26	9.0	8.0	10.0	1	1.502	0.000	L	24	9.0	199.063	199.648	201.150	201.153	0
2	22071907	56	Low	10.0	Vague	2	26	33	14	10.0	22.8	5.1	33	14	26	22.8	5.1	10.0	2	1.983	0.001	L	33	22.8	201.655	202.975	204.958	204.961	0
2	22071907	57	Low	10.0	Precise	1	26	32	35	10.0	28.3	7.0	32	35	26	28.3	7.0	10.0	2	1.087	0.000	L	32	28.3	205.464	207.504	208.590	208.593	0
2	22071907	58	Low	10.0	Precise	1	24	26	34	9.0	10.0	4.4	26	24	34	10.0	9.0	4.4	1	1.002	0.001	D	24	9.0	209.095	211.700	212.702	212.705	0
2	22071907	59	Low	10.0	Vague	2	33	32	11	22.8	28.3	7.2	33	32	11	22.8	28.3	7.2	2	1.593	0.001	D	32	28.3	213.208	214.085	215.678	215.681	0
2	22071907	60	Low	10.0	Vague	2	24	32	14	9.0	28.3	5.1	32	14	24	28.3	5.1	9.0	2	1.157	0.001	L	32	28.3	216.184	217.386	218.542	218.545	0
2	22071907	61	Low	10.0	Vague	2	26	36	7	10.0	15.4	1.6	26	36	7	10.0	15.4	1.6	2	1.353	0.001	D	36	15.4	228.713	230.933	232.286	232.289	0
2	22071907	62	Low	10.0	Precise	1	36	32	19	15.4	28.3	1.5	36	19	32	15.4	1.5	28.3	2	1.593	0.000	R	32	28.3	232.791	233.862	235.454	235.457	0
2	22071907	63	Low	10.0	Precise	1	24	26	35	9.0	10.0	7.0	35	26	24	7.0	10.0	9.0	1	1.338	0.001	R	24	9.0	235.960	238.724	240.063	240.065	0
2	22071907	64	Low	10.0	Vague	2	26	32	7	10.0	28.3	1.6	26	32	7	10.0	28.3	1.6	2	0.936	0.001	D	32	28.3	240.567	242.406	243.342	243.345	0
2	22071907	65	Low	10.0	Precise	1	26	36	31	10.0	15.4	8.9	31	36	26	8.9	15.4	10.0	2	1.425	0.001	D	36	15.4	243.848	246.061	247.486	247.489	0
2	22071907	66	Low	10.0	Vague	2	28	33	11	11.2	22.8	7.2	11	33	28	7.2	22.8	11.2	1	1.848	0.000	R	28	11.2	247.993	249.814	251.662	251.665	0
2	22071907	67	Low	10.0	Precise	1	28	32	35	11.2	28.3	7.0	28	32	35	11.2	28.3	7.0	1	0.746	0.000	L	28	11.2	252.168	252.820	253.566	253.569	0
2	22071907	68	Low	10.0	Vague	2	24	33	5	9.0	22.8	2.7	24	5	33	9.0	2.7	22.8	2	2.045	0.001	R	33	22.8	254.071	256.578	258.622	258.625	0
2	22071907	69	Low	10.0	Precise	1	26	33	19	10.0	22.8	1.5	19	33	26	1.5	22.8	10.0	2	1.423	0.001	D	33	22.8	259.128	261.088	262.511	262.513	0
2	22071907	70	Low	10.0	Vague	2	24	28	7	9.0	11.2	1.6	7	24	28	1.6	9.0	11.2	2	0.736	0.000	R	28	11.2	263.016	264.446	265.182	265.185	0
2	22071907	71	Low	10.0	Precise	1	28	32	21	11.2	28.3	0.6	32	21	28	28.3	0.6	11.2	1	0.620	0.001	R	28	11.2	265.688	266.754	267.374	267.377	0
2	22071907	72	Low	10.0	Precise	1	28	33	35	11.2	22.8	7.0	33	35	28	22.8	7.0	11.2	1	0.594	0.001	R	28	11.2	267.880	270.108	270.702	270.706	0
2	22071907	73	Low	10.0	Precise	1	33	32	30	22.8	28.3	7.5	33	32	30	22.8	28.3	7.5	2	1.714	0.001	D	32	28.3	271.209	272.796	274.510	274.513	0
2	22071907	74	Low	10.0	Vague	2	24	33	14	9.0	22.8	5.1	24	33	14	9.0	22.8	5.1	1	0.958	0.001	L	24	9.0	275.015	277.024	277.983	277.985	0
2	22071907	75	Low	10.0	Vague	2	36	33	5	15.4	22.8	2.7	33	5	36	22.8	2.7	15.4	2	1.125	0.001	L	33	22.8	278.488	279.369	280.495	280.497	0
2	22071907	76	Low	10.0	Vague	2	36	33	11	15.4	22.8	7.2	11	33	36	7.2	22.8	15.4	1	0.990	0.000	R	36	15.4	281.000	283.024	284.014	284.017	0
2	22071907	77	Low	10.0	Precise	1	24	26	30	9.0	10.0	7.5	30	26	24	7.5	10.0	9.0	1	0.886	0.000	R	24	9.0	284.519	286.376	287.262	287.265	0
2	22071907	78	Low	10.0	Vague	2	28	32	14	11.2	28.3	5.1	32	14	28	28.3	5.1	11.2	1	1.022	0.001	R	28	11.2	287.767	288.528	289.550	289.553	0
2	22071907	79	Low	10.0	Precise	1	24	28	34	9.0	11.2	4.4	28	34	24	11.2	4.4	9.0	2	0.601	0.000	L	28	11.2	290.055	292.853	293.454	293.457	0
2	22071907	80	Low	10.0	Precise	1	33	32	19	22.8	28.3	1.5	19	33	32	1.5	22.8	28.3	2	1.166	0.001	R	32	28.3	293.959	295.952	297.118	297.121	0
2	22071907	81	Low	10.0	Vague	2	24	36	14	9.0	15.4	5.1	36	14	24	15.4	5.1	9.0	2	1.269	0.000	L	36	15.4	297.624	300.313	301.582	301.585	0
2	22071907	82	Low	10.0	Vague	2	36	33	14	15.4	22.8	5.1	36	14	33	15.4	5.1	22.8	1	1.135	0.000	L	36	15.4	302.088	303.424	304.559	304.561	0
2	22071907	83	Low	10.0	Vague	2	36	32	3	15.4	28.3	3.0	36	32	3	15.4	28.3	3.0	2	1.236	0.000	D	32	28.3	305.064	307.242	308.478	308.481	0
2	22071907	84	Low	10.0	Vague	2	28	32	3	11.2	28.3	3.0	28	3	32	11.2	3.0	28.3	1	0.713	0.000	L	28	11.2	308.983	310.949	311.662	311.665	0
2	22071907	85	Low	10.0	Precise	1	28	33	30	11.2	22.8	7.5	30	33	28	7.5	22.8	11.2	1	0.800	0.001	R	28	11.2	312.168	314.222	315.022	315.025	0
2	22071907	86	Low	10.0	Vague	2	26	32	5	10.0	28.3	2.7	32	5	26	28.3	2.7	10.0	2	0.908	0.000	L	32	28.3	315.528	318.515	319.422	319.425	0
2	22071907	87	Low	10.0	Vague	2	36	32	14	15.4	28.3	5.1	36	32	14	15.4	28.3	5.1	1	1.260	0.000	L	36	15.4	319.929	322.882	324.142	324.145	0
2	22071907	88	Low	10.0	Precise	1	26	33	31	10.0	22.8	8.9	26	33	31	10.0	22.8	8.9	2	1.697	0.001	D	33	22.8	324.647	325.950	327.647	327.649	0
2	22071907	89	Low	10.0	Vague	2	26	32	11	10.0	28.3	7.2	26	11	32	10.0	7.2	28.3	2	1.792	0.001	R	32	28.3	328.151	330.079	331.870	331.873	0
2	22071907	90	Low	10.0	Precise	1	33	32	34	22.8	28.3	4.4	32	34	33	28.3	4.4	22.8	2	1.416	0.000	L	32	28.3	332.376	333.143	334.558	334.561	0
2	22071907	91	Low	10.0	Precise	1	26	28	19	10.0	11.2	1.5	26	28	19	10.0	11.2	1.5	2	0.812	0.000	D	28	11.2	335.065	335.586	336.398	336.401	0
2	22071907	92	Low	10.0	Precise	1	24	33	35	9.0	22.8	7.0	24	35	33	9.0	7.0	22.8	2	1.181	0.000	R	33	22.8	336.903	339.073	340.254	340.257	0
2	22071907	93	Low	10.0	Precise	1	28	33	21	11.2	22.8	0.6	33	28	21	22.8	11.2	0.6	1	0.999	0.001	D	28	11.2	340.759	342.440	343.438	343.441	0
2	22071907	94	Low	10.0	Vague	2	36	32	7	15.4	28.3	1.6	36	7	32	15.4	1.6	28.3	2	1.213	0.001	R	32	28.3	343.943	345.602	346.815	346.817	0
2	22071907	95	Low	10.0	Vague	2	28	36	5	11.2	15.4	2.7	28	5	36	11.2	2.7	15.4	1	0.611	0.000	L	28	11.2	347.320	347.835	348.446	348.449	0
2	22071907	96	Low	10.0	Precise	1	36	32	34	15.4	28.3	4.4	36	34	32	15.4	4.4	28.3	1	1.188	0.000	L	36	15.4	348.952	350.938	352.126	352.129	0
2	22071907	97	Low	10.0	Vague	2	26	33	3	10.0	22.8	3.0	33	3	26	22.8	3.0	10.0	3	1.453	0.000	D	3	3.0	352.632	354.065	355.518	355.521	0
2	22071907	98	Low	10.0	Precise	1	28	36	19	11.2	15.4	1.5	28	19	36	11.2	1.5	15.4	1	0.593	0.000	L	28	11.2	356.023	357.741	358.334	358.337	0
2	22071907	99	Low	10.0	Precise	1	24	36	35	9.0	15.4	7.0	24	36	35	9.0	15.4	7.0	1	0.807	0.000	L	24	9.0	358.839	361.511	362.318	362.321	0
2	22071907	100	Low	10.0	Precise	1	24	28	35	9.0	11.2	7.0	24	35	28	9.0	7.0	11.2	2	0.746	0.000	R	28	11.2	362.823	365.781	366.526	366.529	0
2	22071907	101	Low	10.0	Precise	1	36	33	31	15.4	22.8	8.9	33	36	31	22.8	15.4	8.9	1	1.280	0.000	D	36	15.4	367.032	369.822	371.102	371.105	0
2	22071907	102	Low	10.0	Precise	1	28	33	31	11.2	22.8	8.9	28	33	31	11.2	22.8	8.9	1	0.686	0.001	L	28	11.2	371.608	373.744	374.431	374.433	0
2	22071907	103	Low	10.0	Vague	2	26	33	11	10.0	22.8	7.2	11	33	26	7.2	22.8	10.0	2	1.307	0.001	D	33	22.8	374.935	375.988	377.295	377.297	0
2	22071907	104	Low	10.0	Vague	2	33	32	14	22.8	28.3	5.1	14	32	33	5.1	28.3	22.8	2	1.408	0.001	D	32	28.3	377.799	379.534	380.942	380.945	0
2	22071907	105	Low	10.0	Precise	1	28	36	35	11.2	15.4	7.0	28	36	35	11.2	15.4	7.0	1	0.638	0.001	L	28	11.2	381.447	383.057	383.694	383.697	0
2	22071907	106	Low	10.0	Vague	2	24	36	7	9.0	15.4	1.6	7	36	24	1.6	15.4	9.0	2	0.873	0.001	D	36	15.4	384.200	386.261	387.134	387.137	0
2	22071907	107	Low	10.0	Precise	1	26	36	34	10.0	15.4	4.4	36	26	34	15.4	10.0	4.4	2	1.009	0.000	L	36	15.4	387.639	388.221	389.230	389.233	0
2	22071907	108	Low	10.0	Precise	1	24	28	30	9.0	11.2	7.5	28	30	24	11.2	7.5	9.0	2	0.686	0.000	L	28	11.2	389.735	390.321	391.007	391.009	0
2	22071907	109	Low	10.0	Precise	1	26	32	31	10.0	28.3	8.9	31	32	26	8.9	28.3	10.0	2	0.909	0.001	D	32	28.3	391.513	393.922	394.831	394.833	0
2	22071907	110	Low	10.0	Precise	1	24	32	34	9.0	28.3	4.4	34	24	32	4.4	9.0	28.3	2	0.820	0.001	R	32	28.3	395.335	397.370	398.191	398.193	0
2	22071907	111	Low	10.0	Vague	2	24	28	11	9.0	11.2	7.2	28	24	11	11.2	9.0	7.2	2	0.734	0.001	L	28	11.2	398.695	401.441	402.174	402.177	0
2	22071907	112	Low	10.0	Precise	1	26	33	34	10.0	22.8	4.4	26	34	33	10.0	4.4	22.8	2	1.541	0.000	R	33	22.8	402.679	403.785	405.326	405.329	0
2	22071907	113	Low	10.0	Precise	1	28	33	19	11.2	22.8	1.5	33	28	19	22.8	11.2	1.5	1	0.978	0.000	D	28	11.2	405.832	406.812	407.790	407.793	0
2	22071907	114	Low	10.0	Vague	2	24	28	5	9.0	11.2	2.7	28	24	5	11.2	9.0	2.7	2	0.603	0.000	L	28	11.2	408.295	409.171	409.774	409.777	0
2	22071907	115	Low	10.0	Precise	1	24	26	19	9.0	10.0	1.5	26	24	19	10.0	9.0	1.5	1	0.948	0.000	D	24	9.0	410.280	413.034	413.983	413.985	0
2	22071907	116	Low	10.0	Precise	1	26	28	35	10.0	11.2	7.0	28	26	35	11.2	10.0	7.0	2	0.613	0.001	L	28	11.2	414.487	416.506	417.118	417.121	0
2	22071907	117	Low	10.0	Precise	1	24	26	31	9.0	10.0	8.9	24	31	26	9.0	8.9	10.0	3	0.958	0.000	D	31	8.9	417.624	418.576	419.534	419.537	0
2	22071907	118	Low	10.0	Precise	1	24	36	19	9.0	15.4	1.5	36	24	19	15.4	9.0	1.5	2	1.171	0.000	L	36	15.4	420.040	422.379	423.550	423.553	0
2	22071907	119	Low	10.0	Vague	2	36	33	3	15.4	22.8	3.0	33	3	36	22.8	3.0	15.4	3	1.550	0.001	D	3	3.0	424.056	424.689	426.239	426.241	0
2	22071907	120	Low	10.0	Precise	1	28	36	31	11.2	15.4	8.9	31	36	28	8.9	15.4	11.2	1	0.651	0.001	R	28	11.2	426.744	428.868	429.518	429.521	0
2	22071907	121	Low	10.0	Precise	1	33	32	35	22.8	28.3	7.0	35	33	32	7.0	22.8	28.3	2	0.738	0.001	R	32	28.3	446.940	448.748	449.486	449.489	0
2	22071907	122	Low	10.0	Precise	1	24	32	30	9.0	28.3	7.5	32	24	30	28.3	9.0	7.5	2	0.744	0.001	L	32	28.3	449.991	451.430	452.175	452.177	0
2	22071907	123	Low	10.0	Vague	2	24	36	17	9.0	15.4	8.0	17	36	24	8.0	15.4	9.0	1	0.976	0.000	R	24	9.0	452.679	455.630	456.606	456.609	0
2	22071907	124	Low	10.0	Precise	1	24	36	21	9.0	15.4	0.6	21	36	24	0.6	15.4	9.0	1	0.721	0.000	R	24	9.0	457.111	459.741	460.462	460.465	0
2	22071907	125	Low	10.0	Precise	1	36	33	34	15.4	22.8	4.4	36	33	34	15.4	22.8	4.4	2	0.872	0.001	D	33	22.8	460.968	463.494	464.367	464.369	0
2	22071907	126	Low	10.0	Precise	1	28	32	30	11.2	28.3	7.5	32	28	30	28.3	11.2	7.5	1	0.886	0.001	D	28	11.2	464.871	466.489	467.374	467.377	0
2	22071907	127	Low	10.0	Vague	2	24	32	11	9.0	28.3	7.2	11	32	24	7.2	28.3	9.0	2	0.926	0.000	D	32	28.3	467.880	470.209	471.135	471.137	0
2	22071907	128	Low	10.0	Vague	2	36	32	5	15.4	28.3	2.7	36	5	32	15.4	2.7	28.3	2	0.842	0.001	R	32	28.3	471.639	472.245	473.086	473.089	0
2	22071907	129	Low	10.0	Precise	1	24	36	34	9.0	15.4	4.4	36	34	24	15.4	4.4	9.0	2	0.941	0.000	L	36	15.4	473.591	475.313	476.254	476.257	0
2	22071907	130	Low	10.0	Vague	2	26	28	11	10.0	11.2	7.2	11	28	26	7.2	11.2	10.0	2	0.745	0.001	D	28	11.2	476.759	479.030	479.775	479.777	0
2	22071907	131	Low	10.0	Vague	2	26	36	17	10.0	15.4	8.0	26	36	17	10.0	15.4	8.0	2	0.953	0.000	D	36	15.4	480.279	482.149	483.102	483.105	0
2	22071907	132	Low	10.0	Precise	1	36	33	21	15.4	22.8	0.6	21	36	33	0.6	15.4	22.8	1	0.760	0.000	D	36	15.4	483.607	485.094	485.854	485.857	0
2	22071907	133	Low	10.0	Vague	2	26	36	14	10.0	15.4	5.1	26	14	36	10.0	5.1	15.4	2	0.780	0.001	R	36	15.4	486.359	488.626	489.407	489.409	0
2	22071907	134	Low	10.0	Precise	1	36	33	35	15.4	22.8	7.0	33	36	35	22.8	15.4	7.0	1	0.698	0.000	D	36	15.4	489.911	491.141	491.839	491.841	0
2	22071907	135	Low	10.0	Precise	1	26	32	21	10.0	28.3	0.6	32	21	26	28.3	0.6	10.0	2	0.778	0.000	L	32	28.3	492.344	495.252	496.030	496.033	0
2	22071907	136	Low	10.0	Precise	1	28	36	34	11.2	15.4	4.4	28	34	36	11.2	4.4	15.4	1	0.685	0.001	L	28	11.2	496.536	497.170	497.854	497.857	0
2	22071907	137	Low	10.0	Vague	2	24	33	7	9.0	22.8	1.6	33	24	7	22.8	9.0	1.6	1	1.031	0.000	D	24	9.0	498.360	499.544	500.574	500.577	0
2	22071907	138	Low	10.0	Vague	2	26	32	14	10.0	28.3	5.1	26	32	14	10.0	28.3	5.1	2	0.843	0.001	D	32	28.3	501.080	502.515	503.359	503.361	0
2	22071907	139	Low	10.0	Vague	2	24	26	11	9.0	10.0	7.2	24	26	11	9.0	10.0	7.2	1	1.160	0.001	L	24	9.0	503.864	506.343	507.503	507.505	0
2	22071907	140	Low	10.0	Vague	2	28	33	14	11.2	22.8	5.1	33	28	14	22.8	11.2	5.1	1	0.690	0.000	D	28	11.2	508.008	509.820	510.510	510.513	0
2	22071907	141	Low	10.0	Precise	1	28	32	31	11.2	28.3	8.9	32	31	28	28.3	8.9	11.2	1	0.707	0.001	R	28	11.2	511.016	511.628	512.335	512.337	0
2	22071907	142	Low	10.0	Precise	1	26	28	21	10.0	11.2	0.6	28	21	26	11.2	0.6	10.0	2	0.718	0.000	L	28	11.2	512.840	515.616	516.334	516.337	0
2	22071907	143	Low	10.0	Vague	2	28	32	5	11.2	28.3	2.7	28	32	5	11.2	28.3	2.7	1	0.638	0.001	L	28	11.2	516.840	517.345	517.983	517.985	0
2	22071907	144	Low	10.0	Vague	2	28	32	7	11.2	28.3	1.6	32	7	28	28.3	1.6	11.2	1	1.103	0.001	R	28	11.2	518.488	519.391	520.495	520.497	0
2	22071907	145	Low	10.0	Precise	1	26	32	30	10.0	28.3	7.5	32	26	30	28.3	10.0	7.5	2	0.844	0.001	L	32	28.3	520.999	521.874	522.718	522.721	0
2	22071907	146	Low	10.0	Vague	2	26	28	5	10.0	11.2	2.7	28	26	5	11.2	10.0	2.7	2	0.644	0.000	L	28	11.2	523.224	524.394	525.038	525.041	0
2	22071907	147	Low	10.0	Vague	2	24	26	14	9.0	10.0	5.1	14	26	24	5.1	10.0	9.0	1	0.838	0.001	R	24	9.0	525.543	526.361	527.199	527.201	0
2	22071907	148	Low	10.0	Vague	2	36	32	17	15.4	28.3	8.0	17	36	32	8.0	15.4	28.3	1	0.921	0.000	D	36	15.4	527.703	529.077	529.998	530.001	0
2	22071907	149	Low	10.0	Vague	2	26	28	3	10.0	11.2	3.0	28	3	26	11.2	3.0	10.0	2	0.622	0.001	L	28	11.2	530.503	532.913	533.535	533.537	0
2	22071907	150	Low	10.0	Precise	1	24	28	19	9.0	11.2	1.5	24	28	19	9.0	11.2	1.5	2	0.869	0.000	D	28	11.2	534.039	536.826	537.695	537.697	0
2	22071907	151	Low	10.0	Vague	2	24	32	7	9.0	28.3	1.6	24	7	32	9.0	1.6	28.3	2	1.098	0.001	R	32	28.3	538.200	540.724	541.823	541.825	0
2	22071907	152	Low	10.0	Vague	2	28	33	5	11.2	22.8	2.7	5	33	28	2.7	22.8	11.2	1	0.654	0.000	R	28	11.2	542.328	542.848	543.503	543.505	0
2	22071907	153	Low	10.0	Precise	1	24	32	19	9.0	28.3	1.5	19	24	32	1.5	9.0	28.3	2	0.810	0.001	R	32	28.3	544.008	546.197	547.007	547.009	0
2	22071907	154	Low	10.0	Vague	2	24	28	17	9.0	11.2	8.0	17	24	28	8.0	9.0	11.2	2	0.639	0.000	R	28	11.2	547.511	549.599	550.238	550.241	0
2	22071907	155	Low	10.0	Precise	1	24	36	31	9.0	15.4	8.9	31	24	36	8.9	9.0	15.4	1	1.008	0.001	D	24	9.0	550.744	552.846	553.855	553.857	0
2	22071907	156	Low	10.0	Precise	1	24	26	21	9.0	10.0	0.6	26	24	21	10.0	9.0	0.6	1	0.819	0.001	D	24	9.0	554.360	557.083	557.903	557.905	0
2	22071907	157	Low	10.0	Vague	2	26	32	17	10.0	28.3	8.0	26	17	32	10.0	8.0	28.3	2	0.903	0.000	R	32	28.3	558.408	560.951	561.855	561.857	0
2	22071907	158	Low	10.0	Precise	1	28	32	19	11.2	28.3	1.5	28	19	32	11.2	1.5	28.3	1	0.703	0.000	L	28	11.2	562.359	564.880	565.582	565.585	0
2	22071907	159	Low	10.0	Vague	2	36	33	7	15.4	22.8	1.6	7	36	33	1.6	15.4	22.8	2	1.091	0.001	R	33	22.8	566.087	568.876	569.967	569.969	0
2	22071907	160	Low	10.0	Vague	2	24	32	5	9.0	28.3	2.7	24	32	5	9.0	28.3	2.7	2	0.787	0.000	D	32	28.3	570.472	573.259	574.046	574.049	0
2	22071907	161	Low	10.0	Precise	1	26	32	34	10.0	28.3	4.4	32	34	26	28.3	4.4	10.0	2	0.726	0.000	L	32	28.3	574.551	575.785	576.511	576.513	0
2	22071907	162	Low	10.0	Vague	2	33	32	3	22.8	28.3	3.0	32	33	3	28.3	22.8	3.0	2	1.013	0.001	L	32	28.3	577.015	579.082	580.095	580.097	0
2	22071907	163	Low	10.0	Precise	1	26	32	19	10.0	28.3	1.5	26	32	19	10.0	28.3	1.5	2	0.770	0.001	D	32	28.3	580.600	583.420	584.190	584.193	0
2	22071907	164	Low	10.0	Vague	2	28	36	14	11.2	15.4	5.1	36	28	14	15.4	11.2	5.1	1	0.756	0.001	D	28	11.2	584.696	586.570	587.327	587.329	0
2	22071907	165	Low	10.0	Vague	2	36	32	11	15.4	28.3	7.2	32	11	36	28.3	7.2	15.4	2	0.904	0.000	L	32	28.3	587.831	589.014	589.918	589.921	0
2	22071907	166	Low	10.0	Vague	2	24	33	11	9.0	22.8	7.2	24	11	33	9.0	7.2	22.8	1	1.469	0.000	L	24	9.0	590.424	591.729	593.198	593.201	0
2	22071907	167	Low	10.0	Vague	2	24	26	5	9.0	10.0	2.7	26	24	5	10.0	9.0	2.7	1	1.122	0.001	D	24	9.0	593.703	594.412	595.535	595.537	0
2	22071907	168	Low	10.0	Precise	1	33	32	21	22.8	28.3	0.6	21	33	32	0.6	22.8	28.3	2	0.974	0.001	R	32	28.3	596.040	598.961	599.935	599.937	0
2	22071907	169	Low	10.0	Vague	2	26	33	17	10.0	22.8	8.0	33	26	17	22.8	10.0	8.0	1	0.899	0.000	D	26	10.0	600.440	602.443	603.342	603.345	0
2	22071907	170	Low	10.0	Vague	2	26	33	7	10.0	22.8	1.6	26	7	33	10.0	1.6	22.8	1	1.309	0.001	L	26	10.0	603.847	606.562	607.871	607.873	0
2	22071907	171	Low	10.0	Vague	2	28	32	17	11.2	28.3	8.0	32	17	28	28.3	8.0	11.2	1	0.805	0.000	R	28	11.2	608.376	610.234	611.038	611.041	0
2	22071907	172	Low	10.0	Precise	1	26	28	31	10.0	11.2	8.9	28	31	26	11.2	8.9	10.0	2	0.714	0.001	L	28	11.2	611.543	613.077	613.791	613.794	0
2	22071907	173	Low	10.0	Precise	1	36	33	30	15.4	22.8	7.5	30	36	33	7.5	15.4	22.8	1	1.001	0.001	D	36	15.4	614.297	614.806	615.807	615.809	0
2	22071907	174	Low	10.0	Vague	2	26	36	3	10.0	15.4	3.0	36	26	3	15.4	10.0	3.0	2	0.626	0.000	L	36	15.4	616.311	618.620	619.246	619.249	0
2	22071907	175	Low	10.0	Precise	1	24	33	19	9.0	22.8	1.5	33	24	19	22.8	9.0	1.5	1	1.217	0.000	D	24	9.0	619.752	620.653	621.871	621.873	0
2	22071907	176	Low	10.0	Precise	1	26	28	30	10.0	11.2	7.5	26	30	28	10.0	7.5	11.2	2	0.842	0.001	R	28	11.2	622.376	624.981	625.823	625.825	0
2	22071907	177	Low	10.0	Precise	1	26	36	35	10.0	15.4	7.0	35	36	26	7.0	15.4	10.0	2	0.837	0.001	D	36	15.4	626.328	629.114	629.951	629.953	0
2	22071907	178	Low	10.0	Vague	2	28	36	3	11.2	15.4	3.0	3	36	28	3.0	15.4	11.2	1	0.624	0.000	R	28	11.2	630.456	633.198	633.822	633.825	0
2	22071907	179	Low	10.0	Precise	1	24	33	21	9.0	22.8	0.6	24	33	21	9.0	22.8	0.6	1	0.705	0.001	L	24	9.0	634.328	635.102	635.807	635.809	0
2	22071907	180	Low	10.0	Vague	2	33	32	17	22.8	28.3	8.0	33	32	17	22.8	28.3	8.0	2	0.846	0.001	D	32	28.3	636.311	637.040	637.887	637.889	0
2	22071907	181	High	1.5	Precise	1	36	33	25	15.4	22.8	7.3	36	33	25	15.4	22.8	7.3	1	0.627	0.000	L	36	15.4	666.334	669.019	669.646	669.649	0
2	22071907	182	High	1.5	Precise	1	24	28	20	9.0	11.2	0.6	20	28	24	0.6	11.2	9.0	2	0.595	0.001	D	28	11.2	670.151	672.796	673.391	673.393	0
2	22071907	183	High	1.5	Vague	2	24	33	10	9.0	22.8	7.5	24	33	10	9.0	22.8	7.5	1	0.703	0.001	L	24	9.0	673.895	676.560	677.263	677.265	0
2	22071907	184	High	1.5	Precise	1	26	32	22	10.0	28.3	6.2	26	32	22	10.0	28.3	6.2	2	0.815	0.000	D	32	28.3	677.768	680.528	681.343	681.345	0
2	22071907	185	High	1.5	Precise	1	26	33	23	10.0	22.8	1.2	23	33	26	1.2	22.8	10.0	2	1.127	0.001	D	33	22.8	681.849	683.527	684.655	684.657	0
2	22071907	186	High	1.5	Vague	2	28	32	1	11.2	28.3	2.8	28	32	1	11.2	28.3	2.8	1	0.746	0.000	L	28	11.2	685.159	687.460	688.206	688.209	0
2	22071907	187	High	1.5	Precise	1	26	33	22	10.0	22.8	6.2	33	22	26	22.8	6.2	10.0	2	0.787	0.001	L	33	22.8	688.712	690.796	691.583	691.585	0
2	22071907	188	High	1.5	Precise	1	26	36	27	10.0	15.4	1.7	36	26	27	15.4	10.0	1.7	2	0.799	0.000	L	36	15.4	692.087	693.615	694.414	694.417	0
2	22071907	189	High	1.5	Precise	1	24	33	20	9.0	22.8	0.6	24	20	33	9.0	0.6	22.8	1	0.609	0.001	L	24	9.0	694.919	695.454	696.063	696.066	0
2	22071907	190	High	1.5	Precise	1	26	28	22	10.0	11.2	6.2	22	28	26	6.2	11.2	10.0	2	0.601	0.001	D	28	11.2	696.569	697.413	698.015	698.017	0
2	22071907	191	High	1.5	Precise	1	26	28	25	10.0	11.2	7.3	26	25	28	10.0	7.3	11.2	2	0.607	0.001	R	28	11.2	698.519	699.759	700.367	700.369	0
2	22071907	192	High	1.5	Precise	1	28	32	20	11.2	28.3	0.6	28	20	32	11.2	0.6	28.3	1	0.507	0.000	L	28	11.2	700.872	703.843	704.350	704.353	0
2	22071907	193	High	1.5	Vague	2	24	26	4	9.0	10.0	3.6	26	24	4	10.0	9.0	3.6	2	0.725	0.000	L	26	10.0	704.855	705.993	706.719	706.721	0
2	22071907	194	High	1.5	Vague	2	28	33	13	11.2	22.8	6.5	13	28	33	6.5	11.2	22.8	1	0.668	0.001	D	28	11.2	707.223	709.635	710.303	710.305	0
2	22071907	195	High	1.5	Vague	2	33	32	2	22.8	28.3	1.6	2	33	32	1.6	22.8	28.3	2	0.652	0.000	R	32	28.3	710.808	712.930	713.582	713.585	0
2	22071907	196	High	1.5	Vague	2	26	28	4	10.0	11.2	3.6	28	4	26	11.2	3.6	10.0	2	0.635	0.001	L	28	11.2	714.087	714.692	715.327	715.329	0
2	22071907	197	High	1.5	Vague	2	28	33	2	11.2	22.8	1.6	28	33	2	11.2	22.8	1.6	1	0.448	0.000	L	28	11.2	715.832	718.670	719.118	719.121	0
2	22071907	198	High	1.5	Precise	1	24	33	25	9.0	22.8	7.3	25	24	33	7.3	9.0	22.8	3	0.839	0.000	L	25	7.3	719.624	722.151	722.990	722.994	0
2	22071907	199	High	1.5	Vague	2	26	28	6	10.0	11.2	2.5	26	28	6	10.0	11.2	2.5	2	0.615	0.001	D	28	11.2	723.497	724.280	724.895	724.897	0
2	22071907	200	High	1.5	Vague	2	33	32	10	22.8	28.3	7.5	10	33	32	7.5	22.8	28.3	2	0.664	0.001	R	32	28.3	725.400	726.695	727.359	727.361	0
2	22071907	201	High	1.5	Precise	1	24	36	20	9.0	15.4	0.6	36	20	24	15.4	0.6	9.0	2	0.650	0.000	L	36	15.4	727.863	730.724	731.375	731.377	0
2	22071907	202	High	1.5	Vague	2	24	33	13	9.0	22.8	6.5	33	13	24	22.8	6.5	9.0	2	0.728	0.000	L	33	22.8	731.880	732.374	733.103	733.105	0
2	22071907	203	High	1.5	Precise	1	26	33	25	10.0	22.8	7.3	26	33	25	10.0	22.8	7.3	1	0.728	0.001	L	26	10.0	733.608	735.767	736.495	736.497	0
2	22071907	204	High	1.5	Precise	1	24	36	29	9.0	15.4	8.4	24	36	29	9.0	15.4	8.4	1	0.639	0.000	L	24	9.0	736.999	737.951	738.590	738.593	0
2	22071907	205	High	1.5	Precise	1	33	32	29	22.8	28.3	8.4	33	32	29	22.8	28.3	8.4	3	0.557	0.000	R	29	8.4	739.095	742.081	742.638	742.641	0
2	22071907	206	High	1.5	Precise	1	28	33	29	11.2	22.8	8.4	28	29	33	11.2	8.4	22.8	1	0.756	0.000	L	28	11.2	743.143	745.802	746.558	746.561	0
2	22071907	207	High	1.5	Vague	2	26	33	2	10.0	22.8	1.6	26	2	33	10.0	1.6	22.8	1	1.141	0.000	L	26	10.0	747.063	749.385	750.527	750.529	0
2	22071907	208	High	1.5	Precise	1	24	36	25	9.0	15.4	7.3	24	25	36	9.0	7.3	15.4	2	0.988	0.001	R	36	15.4	751.031	752.002	752.991	752.993	0
2	22071907	209	High	1.5	Precise	1	26	32	23	10.0	28.3	1.2	23	32	26	1.2	28.3	10.0	2	0.808	0.001	D	32	28.3	753.496	754.182	754.991	754.993	0
2	22071907	210	High	1.5	Precise	1	24	26	22	9.0	10.0	6.2	22	24	26	6.2	9.0	10.0	1	0.961	0.000	D	24	9.0	755.496	756.574	757.534	757.537	0
2	22071907	211	High	1.5	Precise	1	28	32	22	11.2	28.3	6.2	32	28	22	28.3	11.2	6.2	1	0.892	0.000	D	28	11.2	758.039	759.123	760.015	760.017	0
2	22071907	212	High	1.5	Vague	2	24	32	6	9.0	28.3	2.5	6	24	32	2.5	9.0	28.3	2	0.902	0.001	R	32	28.3	760.520	761.016	761.919	761.921	0
2	22071907	213	High	1.5	Precise	1	24	28	23	9.0	11.2	1.2	23	28	24	1.2	11.2	9.0	2	0.678	0.001	D	28	11.2	762.424	765.065	765.743	765.745	0
2	22071907	214	High	1.5	Precise	1	33	32	20	22.8	28.3	0.6	32	20	33	28.3	0.6	22.8	2	0.932	0.000	L	32	28.3	766.247	767.754	768.686	768.689	0
2	22071907	215	High	1.5	Precise	1	28	33	20	11.2	22.8	0.6	28	33	20	11.2	22.8	0.6	1	0.543	0.001	L	28	11.2	769.191	770.271	770.815	770.817	0
2	22071907	216	High	1.5	Vague	2	24	33	2	9.0	22.8	1.6	33	2	24	22.8	1.6	9.0	1	0.689	0.000	R	24	9.0	771.320	772.062	772.751	772.753	0
2	22071907	217	High	1.5	Vague	2	36	32	6	15.4	28.3	2.5	6	32	36	2.5	28.3	15.4	2	0.614	0.001	D	32	28.3	773.255	775.288	775.903	775.905	0
2	22071907	218	High	1.5	Vague	2	28	36	13	11.2	15.4	6.5	28	13	36	11.2	6.5	15.4	1	0.485	0.001	L	28	11.2	776.408	777.098	777.583	777.585	0
2	22071907	219	High	1.5	Vague	2	24	33	4	9.0	22.8	3.6	33	24	4	22.8	9.0	3.6	2	0.755	0.000	L	33	22.8	778.089	778.652	779.406	779.409	0
2	22071907	220	High	1.5	Vague	2	24	28	4	9.0	11.2	3.6	24	4	28	9.0	3.6	11.2	2	0.659	0.000	R	28	11.2	779.912	781.787	782.447	782.449	0
2	22071907	221	High	1.5	Vague	2	28	33	6	11.2	22.8	2.5	28	33	6	11.2	22.8	2.5	1	0.506	0.000	L	28	11.2	782.952	784.260	784.766	784.769	0
2	22071907	222	High	1.5	Precise	1	28	33	25	11.2	22.8	7.3	33	25	28	22.8	7.3	11.2	1	0.547	0.001	R	28	11.2	785.271	786.364	786.911	786.913	0
2	22071907	223	High	1.5	Precise	1	26	36	22	10.0	15.4	6.2	22	36	26	6.2	15.4	10.0	2	0.902	0.001	D	36	15.4	787.415	788.312	789.215	789.217	0
2	22071907	224	High	1.5	Precise	1	36	33	29	15.4	22.8	8.4	36	33	29	15.4	22.8	8.4	1	0.603	0.000	L	36	15.4	789.719	791.300	791.903	791.905	0
2	22071907	225	High	1.5	Precise	1	36	32	27	15.4	28.3	1.7	36	27	32	15.4	1.7	28.3	2	0.829	0.001	R	32	28.3	792.408	794.769	795.599	795.601	0
2	22071907	226	High	1.5	Precise	1	26	28	23	10.0	11.2	1.2	23	26	28	1.2	10.0	11.2	2	0.739	0.001	R	28	11.2	796.104	797.484	798.223	798.225	0
2	22071907	227	High	1.5	Vague	2	24	36	1	9.0	15.4	2.8	24	1	36	9.0	2.8	15.4	1	0.784	0.001	L	24	9.0	798.728	801.471	802.255	802.257	0
2	22071907	228	High	1.5	Precise	1	24	32	27	9.0	28.3	1.7	27	32	24	1.7	28.3	9.0	1	0.641	0.001	R	24	9.0	802.759	804.749	805.391	805.393	0
2	22071907	229	High	1.5	Precise	1	24	33	29	9.0	22.8	8.4	24	33	29	9.0	22.8	8.4	2	1.191	0.001	D	33	22.8	805.896	808.024	809.215	809.217	0
2	22071907	230	High	1.5	Precise	1	36	32	25	15.4	28.3	7.3	25	32	36	7.3	28.3	15.4	2	0.755	0.001	D	32	28.3	809.720	811.404	812.159	812.161	0
2	22071907	231	High	1.5	Vague	2	24	36	4	9.0	15.4	3.6	4	24	36	3.6	9.0	15.4	2	0.833	0.001	R	36	15.4	812.664	814.814	815.647	815.649	0
2	22071907	232	High	1.5	Precise	1	24	26	20	9.0	10.0	0.6	20	26	24	0.6	10.0	9.0	1	1.012	0.000	R	24	9.0	816.152	818.714	819.726	819.729	0
2	22071907	233	High	1.5	Vague	2	24	28	10	9.0	11.2	7.5	28	24	10	11.2	9.0	7.5	2	0.592	0.001	L	28	11.2	820.232	822.623	823.215	823.217	0
2	22071907	234	High	1.5	Precise	1	26	36	23	10.0	15.4	1.2	26	36	23	10.0	15.4	1.2	2	0.818	0.000	D	36	15.4	823.720	825.276	826.094	826.097	0
2	22071907	235	High	1.5	Vague	2	36	32	2	15.4	28.3	1.6	32	36	2	28.3	15.4	1.6	2	0.714	0.001	L	32	28.3	826.599	829.381	830.095	830.097	0
2	22071907	236	High	1.5	Precise	1	24	33	22	9.0	22.8	6.2	33	24	22	22.8	9.0	6.2	2	0.904	0.000	L	33	22.8	830.600	831.622	832.526	832.529	0
2	22071907	237	High	1.5	Precise	1	24	26	29	9.0	10.0	8.4	24	26	29	9.0	10.0	8.4	3	0.622	0.000	R	29	8.4	833.032	835.232	835.854	835.857	0
2	22071907	238	High	1.5	Precise	1	36	33	20	15.4	22.8	0.6	36	33	20	15.4	22.8	0.6	1	0.762	0.000	L	36	15.4	836.359	837.061	837.823	837.825	0
2	22071907	239	High	1.5	Vague	2	33	32	4	22.8	28.3	3.6	33	4	32	22.8	3.6	28.3	1	0.809	0.000	L	33	22.8	838.327	840.886	841.695	841.697	0
2	22071907	240	High	1.5	Vague	2	26	32	4	10.0	28.3	3.6	32	26	4	28.3	10.0	3.6	2	0.675	0.001	L	32	28.3	842.200	844.668	845.343	845.345	0
2	22071907	241	High	1.5	Vague	2	24	28	6	9.0	11.2	2.5	24	6	28	9.0	2.5	11.2	2	0.802	0.001	R	28	11.2	859.463	860.333	861.135	861.137	0
2	22071907	242	High	1.5	Precise	1	24	32	29	9.0	28.3	8.4	24	32	29	9.0	28.3	8.4	3	0.965	0.001	R	29	8.4	861.640	862.458	863.423	863.425	0
2	22071907	243	High	1.5	Precise	1	28	33	22	11.2	22.8	6.2	33	28	22	22.8	11.2	6.2	1	0.709	0.000	D	28	11.2	863.928	866.601	867.311	867.313	0
2	22071907	244	High	1.5	Vague	2	28	33	1	11.2	22.8	2.8	33	1	28	22.8	2.8	11.2	1	0.696	0.000	R	28	11.2	867.816	868.983	869.679	869.681	0
2	22071907	245	High	1.5	Vague	2	24	28	13	9.0	11.2	6.5	13	28	24	6.5	11.2	9.0	2	0.577	0.001	D	28	11.2	870.184	872.526	873.103	873.105	0
2	22071907	246	High	1.5	Precise	1	24	26	23	9.0	10.0	1.2	24	26	23	9.0	10.0	1.2	1	0.953	0.001	L	24	9.0	873.608	874.870	875.823	875.825	0
2	22071907	247	High	1.5	Vague	2	28	33	10	11.2	22.8	7.5	33	28	10	22.8	11.2	7.5	1	0.518	0.000	D	28	11.2	876.328	877.864	878.383	878.385	0
2	22071907	248	High	1.5	Precise	1	24	28	29	9.0	11.2	8.4	28	29	24	11.2	8.4	9.0	2	0.519	0.001	L	28	11.2	878.888	881.623	882.143	882.145	0
2	22071907	249	High	1.5	Precise	1	26	36	20	10.0	15.4	0.6	26	36	20	10.0	15.4	0.6	1	0.824	0.000	L	26	10.0	882.648	883.910	884.735	884.737	0
2	22071907	250	High	1.5	Vague	2	24	36	10	9.0	15.4	7.5	24	10	36	9.0	7.5	15.4	2	0.856	0.000	R	36	15.4	885.240	887.239	888.094	888.097	0
2	22071907	251	High	1.5	Precise	1	26	32	25	10.0	28.3	7.3	32	26	25	28.3	10.0	7.3	2	0.814	0.000	L	32	28.3	888.599	891.297	892.110	892.113	0
2	22071907	252	High	1.5	Precise	1	24	36	22	9.0	15.4	6.2	24	36	22	9.0	15.4	6.2	2	0.803	0.001	D	36	15.4	892.615	894.572	895.375	895.377	0
2	22071907	253	High	1.5	Vague	2	24	26	2	9.0	10.0	1.6	24	26	2	9.0	10.0	1.6	1	0.738	0.000	L	24	9.0	895.880	898.653	899.390	899.393	0
2	22071907	254	High	1.5	Precise	1	24	33	27	9.0	22.8	1.7	27	33	24	1.7	22.8	9.0	1	0.968	0.001	R	24	9.0	899.896	901.111	902.079	902.081	0
2	22071907	255	High	1.5	Precise	1	28	32	23	11.2	28.3	1.2	28	32	23	11.2	28.3	1.2	1	0.633	0.001	L	28	11.2	902.583	903.509	904.143	904.145	0
2	22071907	256	High	1.5	Vague	2	28	33	4	11.2	22.8	3.6	4	28	33	3.6	11.2	22.8	1	0.640	0.001	D	28	11.2	904.648	907.119	907.759	907.761	0
2	22071907	257	High	1.5	Vague	2	26	33	6	10.0	22.8	2.5	6	33	26	2.5	22.8	10.0	2	0.832	0.000	D	33	22.8	908.264	909.583	910.415	910.417	0
2	22071907	258	High	1.5	Vague	2	26	33	13	10.0	22.8	6.5	26	13	33	10.0	6.5	22.8	1	0.716	0.000	L	26	10.0	910.920	912.211	912.927	912.929	0
2	22071907	259	High	1.5	Vague	2	28	36	4	11.2	15.4	3.6	28	4	36	11.2	3.6	15.4	1	0.548	0.001	L	28	11.2	913.432	914.666	915.215	915.217	0
2	22071907	260	High	1.5	Precise	1	28	32	29	11.2	28.3	8.4	28	29	32	11.2	8.4	28.3	1	0.523	0.000	L	28	11.2	915.720	918.180	918.703	918.705	0
2	22071907	261	High	1.5	Vague	2	33	32	1	22.8	28.3	2.8	1	33	32	2.8	22.8	28.3	2	0.898	0.000	R	32	28.3	919.207	920.237	921.134	921.137	0
2	22071907	262	High	1.5	Precise	1	26	28	20	10.0	11.2	0.6	26	20	28	10.0	0.6	11.2	2	0.600	0.000	R	28	11.2	921.639	924.230	924.830	924.833	0
2	22071907	263	High	1.5	Precise	1	33	32	23	22.8	28.3	1.2	23	32	33	1.2	28.3	22.8	2	0.872	0.001	D	32	28.3	925.335	927.015	927.887	927.889	0
2	22071907	264	High	1.5	Precise	1	24	28	22	9.0	11.2	6.2	22	24	28	6.2	9.0	11.2	2	0.684	0.001	R	28	11.2	928.392	929.234	929.919	929.921	0
2	22071907	265	High	1.5	Precise	1	26	32	20	10.0	28.3	0.6	32	26	20	28.3	10.0	0.6	2	0.606	0.000	L	32	28.3	930.423	933.056	933.662	933.665	0
2	22071907	266	High	1.5	Precise	1	26	33	27	10.0	22.8	1.7	33	26	27	22.8	10.0	1.7	2	0.755	0.000	L	33	22.8	934.168	936.156	936.911	936.913	0
2	22071907	267	High	1.5	Precise	1	26	36	25	10.0	15.4	7.3	25	36	26	7.3	15.4	10.0	2	1.090	0.000	D	36	15.4	937.415	938.733	939.823	939.825	0
2	22071907	268	High	1.5	Vague	2	28	36	10	11.2	15.4	7.5	10	36	28	7.5	15.4	11.2	1	0.622	0.000	R	28	11.2	940.328	942.160	942.782	942.785	0
2	22071907	269	High	1.5	Vague	2	24	32	13	9.0	28.3	6.5	13	24	32	6.5	9.0	28.3	2	0.848	0.000	R	32	28.3	943.288	943.966	944.815	944.817	0
2	22071907	270	High	1.5	Precise	1	33	32	27	22.8	28.3	1.7	33	27	32	22.8	1.7	28.3	2	0.634	0.001	R	32	28.3	945.320	948.037	948.671	948.673	0
2	22071907	271	High	1.5	Vague	2	28	32	4	11.2	28.3	3.6	28	4	32	11.2	3.6	28.3	1	0.695	0.001	L	28	11.2	949.177	951.704	952.399	952.401	0
2	22071907	272	High	1.5	Precise	1	33	32	25	22.8	28.3	7.3	25	32	33	7.3	28.3	22.8	2	0.874	0.001	D	32	28.3	952.904	955.493	956.367	956.369	0
2	22071907	273	High	1.5	Vague	2	28	36	6	11.2	15.4	2.5	28	6	36	11.2	2.5	15.4	1	0.553	0.000	L	28	11.2	956.871	958.630	959.182	959.185	0
2	22071907	274	High	1.5	Precise	1	24	32	22	9.0	28.3	6.2	32	22	24	28.3	6.2	9.0	2	0.584	0.001	L	32	28.3	959.687	961.623	962.207	962.209	0
2	22071907	275	High	1.5	Precise	1	24	28	27	9.0	11.2	1.7	27	28	24	1.7	11.2	9.0	2	0.640	0.000	D	28	11.2	962.711	964.799	965.439	965.441	0
2	22071907	276	High	1.5	Precise	1	26	32	29	10.0	28.3	8.4	26	29	32	10.0	8.4	28.3	3	0.868	0.001	D	29	8.4	965.943	967.739	968.607	968.609	0
2	22071907	277	High	1.5	Vague	2	36	33	1	15.4	22.8	2.8	36	1	33	15.4	2.8	22.8	1	0.933	0.001	L	36	15.4	969.112	971.769	972.703	972.705	0
2	22071907	278	High	1.5	Precise	1	36	32	23	15.4	28.3	1.2	32	23	36	28.3	1.2	15.4	2	0.656	0.000	L	32	28.3	973.208	975.054	975.710	975.713	0
2	22071907	279	High	1.5	Vague	2	36	33	4	15.4	22.8	3.6	33	36	4	22.8	15.4	3.6	2	0.703	0.000	L	33	22.8	976.216	978.432	979.134	979.137	0
2	22071907	280	High	1.5	Precise	1	28	36	25	11.2	15.4	7.3	25	36	28	7.3	15.4	11.2	1	0.633	0.000	R	28	11.2	979.639	981.525	982.158	982.161	0
2	22071907	281	High	1.5	Vague	2	24	36	2	9.0	15.4	1.6	24	36	2	9.0	15.4	1.6	2	0.883	0.001	D	36	15.4	982.663	984.571	985.455	985.457	0
2	22071907	282	High	1.5	Vague	2	36	32	1	15.4	28.3	2.8	1	36	32	2.8	15.4	28.3	2	0.866	0.000	R	32	28.3	985.960	987.132	987.998	988.001	0
2	22071907	283	High	1.5	Vague	2	28	36	2	11.2	15.4	1.6	2	36	28	1.6	15.4	11.2	1	0.477	0.000	R	28	11.2	988.504	989.457	989.934	989.937	0
2	22071907	284	High	1.5	Vague	2	28	32	10	11.2	28.3	7.5	32	28	10	28.3	11.2	7.5	1	0.558	0.000	D	28	11.2	990.439	993.056	993.615	993.617	0
2	22071907	285	High	1.5	Precise	1	26	33	20	10.0	22.8	0.6	26	33	20	10.0	22.8	0.6	2	0.843	0.001	D	33	22.8	994.119	995.412	996.255	996.257	0
2	22071907	286	High	1.5	Vague	2	26	32	6	10.0	28.3	2.5	32	6	26	28.3	2.5	10.0	2	0.585	0.001	L	32	28.3	996.760	998.134	998.719	998.721	0
2	22071907	287	High	1.5	Vague	2	28	32	13	11.2	28.3	6.5	28	13	32	11.2	6.5	28.3	1	0.646	0.000	L	28	11.2	999.224	1001.369	1002.015	1002.017	0
2	22071907	288	High	1.5	Precise	1	36	33	23	15.4	22.8	1.2	33	36	23	22.8	15.4	1.2	1	0.769	0.001	D	36	15.4	1002.520	1005.198	1005.967	1005.969	0
2	22071907	289	High	1.5	Vague	2	36	32	13	15.4	28.3	6.5	32	36	13	28.3	15.4	6.5	2	0.688	0.001	L	32	28.3	1006.472	1008.351	1009.039	1009.041	0
2	22071907	290	High	1.5	Vague	2	24	33	1	9.0	22.8	2.8	33	24	1	22.8	9.0	2.8	2	0.738	0.000	L	33	22.8	1009.544	1011.357	1012.095	1012.097	0
2	22071907	291	High	1.5	Precise	1	28	36	23	11.2	15.4	1.2	23	36	28	1.2	15.4	11.2	1	0.635	0.000	R	28	11.2	1012.600	1014.324	1014.959	1014.961	0
2	22071907	292	High	1.5	Precise	1	36	33	22	15.4	22.8	6.2	36	22	33	15.4	6.2	22.8	2	1.001	0.000	R	33	22.8	1015.464	1016.038	1017.038	1017.041	0
2	22071907	293	High	1.5	Vague	2	24	26	1	9.0	10.0	2.8	1	24	26	2.8	9.0	10.0	1	0.914	0.001	D	24	9.0	1017.544	1018.605	1019.519	1019.521	0
2	22071907	294	High	1.5	Precise	1	36	32	22	15.4	28.3	6.2	32	22	36	28.3	6.2	15.4	2	0.612	0.001	L	32	28.3	1020.024	1022.634	1023.246	1023.249	0
2	22071907	295	High	1.5	Vague	2	26	32	10	10.0	28.3	7.5	32	26	10	28.3	10.0	7.5	2	0.571	0.001	L	32	28.3	1023.751	1026.692	1027.263	1027.265	0
2	22071907	296	High	1.5	Vague	2	36	32	4	15.4	28.3	3.6	32	4	36	28.3	3.6	15.4	2	0.590	0.000	L	32	28.3	1027.768	1029.472	1030.062	1030.065	0
2	22071907	297	High	1.5	Vague	2	26	32	2	10.0	28.3	1.6	26	32	2	10.0	28.3	1.6	2	0.905	0.000	D	32	28.3	1030.568	1033.493	1034.398	1034.401	0
2	22071907	298	High	1.5	Precise	1	28	36	27	11.2	15.4	1.7	27	36	28	1.7	15.4	11.2	1	0.605	0.000	R	28	11.2	1034.904	1036.146	1036.750	1036.753	0
2	22071907	299	High	1.5	Precise	1	28	32	27	11.2	28.3	1.7	27	32	28	1.7	28.3	11.2	1	0.511	0.001	R	28	11.2	1037.256	1039.648	1040.159	1040.161	0
2	22071907	300	High	1.5	Precise	1	24	28	25	9.0	11.2	7.3	28	25	24	11.2	7.3	9.0	2	0.501	0.000	L	28	11.2	1040.664	1042.762	1043.263	1043.265	0
2	22071907	301	High	1.5	Precise	1	28	33	23	11.2	22.8	1.2	28	33	23	11.2	22.8	1.2	1	0.533	0.000	L	28	11.2	1059.402	1060.505	1061.038	1061.041	0
2	22071907	302	High	1.5	Vague	2	26	36	6	10.0	15.4	2.5	6	36	26	2.5	15.4	10.0	1	0.706	0.001	R	26	10.0	1061.543	1063.917	1064.623	1064.625	0
2	22071907	303	High	1.5	Vague	2	26	33	1	10.0	22.8	2.8	33	1	26	22.8	2.8	10.0	2	0.820	0.000	L	33	22.8	1065.128	1067.482	1068.302	1068.306	0
2	22071907	304	High	1.5	Precise	1	28	33	27	11.2	22.8	1.7	33	27	28	22.8	1.7	11.2	1	0.535	0.001	R	28	11.2	1068.809	1070.264	1070.799	1070.801	0
2	22071907	305	High	1.5	Precise	1	24	33	23	9.0	22.8	1.2	24	23	33	9.0	1.2	22.8	2	0.629	0.000	R	33	22.8	1071.304	1072.986	1073.614	1073.617	0
2	22071907	306	High	1.5	Precise	1	24	26	27	9.0	10.0	1.7	27	26	24	1.7	10.0	9.0	1	0.609	0.001	R	24	9.0	1074.120	1075.582	1076.191	1076.193	0
2	22071907	307	High	1.5	Vague	2	28	32	6	11.2	28.3	2.5	6	28	32	2.5	11.2	28.3	1	0.617	0.001	D	28	11.2	1076.695	1079.430	1080.047	1080.049	0
2	22071907	308	High	1.5	Precise	1	24	32	23	9.0	28.3	1.2	32	23	24	28.3	1.2	9.0	2	0.785	0.001	L	32	28.3	1080.552	1083.405	1084.191	1084.193	0
2	22071907	309	High	1.5	Precise	1	28	32	25	11.2	28.3	7.3	28	25	32	11.2	7.3	28.3	1	0.552	0.000	L	28	11.2	1084.697	1086.231	1086.782	1086.785	0
2	22071907	310	High	1.5	Vague	2	28	32	2	11.2	28.3	1.6	28	32	2	11.2	28.3	1.6	1	0.508	0.000	L	28	11.2	1087.287	1088.466	1088.974	1088.977	0
2	22071907	311	High	1.5	Precise	1	26	32	27	10.0	28.3	1.7	26	32	27	10.0	28.3	1.7	2	0.745	0.001	D	32	28.3	1089.480	1090.742	1091.487	1091.489	0
2	22071907	312	High	1.5	Vague	2	24	32	4	9.0	28.3	3.6	4	24	32	3.6	9.0	28.3	2	0.617	0.000	R	32	28.3	1091.992	1093.061	1093.678	1093.681	0
2	22071907	313	High	1.5	Vague	2	26	36	2	10.0	15.4	1.6	36	2	26	15.4	1.6	10.0	2	0.689	0.001	L	36	15.4	1094.183	1096.478	1097.167	1097.169	0
2	22071907	314	High	1.5	Vague	2	26	36	4	10.0	15.4	3.6	4	26	36	3.6	10.0	15.4	2	0.549	0.001	R	36	15.4	1097.672	1099.561	1100.111	1100.113	0
2	22071907	315	High	1.5	Vague	2	26	33	10	10.0	22.8	7.5	33	26	10	22.8	10.0	7.5	2	0.678	0.000	L	33	22.8	1100.615	1101.448	1102.126	1102.129	0
2	22071907	316	High	1.5	Vague	2	26	28	2	10.0	11.2	1.6	28	2	26	11.2	1.6	10.0	2	0.536	0.000	L	28	11.2	1102.632	1104.023	1104.559	1104.561	0
2	22071907	317	High	1.5	Precise	1	26	28	29	10.0	11.2	8.4	28	26	29	11.2	10.0	8.4	2	0.471	0.001	L	28	11.2	1105.064	1107.592	1108.063	1108.065	0
2	22071907	318	High	1.5	Vague	2	26	28	1	10.0	11.2	2.8	28	1	26	11.2	2.8	10.0	2	0.530	0.001	L	28	11.2	1108.568	1110.893	1111.423	1111.425	0
2	22071907	319	High	1.5	Precise	1	28	36	29	11.2	15.4	8.4	29	28	36	8.4	11.2	15.4	3	0.668	0.000	L	29	8.4	1111.928	1114.115	1114.782	1114.786	0
2	22071907	320	High	1.5	Vague	2	24	28	2	9.0	11.2	1.6	28	2	24	11.2	1.6	9.0	2	0.577	0.000	L	28	11.2	1115.288	1116.925	1117.502	1117.505	0
2	22071907	321	High	1.5	Vague	2	33	32	6	22.8	28.3	2.5	6	32	33	2.5	28.3	22.8	2	0.982	0.001	D	32	28.3	1118.008	1119.545	1120.527	1120.529	0
2	22071907	322	High	1.5	Precise	1	26	33	29	10.0	22.8	8.4	26	33	29	10.0	22.8	8.4	3	0.748	0.000	R	29	8.4	1121.032	1123.554	1124.302	1124.305	0
2	22071907	323	High	1.5	Vague	2	36	33	13	15.4	22.8	6.5	13	33	36	6.5	22.8	15.4	1	0.787	0.001	R	36	15.4	1124.807	1127.468	1128.255	1128.257	0
2	22071907	324	High	1.5	Vague	2	24	36	13	9.0	15.4	6.5	24	36	13	9.0	15.4	6.5	2	0.842	0.000	D	36	15.4	1128.760	1130.229	1131.070	1131.073	0
2	22071907	325	High	1.5	Precise	1	36	32	29	15.4	28.3	8.4	32	36	29	28.3	15.4	8.4	3	1.233	0.000	R	29	8.4	1131.575	1132.430	1133.663	1133.665	0
2	22071907	326	High	1.5	Vague	2	24	32	2	9.0	28.3	1.6	24	32	2	9.0	28.3	1.6	2	1.157	0.001	D	32	28.3	1134.167	1136.730	1137.887	1137.889	0
2	22071907	327	High	1.5	Vague	2	36	32	10	15.4	28.3	7.5	36	32	10	15.4	28.3	7.5	2	0.849	0.001	D	32	28.3	1138.392	1140.366	1141.215	1141.217	0
2	22071907	328	High	1.5	Precise	1	28	36	20	11.2	15.4	0.6	20	36	28	0.6	15.4	11.2	1	0.550	0.001	R	28	11.2	1141.720	1143.273	1143.823	1143.825	0
2	22071907	329	High	1.5	Precise	1	24	36	23	9.0	15.4	1.2	24	23	36	9.0	1.2	15.4	2	0.730	0.001	R	36	15.4	1144.328	1146.933	1147.663	1147.665	0
2	22071907	330	High	1.5	Vague	2	24	33	6	9.0	22.8	2.5	6	24	33	2.5	9.0	22.8	2	0.754	0.001	R	33	22.8	1148.168	1149.052	1149.807	1149.809	0
2	22071907	331	High	1.5	Precise	1	36	32	20	15.4	28.3	0.6	20	32	36	0.6	28.3	15.4	2	0.716	0.001	D	32	28.3	1150.312	1151.459	1152.175	1152.177	0
2	22071907	332	High	1.5	Vague	2	26	36	13	10.0	15.4	6.5	13	36	26	6.5	15.4	10.0	2	1.318	0.001	D	36	15.4	1152.680	1153.624	1154.943	1154.945	0
2	22071907	333	High	1.5	Precise	1	24	32	25	9.0	28.3	7.3	32	25	24	28.3	7.3	9.0	2	0.732	0.000	L	32	28.3	1155.448	1156.210	1156.943	1156.945	0
2	22071907	334	High	1.5	Vague	2	24	36	6	9.0	15.4	2.5	24	6	36	9.0	2.5	15.4	2	0.815	0.001	R	36	15.4	1157.448	1159.360	1160.175	1160.177	0
2	22071907	335	High	1.5	Precise	1	33	32	22	22.8	28.3	6.2	32	22	33	28.3	6.2	22.8	2	0.867	0.001	L	32	28.3	1160.680	1161.804	1162.671	1162.673	0
2	22071907	336	High	1.5	Precise	1	28	36	22	11.2	15.4	6.2	28	22	36	11.2	6.2	15.4	1	0.604	0.000	L	28	11.2	1163.176	1165.602	1166.206	1166.209	0
2	22071907	337	High	1.5	Vague	2	26	36	1	10.0	15.4	2.8	36	26	1	15.4	10.0	2.8	2	0.798	0.001	L	36	15.4	1166.712	1168.577	1169.375	1169.378	0
2	22071907	338	High	1.5	Vague	2	24	26	10	9.0	10.0	7.5	24	26	10	9.0	10.0	7.5	1	0.710	0.000	L	24	9.0	1169.880	1171.385	1172.095	1172.097	0
2	22071907	339	High	1.5	Precise	1	26	36	29	10.0	15.4	8.4	29	36	26	8.4	15.4	10.0	3	0.999	0.001	L	29	8.4	1172.599	1173.992	1174.991	1174.993	0
2	22071907	340	High	1.5	Precise	1	24	36	27	9.0	15.4	1.7	27	36	24	1.7	15.4	9.0	2	0.992	0.000	D	36	15.4	1175.496	1177.775	1178.767	1178.769	0
2	22071907	341	High	1.5	Vague	2	26	28	13	10.0	11.2	6.5	26	13	28	10.0	6.5	11.2	2	0.668	0.000	R	28	11.2	1179.272	1180.034	1180.702	1180.705	0
2	22071907	342	High	1.5	Vague	2	36	33	6	15.4	22.8	2.5	36	33	6	15.4	22.8	2.5	1	0.742	0.001	L	36	15.4	1181.208	1181.721	1182.463	1182.465	0
2	22071907	343	High	1.5	Vague	2	24	26	13	9.0	10.0	6.5	24	13	26	9.0	6.5	10.0	1	0.758	0.001	L	24	9.0	1182.968	1183.561	1184.319	1184.321	0
2	22071907	344	High	1.5	Vague	2	24	28	1	9.0	11.2	2.8	28	24	1	11.2	9.0	2.8	2	0.589	0.001	L	28	11.2	1184.824	1186.257	1186.847	1186.849	0
2	22071907	345	High	1.5	Vague	2	26	28	10	10.0	11.2	7.5	10	28	26	7.5	11.2	10.0	2	0.659	0.000	D	28	11.2	1187.352	1188.236	1188.895	1188.897	0
2	22071907	346	High	1.5	Vague	2	26	32	1	10.0	28.3	2.8	1	32	26	2.8	28.3	10.0	2	0.717	0.000	D	32	28.3	1189.400	1190.418	1191.135	1191.137	0
2	22071907	347	High	1.5	Vague	2	24	32	1	9.0	28.3	2.8	1	32	24	2.8	28.3	9.0	2	0.678	0.001	D	32	28.3	1191.640	1194.569	1195.247	1195.249	0
2	22071907	348	High	1.5	Precise	1	24	32	20	9.0	28.3	0.6	20	24	32	0.6	9.0	28.3	2	0.836	0.001	R	32	28.3	1195.752	1197.226	1198.063	1198.065	0
2	22071907	349	High	1.5	Vague	2	24	32	10	9.0	28.3	7.5	10	24	32	7.5	9.0	28.3	2	0.548	0.001	R	32	28.3	1198.568	1199.659	1200.207	1200.209	0
2	22071907	350	High	1.5	Vague	2	28	36	1	11.2	15.4	2.8	1	36	28	2.8	15.4	11.2	1	0.599	0.001	R	28	11.2	1200.712	1203.239	1203.839	1203.841	0
2	22071907	351	High	1.5	Precise	1	36	33	27	15.4	22.8	1.7	36	27	33	15.4	1.7	22.8	2	0.707	0.001	R	33	22.8	1204.343	1204.844	1205.551	1205.553	0
2	22071907	352	High	1.5	Vague	2	26	33	4	10.0	22.8	3.6	26	33	4	10.0	22.8	3.6	2	0.843	0.001	D	33	22.8	1206.056	1207.540	1208.383	1208.385	0
2	22071907	353	High	1.5	Precise	1	26	28	27	10.0	11.2	1.7	28	27	26	11.2	1.7	10.0	2	0.573	0.000	L	28	11.2	1208.888	1209.730	1210.302	1210.305	0
2	22071907	354	High	1.5	Vague	2	36	33	2	15.4	22.8	1.6	36	2	33	15.4	1.6	22.8	1	0.837	0.000	L	36	15.4	1210.808	1212.025	1212.862	1212.865	0
2	22071907	355	High	1.5	Vague	2	26	32	13	10.0	28.3	6.5	32	13	26	28.3	6.5	10.0	2	0.627	0.001	L	32	28.3	1213.367	1215.915	1216.543	1216.545	0
2	22071907	356	High	1.5	Vague	2	36	33	10	15.4	22.8	7.5	33	36	10	22.8	15.4	7.5	2	0.640	0.001	L	33	22.8	1217.048	1218.575	1219.215	1219.217	0
2	22071907	357	High	1.5	Vague	2	24	26	6	9.0	10.0	2.5	24	6	26	9.0	2.5	10.0	1	0.619	0.000	L	24	9.0	1219.721	1221.763	1222.382	1222.385	0
2	22071907	358	High	1.5	Vague	2	33	32	13	22.8	28.3	6.5	33	32	13	22.8	28.3	6.5	2	0.968	0.001	D	32	28.3	1222.888	1225.095	1226.063	1226.065	0
2	22071907	359	High	1.5	Vague	2	26	36	10	10.0	15.4	7.5	26	10	36	10.0	7.5	15.4	2	0.901	0.000	R	36	15.4	1226.568	1228.874	1229.774	1229.777	0
2	22071907	360	High	1.5	Precise	1	24	26	25	9.0	10.0	7.3	26	25	24	10.0	7.3	9.0	2	0.981	0.000	L	26	10.0	1230.279	1231.882	1232.863	1232.865	0
