Group	subID	trial	TimePressure	TimeConstraint	Vagueness	Vaguenesscode	ID1	ID2	ID3	V1	V2	V3	ID_left	ID_middle	ID_right	Bid_left	Bid_middle	Bid_right	chosenItem	RT	RTvariance	chosenPosition	chosenID	chosenValue	fixation_time	option_time	choice_time	feedback_time	timeout
1	22102402	1	High	1.5	Vague	2	18	17	36	89.9	90.0	9.3	17	36	18	90.0	9.3	89.9	2	0.746	0.000	L	17	90.0	6.197	7.389	8.135	8.139	0
1	22102402	2	High	1.5	Vague	2	14	15	20	17.3	42.7	2.6	14	20	15	17.3	2.6	42.7	1	0.691	0.000	L	14	17.3	8.644	10.284	10.975	10.978	0
1	22102402	3	High	1.5	Vague	2	14	10	22	17.3	31.7	4.0	22	14	10	4.0	17.3	31.7	1	0.844	0.001	D	14	17.3	11.483	13.619	14.463	14.466	0
1	22102402	4	High	1.5	Precise	1	18	17	8	89.9	90.0	6.6	17	18	8	90.0	89.9	6.6	2	0.645	0.000	L	17	90.0	14.971	16.443	17.087	17.090	0
1	22102402	5	High	1.5	Precise	1	18	17	7	89.9	90.0	2.2	7	17	18	2.2	90.0	89.9	2	0.870	0.000	D	17	90.0	17.594	20.105	20.975	20.980	0
1	22102402	6	High	1.5	Vague	2	10	17	27	31.7	90.0	6.4	27	10	17	6.4	31.7	90.0	2	0.583	0.001	R	17	90.0	21.485	22.832	23.415	23.418	0
1	22102402	7	High	1.5	Precise	1	15	18	13	42.7	89.9	2.4	18	15	13	89.9	42.7	2.4	2	0.752	0.000	L	18	89.9	23.921	26.791	27.543	27.546	0
1	22102402	8	High	1.5	Precise	1	15	17	7	42.7	90.0	2.2	17	15	7	90.0	42.7	2.2	2	0.580	0.001	L	17	90.0	28.049	30.531	31.111	31.114	0
1	22102402	9	High	1.5	Precise	1	14	15	13	17.3	42.7	2.4	14	13	15	17.3	2.4	42.7	1	0.834	0.001	L	14	17.3	31.617	32.861	33.695	33.698	0
1	22102402	10	High	1.5	Vague	2	10	16	23	31.7	64.9	2.3	16	10	23	64.9	31.7	2.3	2	1.033	0.000	L	16	64.9	34.201	35.189	36.223	36.225	0
1	22102402	11	High	1.5	Precise	1	14	10	12	17.3	31.7	11.7	14	10	12	17.3	31.7	11.7	1	1.243	0.000	L	14	17.3	36.729	39.372	40.615	40.617	0
1	22102402	12	High	1.5	Precise	1	15	16	6	42.7	64.9	4.4	6	16	15	4.4	64.9	42.7	1	0.757	0.000	R	15	42.7	41.120	41.698	42.455	42.458	0
1	22102402	13	High	1.5	Vague	2	14	10	32	17.3	31.7	7.5	32	14	10	7.5	17.3	31.7	1	0.796	0.000	D	14	17.3	42.961	43.763	44.559	44.562	0
1	22102402	14	High	1.5	Precise	1	14	15	12	17.3	42.7	11.7	15	14	12	42.7	17.3	11.7	2	0.679	0.000	L	15	42.7	45.065	47.656	48.335	48.337	0
1	22102402	15	High	1.5	Precise	1	15	18	7	42.7	89.9	2.2	18	7	15	89.9	2.2	42.7	2	0.873	0.000	L	18	89.9	48.840	50.030	50.903	50.906	0
1	22102402	16	High	1.5	Precise	1	14	16	7	17.3	64.9	2.2	16	14	7	64.9	17.3	2.2	1	0.663	0.001	D	14	17.3	51.409	52.913	53.575	53.578	0
1	22102402	17	High	1.5	Vague	2	18	17	20	89.9	90.0	2.6	20	17	18	2.6	90.0	89.9	2	0.661	0.001	D	17	90.0	54.080	54.819	55.479	55.481	0
1	22102402	18	High	1.5	Vague	2	10	16	32	31.7	64.9	7.5	16	32	10	64.9	7.5	31.7	3	0.562	0.001	D	32	7.5	55.984	58.501	59.064	59.066	0
1	22102402	19	High	1.5	Precise	1	16	17	9	64.9	90.0	6.4	17	9	16	90.0	6.4	64.9	2	0.564	0.000	L	17	90.0	59.568	61.579	62.143	62.146	0
1	22102402	20	High	1.5	Vague	2	10	18	22	31.7	89.9	4.0	18	22	10	89.9	4.0	31.7	2	0.761	0.000	L	18	89.9	62.649	64.942	65.703	65.706	0
1	22102402	21	High	1.5	Precise	1	14	15	6	17.3	42.7	4.4	15	6	14	42.7	4.4	17.3	2	0.978	0.001	L	15	42.7	66.208	68.645	69.623	69.626	0
1	22102402	22	High	1.5	Precise	1	10	17	8	31.7	90.0	6.6	10	17	8	31.7	90.0	6.6	2	0.589	0.001	D	17	90.0	70.129	71.171	71.759	71.762	0
1	22102402	23	High	1.5	Precise	1	14	10	13	17.3	31.7	2.4	10	14	13	31.7	17.3	2.4	1	0.959	0.000	D	14	17.3	72.266	74.448	75.407	75.410	0
1	22102402	24	High	1.5	Precise	1	10	18	13	31.7	89.9	2.4	10	18	13	31.7	89.9	2.4	2	1.011	0.000	D	18	89.9	75.913	77.164	78.175	78.178	0
1	22102402	25	High	1.5	Vague	2	14	15	22	17.3	42.7	4.0	14	22	15	17.3	4.0	42.7	2	0.861	0.000	R	15	42.7	78.681	79.370	80.231	80.234	0
1	22102402	26	High	1.5	Precise	1	10	18	8	31.7	89.9	6.6	18	8	10	89.9	6.6	31.7	2	0.714	0.000	L	18	89.9	80.737	82.029	82.743	82.745	0
1	22102402	27	High	1.5	Vague	2	14	18	22	17.3	89.9	4.0	18	14	22	89.9	17.3	4.0	2	0.555	0.000	L	18	89.9	83.249	84.060	84.615	84.618	0
1	22102402	28	High	1.5	Vague	2	18	17	23	89.9	90.0	2.3	23	17	18	2.3	90.0	89.9	1	0.685	0.001	R	18	89.9	85.120	85.987	86.671	86.674	0
1	22102402	29	High	1.5	Vague	2	14	18	27	17.3	89.9	6.4	18	14	27	89.9	17.3	6.4	2	0.797	0.000	L	18	89.9	87.177	88.978	89.775	89.778	0
1	22102402	30	High	1.5	Vague	2	14	16	22	17.3	64.9	4.0	14	22	16	17.3	4.0	64.9	1	0.896	0.000	L	14	17.3	90.280	93.240	94.135	94.138	0
1	22102402	31	High	1.5	Vague	2	14	16	36	17.3	64.9	9.3	16	14	36	64.9	17.3	9.3	1	1.030	0.000	D	14	17.3	94.640	95.961	96.991	96.994	0
1	22102402	32	High	1.5	Vague	2	16	17	32	64.9	90.0	7.5	32	17	16	7.5	90.0	64.9	2	0.746	0.000	D	17	90.0	97.496	100.141	100.887	100.890	0
1	22102402	33	High	1.5	Precise	1	15	16	8	42.7	64.9	6.6	16	8	15	64.9	6.6	42.7	1	1.092	0.000	R	15	42.7	101.392	102.931	104.023	104.026	0
1	22102402	34	High	1.5	Vague	2	10	15	23	31.7	42.7	2.3	15	23	10	42.7	2.3	31.7	2	0.674	0.001	L	15	42.7	104.529	106.982	107.655	107.658	0
1	22102402	35	High	1.5	Vague	2	14	18	32	17.3	89.9	7.5	32	18	14	7.5	89.9	17.3	1	0.942	0.001	R	14	17.3	108.161	109.657	110.599	110.602	0
1	22102402	36	High	1.5	Vague	2	15	17	20	42.7	90.0	2.6	15	17	20	42.7	90.0	2.6	2	0.729	0.000	D	17	90.0	111.104	113.470	114.199	114.202	0
1	22102402	37	High	1.5	Vague	2	14	15	27	17.3	42.7	6.4	14	27	15	17.3	6.4	42.7	2	0.976	0.000	R	15	42.7	114.704	117.655	118.631	118.634	0
1	22102402	38	High	1.5	Precise	1	15	16	12	42.7	64.9	11.7	16	15	12	64.9	42.7	11.7	1	0.853	0.001	D	15	42.7	119.136	120.266	121.119	121.122	0
1	22102402	39	High	1.5	Precise	1	10	17	6	31.7	90.0	4.4	10	17	6	31.7	90.0	4.4	2	0.643	0.001	D	17	90.0	121.624	122.493	123.136	123.138	0
1	22102402	40	High	1.5	Precise	1	10	16	9	31.7	64.9	6.4	9	10	16	6.4	31.7	64.9	1	1.089	0.000	D	10	31.7	123.641	124.183	125.271	125.274	0
1	22102402	41	High	1.5	Precise	1	14	18	9	17.3	89.9	6.4	9	14	18	6.4	17.3	89.9	2	0.982	0.000	R	18	89.9	125.777	128.129	129.111	129.114	0
1	22102402	42	High	1.5	Vague	2	15	17	36	42.7	90.0	9.3	36	17	15	9.3	90.0	42.7	2	0.668	0.000	D	17	90.0	129.617	131.459	132.128	132.130	0
1	22102402	43	High	1.5	Vague	2	14	18	36	17.3	89.9	9.3	36	14	18	9.3	17.3	89.9	2	0.878	0.001	R	18	89.9	132.633	135.034	135.912	135.914	0
1	22102402	44	High	1.5	Precise	1	15	18	6	42.7	89.9	4.4	18	15	6	89.9	42.7	4.4	2	0.681	0.000	L	18	89.9	136.416	138.423	139.103	139.106	0
1	22102402	45	High	1.5	Vague	2	14	16	32	17.3	64.9	7.5	14	32	16	17.3	7.5	64.9	1	1.212	0.000	L	14	17.3	139.608	141.643	142.855	142.858	0
1	22102402	46	High	1.5	Vague	2	15	18	20	42.7	89.9	2.6	15	18	20	42.7	89.9	2.6	1	0.864	0.000	L	15	42.7	143.361	144.056	144.919	144.921	0
1	22102402	47	High	1.5	Precise	1	14	18	7	17.3	89.9	2.2	14	18	7	17.3	89.9	2.2	2	0.769	0.000	D	18	89.9	145.424	146.950	147.719	147.722	0
1	22102402	48	High	1.5	Vague	2	14	16	20	17.3	64.9	2.6	20	14	16	2.6	17.3	64.9	1	0.795	0.001	D	14	17.3	148.224	148.916	149.712	149.714	0
1	22102402	49	High	1.5	Precise	1	10	18	6	31.7	89.9	4.4	10	6	18	31.7	4.4	89.9	2	1.021	0.000	R	18	89.9	150.216	153.138	154.159	154.161	0
1	22102402	50	High	1.5	Vague	2	15	18	22	42.7	89.9	4.0	18	15	22	89.9	42.7	4.0	2	0.861	0.000	L	18	89.9	154.664	156.090	156.951	156.954	0
1	22102402	51	High	1.5	Precise	1	16	17	6	64.9	90.0	4.4	17	6	16	90.0	4.4	64.9	2	0.611	0.001	L	17	90.0	157.456	159.941	160.551	160.554	0
1	22102402	52	High	1.5	Vague	2	15	17	22	42.7	90.0	4.0	22	15	17	4.0	42.7	90.0	2	0.617	0.000	R	17	90.0	161.056	163.190	163.807	163.810	0
1	22102402	53	High	1.5	Precise	1	15	16	7	42.7	64.9	2.2	7	16	15	2.2	64.9	42.7	1	0.828	0.001	R	15	42.7	164.312	167.020	167.847	167.850	0
1	22102402	54	High	1.5	Precise	1	14	17	8	17.3	90.0	6.6	14	17	8	17.3	90.0	6.6	2	0.592	0.001	D	17	90.0	168.354	170.071	170.664	170.666	0
1	22102402	55	High	1.5	Vague	2	16	17	20	64.9	90.0	2.6	20	17	16	2.6	90.0	64.9	2	0.506	0.000	D	17	90.0	171.169	174.133	174.639	174.642	0
1	22102402	56	High	1.5	Precise	1	14	18	6	17.3	89.9	4.4	6	14	18	4.4	17.3	89.9	2	0.771	0.000	R	18	89.9	175.145	175.692	176.463	176.466	0
1	22102402	57	High	1.5	Precise	1	14	16	13	17.3	64.9	2.4	14	13	16	17.3	2.4	64.9	2	1.237	0.000	R	16	64.9	176.968	179.066	180.303	180.306	0
1	22102402	58	High	1.5	Precise	1	10	18	7	31.7	89.9	2.2	7	18	10	2.2	89.9	31.7	1	0.903	0.001	R	10	31.7	180.809	183.729	184.632	184.634	0
1	22102402	59	High	1.5	Vague	2	10	18	27	31.7	89.9	6.4	27	10	18	6.4	31.7	89.9	2	0.522	0.000	R	18	89.9	185.136	186.742	187.263	187.266	0
1	22102402	60	High	1.5	Vague	2	16	17	36	64.9	90.0	9.3	16	17	36	64.9	90.0	9.3	2	0.578	0.000	D	17	90.0	187.768	189.646	190.224	190.226	0
1	22102402	61	High	1.5	Precise	1	15	17	6	42.7	90.0	4.4	6	15	17	4.4	42.7	90.0	2	0.712	0.000	R	17	90.0	201.208	203.879	204.591	204.594	0
1	22102402	62	High	1.5	Vague	2	14	10	20	17.3	31.7	2.6	14	20	10	17.3	2.6	31.7	1	0.699	0.000	L	14	17.3	205.097	206.021	206.719	206.722	0
1	22102402	63	High	1.5	Vague	2	14	17	22	17.3	90.0	4.0	14	22	17	17.3	4.0	90.0	2	0.631	0.001	R	17	90.0	207.224	209.368	210.000	210.002	0
1	22102402	64	High	1.5	Vague	2	10	18	20	31.7	89.9	2.6	10	20	18	31.7	2.6	89.9	2	0.735	0.001	R	18	89.9	210.505	211.480	212.216	212.218	0
1	22102402	65	High	1.5	Precise	1	14	15	9	17.3	42.7	6.4	15	14	9	42.7	17.3	6.4	2	0.881	0.001	L	15	42.7	212.720	213.630	214.512	214.514	0
1	22102402	66	High	1.5	Precise	1	10	16	7	31.7	64.9	2.2	7	16	10	2.2	64.9	31.7	1	0.932	0.000	R	10	31.7	215.017	215.803	216.735	216.738	0
1	22102402	67	High	1.5	Precise	1	10	17	13	31.7	90.0	2.4	13	10	17	2.4	31.7	90.0	2	0.631	0.001	R	17	90.0	217.240	220.064	220.696	220.698	0
1	22102402	68	High	1.5	Vague	2	15	18	23	42.7	89.9	2.3	23	15	18	2.3	42.7	89.9	2	0.792	0.000	R	18	89.9	221.200	221.895	222.688	222.690	0
1	22102402	69	High	1.5	Vague	2	16	17	27	64.9	90.0	6.4	16	17	27	64.9	90.0	6.4	2	0.640	0.001	D	17	90.0	223.193	223.824	224.464	224.466	0
1	22102402	70	High	1.5	Vague	2	18	17	27	89.9	90.0	6.4	18	17	27	89.9	90.0	6.4	2	0.522	0.000	D	17	90.0	224.969	225.725	226.247	226.250	0
1	22102402	71	High	1.5	Precise	1	16	18	13	64.9	89.9	2.4	13	16	18	2.4	64.9	89.9	2	0.692	0.000	R	18	89.9	226.752	229.076	229.767	229.770	0
1	22102402	72	High	1.5	Precise	1	16	18	8	64.9	89.9	6.6	8	18	16	6.6	89.9	64.9	2	0.748	0.000	D	18	89.9	230.272	231.059	231.808	231.810	0
1	22102402	73	High	1.5	Vague	2	10	18	36	31.7	89.9	9.3	36	18	10	9.3	89.9	31.7	2	0.486	0.001	D	18	89.9	232.313	234.914	235.400	235.402	0
1	22102402	74	High	1.5	Vague	2	15	16	32	42.7	64.9	7.5	15	16	32	42.7	64.9	7.5	3	0.704	0.001	R	32	7.5	235.905	238.320	239.024	239.026	0
1	22102402	75	High	1.5	Precise	1	14	16	12	17.3	64.9	11.7	14	12	16	17.3	11.7	64.9	1	1.133	0.000	L	14	17.3	239.528	242.514	243.647	243.650	0
1	22102402	76	High	1.5	Precise	1	10	18	12	31.7	89.9	11.7	18	12	10	89.9	11.7	31.7	2	0.613	0.001	L	18	89.9	244.153	246.866	247.480	247.482	0
1	22102402	77	High	1.5	Precise	1	14	10	9	17.3	31.7	6.4	14	9	10	17.3	6.4	31.7	NaN	NaN	NaN	NaN	NaN	NaN	247.985	250.109	NaN	251.600	1
1	22102402	78	High	1.5	Vague	2	10	16	36	31.7	64.9	9.3	36	16	10	9.3	64.9	31.7	2	1.437	0.000	D	16	64.9	253.604	254.483	255.920	255.923	0
1	22102402	79	High	1.5	Vague	2	15	17	23	42.7	90.0	2.3	15	23	17	42.7	2.3	90.0	2	0.576	0.000	R	17	90.0	256.427	258.896	259.471	259.474	0
1	22102402	80	High	1.5	Vague	2	15	18	36	42.7	89.9	9.3	15	18	36	42.7	89.9	9.3	1	0.929	0.000	L	15	42.7	259.977	261.942	262.871	262.874	0
1	22102402	81	High	1.5	Precise	1	18	17	12	89.9	90.0	11.7	17	12	18	90.0	11.7	89.9	2	0.597	0.000	L	17	90.0	263.377	266.002	266.599	266.602	0
1	22102402	82	High	1.5	Vague	2	15	16	36	42.7	64.9	9.3	16	36	15	64.9	9.3	42.7	1	0.730	0.000	R	15	42.7	267.105	268.437	269.167	269.170	0
1	22102402	83	High	1.5	Vague	2	14	17	23	17.3	90.0	2.3	23	17	14	2.3	90.0	17.3	2	0.746	0.000	D	17	90.0	269.673	272.054	272.799	272.802	0
1	22102402	84	High	1.5	Vague	2	15	16	20	42.7	64.9	2.6	15	16	20	42.7	64.9	2.6	1	0.683	0.001	L	15	42.7	273.305	276.293	276.976	276.978	0
1	22102402	85	High	1.5	Precise	1	14	17	13	17.3	90.0	2.4	13	14	17	2.4	17.3	90.0	2	0.529	0.001	R	17	90.0	277.481	279.374	279.904	279.906	0
1	22102402	86	High	1.5	Precise	1	15	17	13	42.7	90.0	2.4	13	17	15	2.4	90.0	42.7	2	0.535	0.001	D	17	90.0	280.408	281.529	282.064	282.066	0
1	22102402	87	High	1.5	Vague	2	14	17	27	17.3	90.0	6.4	17	27	14	90.0	6.4	17.3	2	0.480	0.000	L	17	90.0	282.569	283.544	284.023	284.026	0
1	22102402	88	High	1.5	Precise	1	14	16	6	17.3	64.9	4.4	6	14	16	4.4	17.3	64.9	1	0.725	0.000	D	14	17.3	284.529	287.410	288.135	288.138	0
1	22102402	89	High	1.5	Vague	2	14	17	32	17.3	90.0	7.5	17	32	14	90.0	7.5	17.3	2	0.548	0.000	L	17	90.0	288.641	290.763	291.311	291.314	0
1	22102402	90	High	1.5	Vague	2	14	15	23	17.3	42.7	2.3	23	14	15	2.3	17.3	42.7	2	0.695	0.001	R	15	42.7	291.816	292.896	293.592	293.594	0
1	22102402	91	High	1.5	Precise	1	18	17	9	89.9	90.0	6.4	17	18	9	90.0	89.9	6.4	2	0.527	0.000	L	17	90.0	294.097	296.809	297.336	297.338	0
1	22102402	92	High	1.5	Vague	2	10	15	20	31.7	42.7	2.6	10	15	20	31.7	42.7	2.6	2	0.610	0.000	D	15	42.7	297.842	299.125	299.736	299.738	0
1	22102402	93	High	1.5	Vague	2	10	18	32	31.7	89.9	7.5	18	10	32	89.9	31.7	7.5	2	0.609	0.000	L	18	89.9	300.241	302.439	303.048	303.050	0
1	22102402	94	High	1.5	Vague	2	10	17	22	31.7	90.0	4.0	22	17	10	4.0	90.0	31.7	2	0.507	0.000	D	17	90.0	303.552	305.669	306.176	306.178	0
1	22102402	95	High	1.5	Vague	2	10	17	36	31.7	90.0	9.3	36	17	10	9.3	90.0	31.7	2	0.486	0.001	D	17	90.0	306.681	309.170	309.656	309.658	0
1	22102402	96	High	1.5	Precise	1	14	16	9	17.3	64.9	6.4	16	9	14	64.9	6.4	17.3	1	0.972	0.001	R	14	17.3	310.161	311.420	312.392	312.394	0
1	22102402	97	High	1.5	Precise	1	16	17	12	64.9	90.0	11.7	16	12	17	64.9	11.7	90.0	2	0.578	0.001	R	17	90.0	312.896	314.870	315.448	315.450	0
1	22102402	98	High	1.5	Vague	2	10	17	20	31.7	90.0	2.6	20	10	17	2.6	31.7	90.0	2	0.536	0.000	R	17	90.0	315.953	318.384	318.919	318.922	0
1	22102402	99	High	1.5	Precise	1	15	18	9	42.7	89.9	6.4	15	18	9	42.7	89.9	6.4	1	0.839	0.000	L	15	42.7	319.425	320.112	320.952	320.954	0
1	22102402	100	High	1.5	Vague	2	16	18	32	64.9	89.9	7.5	18	16	32	89.9	64.9	7.5	2	0.663	0.000	L	18	89.9	321.458	324.001	324.664	324.666	0
1	22102402	101	High	1.5	Vague	2	10	18	23	31.7	89.9	2.3	10	18	23	31.7	89.9	2.3	2	0.526	0.001	D	18	89.9	325.170	327.369	327.896	327.898	0
1	22102402	102	High	1.5	Precise	1	15	16	9	42.7	64.9	6.4	16	9	15	64.9	6.4	42.7	1	1.155	0.000	R	15	42.7	328.401	329.621	330.776	330.778	0
1	22102402	103	High	1.5	Precise	1	14	18	8	17.3	89.9	6.6	8	18	14	6.6	89.9	17.3	1	0.656	0.000	R	14	17.3	331.280	334.055	334.711	334.714	0
1	22102402	104	High	1.5	Vague	2	15	17	32	42.7	90.0	7.5	17	15	32	90.0	42.7	7.5	2	0.572	0.000	L	17	90.0	335.217	337.580	338.151	338.154	0
1	22102402	105	High	1.5	Precise	1	15	18	12	42.7	89.9	11.7	18	12	15	89.9	11.7	42.7	2	0.509	0.000	L	18	89.9	338.657	340.170	340.679	340.682	0
1	22102402	106	High	1.5	Precise	1	14	17	7	17.3	90.0	2.2	14	7	17	17.3	2.2	90.0	2	0.625	0.001	R	17	90.0	341.184	342.030	342.656	342.658	0
1	22102402	107	High	1.5	Vague	2	16	18	22	64.9	89.9	4.0	18	16	22	89.9	64.9	4.0	2	0.713	0.000	L	18	89.9	343.161	345.519	346.232	346.234	0
1	22102402	108	High	1.5	Precise	1	15	18	8	42.7	89.9	6.6	18	15	8	89.9	42.7	6.6	2	0.603	0.001	L	18	89.9	346.737	348.916	349.520	349.523	0
1	22102402	109	High	1.5	Precise	1	10	15	12	31.7	42.7	11.7	10	12	15	31.7	11.7	42.7	2	0.759	0.001	R	15	42.7	350.026	351.681	352.440	352.442	0
1	22102402	110	High	1.5	Precise	1	10	17	9	31.7	90.0	6.4	10	9	17	31.7	6.4	90.0	2	0.546	0.001	R	17	90.0	352.946	355.894	356.440	356.442	0
1	22102402	111	High	1.5	Vague	2	16	17	22	64.9	90.0	4.0	16	22	17	64.9	4.0	90.0	2	0.554	0.001	R	17	90.0	356.945	359.590	360.144	360.146	0
1	22102402	112	High	1.5	Precise	1	14	10	7	17.3	31.7	2.2	7	14	10	2.2	17.3	31.7	1	0.987	0.000	D	14	17.3	360.649	361.245	362.232	362.234	0
1	22102402	113	High	1.5	Precise	1	14	16	8	17.3	64.9	6.6	14	8	16	17.3	6.6	64.9	1	0.676	0.001	L	14	17.3	362.737	365.379	366.056	366.058	0
1	22102402	114	High	1.5	Vague	2	18	17	22	89.9	90.0	4.0	22	17	18	4.0	90.0	89.9	2	0.699	0.001	D	17	90.0	366.561	367.389	368.088	368.090	0
1	22102402	115	High	1.5	Precise	1	10	15	6	31.7	42.7	4.4	15	10	6	42.7	31.7	4.4	2	0.833	0.000	L	15	42.7	368.593	370.174	371.007	371.010	0
1	22102402	116	High	1.5	Precise	1	10	15	8	31.7	42.7	6.6	15	10	8	42.7	31.7	6.6	2	0.606	0.001	L	15	42.7	371.513	372.273	372.880	372.882	0
1	22102402	117	High	1.5	Vague	2	14	18	23	17.3	89.9	2.3	23	18	14	2.3	89.9	17.3	2	0.619	0.001	D	18	89.9	373.385	374.325	374.944	374.946	0
1	22102402	118	High	1.5	Precise	1	10	17	12	31.7	90.0	11.7	12	17	10	11.7	90.0	31.7	2	0.542	0.000	D	17	90.0	375.449	377.394	377.936	377.938	0
1	22102402	119	High	1.5	Vague	2	14	17	20	17.3	90.0	2.6	14	17	20	17.3	90.0	2.6	2	0.472	0.001	D	17	90.0	378.441	380.384	380.856	380.858	0
1	22102402	120	High	1.5	Vague	2	10	16	22	31.7	64.9	4.0	22	16	10	4.0	64.9	31.7	2	1.347	0.000	D	16	64.9	381.361	381.965	383.312	383.314	0
1	22102402	121	High	1.5	Precise	1	16	17	13	64.9	90.0	2.4	17	13	16	90.0	2.4	64.9	2	0.551	0.001	L	17	90.0	395.173	397.872	398.424	398.426	0
1	22102402	122	High	1.5	Precise	1	10	16	13	31.7	64.9	2.4	10	16	13	31.7	64.9	2.4	2	1.040	0.001	D	16	64.9	398.928	400.096	401.136	401.138	0
1	22102402	123	High	1.5	Vague	2	10	15	32	31.7	42.7	7.5	32	10	15	7.5	31.7	42.7	2	1.191	0.000	R	15	42.7	401.641	402.344	403.535	403.538	0
1	22102402	124	High	1.5	Precise	1	16	18	7	64.9	89.9	2.2	18	16	7	89.9	64.9	2.2	2	0.647	0.001	L	18	89.9	404.042	404.873	405.520	405.522	0
1	22102402	125	High	1.5	Precise	1	10	18	9	31.7	89.9	6.4	18	10	9	89.9	31.7	6.4	2	0.580	0.000	L	18	89.9	406.026	408.956	409.536	409.538	0
1	22102402	126	High	1.5	Precise	1	15	16	13	42.7	64.9	2.4	16	15	13	64.9	42.7	2.4	1	0.996	0.001	D	15	42.7	410.041	410.772	411.768	411.770	0
1	22102402	127	High	1.5	Vague	2	16	17	23	64.9	90.0	2.3	17	23	16	90.0	2.3	64.9	2	0.528	0.001	L	17	90.0	412.272	413.391	413.920	413.922	0
1	22102402	128	High	1.5	Precise	1	15	17	9	42.7	90.0	6.4	9	17	15	6.4	90.0	42.7	2	0.578	0.000	D	17	90.0	414.425	415.454	416.031	416.034	0
1	22102402	129	High	1.5	Vague	2	14	17	36	17.3	90.0	9.3	14	36	17	17.3	9.3	90.0	2	0.587	0.001	R	17	90.0	416.536	418.948	419.536	419.538	0
1	22102402	130	High	1.5	Precise	1	10	16	6	31.7	64.9	4.4	6	10	16	4.4	31.7	64.9	2	0.921	0.000	R	16	64.9	420.042	422.710	423.631	423.634	0
1	22102402	131	High	1.5	Vague	2	14	10	23	17.3	31.7	2.3	14	23	10	17.3	2.3	31.7	1	0.713	0.001	L	14	17.3	424.136	426.127	426.840	426.842	0
1	22102402	132	High	1.5	Precise	1	16	17	7	64.9	90.0	2.2	17	7	16	90.0	2.2	64.9	2	0.575	0.000	L	17	90.0	427.345	430.144	430.720	430.722	0
1	22102402	133	High	1.5	Precise	1	10	15	9	31.7	42.7	6.4	10	9	15	31.7	6.4	42.7	2	0.629	0.000	R	15	42.7	431.225	432.883	433.512	433.514	0
1	22102402	134	High	1.5	Vague	2	14	10	27	17.3	31.7	6.4	27	10	14	6.4	31.7	17.3	1	0.690	0.000	R	14	17.3	434.017	435.293	435.983	435.986	0
1	22102402	135	High	1.5	Precise	1	14	18	13	17.3	89.9	2.4	18	13	14	89.9	2.4	17.3	2	0.702	0.000	L	18	89.9	436.489	437.610	438.311	438.314	0
1	22102402	136	High	1.5	Precise	1	14	17	12	17.3	90.0	11.7	12	17	14	11.7	90.0	17.3	2	0.601	0.001	D	17	90.0	438.816	441.583	442.184	442.186	0
1	22102402	137	High	1.5	Vague	2	10	16	20	31.7	64.9	2.6	10	16	20	31.7	64.9	2.6	2	0.997	0.001	D	16	64.9	442.689	443.187	444.184	444.186	0
1	22102402	138	High	1.5	Vague	2	14	15	36	17.3	42.7	9.3	36	15	14	9.3	42.7	17.3	2	1.213	0.001	D	15	42.7	444.689	447.371	448.584	448.587	0
1	22102402	139	High	1.5	Vague	2	16	18	23	64.9	89.9	2.3	23	16	18	2.3	64.9	89.9	2	0.867	0.001	R	18	89.9	449.090	450.565	451.432	451.434	0
1	22102402	140	High	1.5	Vague	2	15	16	27	42.7	64.9	6.4	27	16	15	6.4	64.9	42.7	1	0.649	0.000	R	15	42.7	451.937	454.470	455.119	455.122	0
1	22102402	141	High	1.5	Vague	2	10	17	32	31.7	90.0	7.5	10	32	17	31.7	7.5	90.0	2	0.620	0.000	R	17	90.0	455.624	457.755	458.376	458.378	0
1	22102402	142	High	1.5	Precise	1	10	17	7	31.7	90.0	2.2	7	17	10	2.2	90.0	31.7	2	0.581	0.001	D	17	90.0	458.881	460.467	461.048	461.050	0
1	22102402	143	High	1.5	Vague	2	16	18	27	64.9	89.9	6.4	27	16	18	6.4	64.9	89.9	2	0.709	0.000	R	18	89.9	461.554	463.826	464.536	464.538	0
1	22102402	144	High	1.5	Precise	1	14	18	12	17.3	89.9	11.7	18	12	14	89.9	11.7	17.3	2	0.558	0.001	L	18	89.9	465.041	466.306	466.864	466.866	0
1	22102402	145	High	1.5	Vague	2	16	18	36	64.9	89.9	9.3	18	16	36	89.9	64.9	9.3	2	0.568	0.001	L	18	89.9	467.369	470.200	470.768	470.770	0
1	22102402	146	High	1.5	Precise	1	16	18	9	64.9	89.9	6.4	9	18	16	6.4	89.9	64.9	2	1.016	0.000	D	18	89.9	471.273	474.032	475.048	475.050	0
1	22102402	147	High	1.5	Vague	2	15	16	22	42.7	64.9	4.0	15	16	22	42.7	64.9	4.0	1	1.373	0.001	L	15	42.7	475.554	477.083	478.456	478.459	0
1	22102402	148	High	1.5	Precise	1	14	17	6	17.3	90.0	4.4	14	6	17	17.3	4.4	90.0	2	0.504	0.000	R	17	90.0	478.962	480.368	480.872	480.874	0
1	22102402	149	High	1.5	Vague	2	15	18	32	42.7	89.9	7.5	18	32	15	89.9	7.5	42.7	2	0.690	0.001	L	18	89.9	481.377	484.102	484.792	484.794	0
1	22102402	150	High	1.5	Precise	1	15	17	12	42.7	90.0	11.7	12	17	15	11.7	90.0	42.7	2	0.643	0.001	D	17	90.0	485.297	486.477	487.120	487.123	0
1	22102402	151	High	1.5	Vague	2	16	18	20	64.9	89.9	2.6	16	18	20	64.9	89.9	2.6	2	0.856	0.000	D	18	89.9	487.625	488.216	489.072	489.074	0
1	22102402	152	High	1.5	Vague	2	18	17	32	89.9	90.0	7.5	32	17	18	7.5	90.0	89.9	2	0.541	0.001	D	17	90.0	489.577	491.683	492.224	492.226	0
1	22102402	153	High	1.5	Precise	1	15	17	8	42.7	90.0	6.6	8	15	17	6.6	42.7	90.0	2	0.586	0.000	R	17	90.0	492.728	494.942	495.528	495.530	0
1	22102402	154	High	1.5	Precise	1	14	17	9	17.3	90.0	6.4	9	14	17	6.4	17.3	90.0	2	0.515	0.000	R	17	90.0	496.032	496.781	497.296	497.298	0
1	22102402	155	High	1.5	Vague	2	14	15	32	17.3	42.7	7.5	14	32	15	17.3	7.5	42.7	1	0.988	0.000	L	14	17.3	497.800	500.444	501.432	501.434	0
1	22102402	156	High	1.5	Vague	2	14	16	27	17.3	64.9	6.4	27	16	14	6.4	64.9	17.3	1	0.541	0.000	R	14	17.3	501.937	503.635	504.176	504.178	0
1	22102402	157	High	1.5	Precise	1	14	15	8	17.3	42.7	6.6	8	14	15	6.6	17.3	42.7	2	0.538	0.000	R	15	42.7	504.680	505.365	505.904	505.906	0
1	22102402	158	High	1.5	Vague	2	15	18	27	42.7	89.9	6.4	27	15	18	6.4	42.7	89.9	2	1.273	0.001	R	18	89.9	506.408	507.407	508.680	508.682	0
1	22102402	159	High	1.5	Vague	2	15	17	27	42.7	90.0	6.4	17	15	27	90.0	42.7	6.4	2	0.604	0.000	L	17	90.0	509.185	511.452	512.056	512.058	0
1	22102402	160	High	1.5	Vague	2	10	16	27	31.7	64.9	6.4	10	27	16	31.7	6.4	64.9	2	1.099	0.000	R	16	64.9	512.562	514.805	515.904	515.906	0
1	22102402	161	High	1.5	Precise	1	10	15	13	31.7	42.7	2.4	15	10	13	42.7	31.7	2.4	2	0.651	0.000	L	15	42.7	516.409	517.205	517.856	517.858	0
1	22102402	162	High	1.5	Precise	1	16	17	8	64.9	90.0	6.6	17	16	8	90.0	64.9	6.6	2	1.033	0.000	L	17	90.0	518.360	518.967	520.000	520.002	0
1	22102402	163	High	1.5	Vague	2	10	15	36	31.7	42.7	9.3	15	10	36	42.7	31.7	9.3	2	0.813	0.000	L	15	42.7	520.505	521.570	522.384	522.386	0
1	22102402	164	High	1.5	Vague	2	14	10	36	17.3	31.7	9.3	10	36	14	31.7	9.3	17.3	1	1.059	0.001	R	14	17.3	522.888	525.821	526.880	526.882	0
1	22102402	165	High	1.5	Vague	2	10	15	22	31.7	42.7	4.0	15	10	22	42.7	31.7	4.0	2	1.016	0.001	L	15	42.7	527.385	528.040	529.056	529.058	0
1	22102402	166	High	1.5	Precise	1	10	16	12	31.7	64.9	11.7	12	16	10	11.7	64.9	31.7	1	1.207	0.001	R	10	31.7	529.561	532.489	533.696	533.698	0
1	22102402	167	High	1.5	Precise	1	18	17	13	89.9	90.0	2.4	13	18	17	2.4	89.9	90.0	2	0.598	0.001	R	17	90.0	534.201	536.938	537.536	537.538	0
1	22102402	168	High	1.5	Vague	2	15	16	23	42.7	64.9	2.3	16	23	15	64.9	2.3	42.7	1	0.588	0.000	R	15	42.7	538.041	539.940	540.528	540.530	0
1	22102402	169	High	1.5	Precise	1	10	16	8	31.7	64.9	6.6	10	8	16	31.7	6.6	64.9	2	1.078	0.000	R	16	64.9	541.033	543.234	544.312	544.314	0
1	22102402	170	High	1.5	Precise	1	16	18	12	64.9	89.9	11.7	16	18	12	64.9	89.9	11.7	1	0.603	0.000	L	16	64.9	544.817	546.237	546.840	546.842	0
1	22102402	171	High	1.5	Precise	1	10	15	7	31.7	42.7	2.2	7	15	10	2.2	42.7	31.7	1	1.355	0.000	R	10	31.7	547.344	548.804	550.160	550.162	0
1	22102402	172	High	1.5	Vague	2	10	15	27	31.7	42.7	6.4	10	27	15	31.7	6.4	42.7	2	0.598	0.000	R	15	42.7	550.665	551.378	551.976	551.978	0
1	22102402	173	High	1.5	Vague	2	14	18	20	17.3	89.9	2.6	14	18	20	17.3	89.9	2.6	1	0.804	0.000	L	14	17.3	552.481	553.236	554.040	554.042	0
1	22102402	174	High	1.5	Vague	2	14	16	23	17.3	64.9	2.3	14	23	16	17.3	2.3	64.9	1	1.035	0.000	L	14	17.3	554.545	556.397	557.432	557.434	0
1	22102402	175	High	1.5	Precise	1	18	17	6	89.9	90.0	4.4	18	17	6	89.9	90.0	4.4	2	0.602	0.000	D	17	90.0	557.937	560.726	561.328	561.330	0
1	22102402	176	High	1.5	Precise	1	16	18	6	64.9	89.9	4.4	6	16	18	4.4	64.9	89.9	2	0.736	0.000	R	18	89.9	561.833	562.543	563.280	563.282	0
1	22102402	177	High	1.5	Precise	1	14	10	8	17.3	31.7	6.6	10	14	8	31.7	17.3	6.6	1	0.950	0.001	D	14	17.3	563.785	566.506	567.456	567.458	0
1	22102402	178	High	1.5	Vague	2	10	17	23	31.7	90.0	2.3	17	23	10	90.0	2.3	31.7	2	0.568	0.000	L	17	90.0	567.962	570.032	570.600	570.602	0
1	22102402	179	High	1.5	Precise	1	14	10	6	17.3	31.7	4.4	6	10	14	4.4	31.7	17.3	1	0.730	0.000	R	14	17.3	571.105	571.998	572.728	572.730	0
1	22102402	180	High	1.5	Precise	1	14	15	7	17.3	42.7	2.2	15	14	7	42.7	17.3	2.2	2	1.058	0.000	L	15	42.7	573.233	573.902	574.960	574.962	0
1	22102402	181	Low	10.0	Precise	1	15	16	3	42.7	64.9	2.4	16	15	3	64.9	42.7	2.4	1	1.964	0.000	D	15	42.7	595.367	598.100	600.064	600.066	0
1	22102402	182	Low	10.0	Vague	2	14	16	31	17.3	64.9	7.2	31	14	16	7.2	17.3	64.9	1	1.819	0.000	D	14	17.3	600.569	602.925	604.744	604.747	0
1	22102402	183	Low	10.0	Precise	1	14	16	4	17.3	64.9	4.6	4	14	16	4.6	17.3	64.9	2	1.654	0.001	R	16	64.9	605.249	607.898	609.552	609.555	0
1	22102402	184	Low	10.0	Precise	1	15	18	4	42.7	89.9	4.6	18	15	4	89.9	42.7	4.6	2	1.166	0.001	L	18	89.9	610.057	610.595	611.760	611.762	0
1	22102402	185	Low	10.0	Vague	2	10	15	33	31.7	42.7	8.9	10	33	15	31.7	8.9	42.7	2	1.260	0.000	R	15	42.7	612.266	615.212	616.472	616.474	0
1	22102402	186	Low	10.0	Precise	1	10	15	5	31.7	42.7	8.9	5	10	15	8.9	31.7	42.7	2	1.394	0.000	R	15	42.7	616.978	619.830	621.224	621.227	0
1	22102402	187	Low	10.0	Precise	1	15	17	5	42.7	90.0	8.9	5	15	17	8.9	42.7	90.0	2	0.706	0.000	R	17	90.0	621.730	622.302	623.008	623.010	0
1	22102402	188	Low	10.0	Vague	2	14	10	21	17.3	31.7	2.5	21	14	10	2.5	17.3	31.7	1	1.585	0.001	D	14	17.3	623.513	624.031	625.616	625.619	0
1	22102402	189	Low	10.0	Vague	2	15	18	24	42.7	89.9	1.3	15	24	18	42.7	1.3	89.9	2	0.664	0.001	R	18	89.9	626.121	628.480	629.144	629.146	0
1	22102402	190	Low	10.0	Vague	2	15	16	33	42.7	64.9	8.9	15	33	16	42.7	8.9	64.9	1	1.240	0.001	L	15	42.7	629.650	632.160	633.400	633.403	0
1	22102402	191	Low	10.0	Vague	2	14	16	24	17.3	64.9	1.3	14	24	16	17.3	1.3	64.9	1	0.847	0.001	L	14	17.3	633.907	636.161	637.008	637.011	0
1	22102402	192	Low	10.0	Precise	1	14	18	1	17.3	89.9	1.9	18	1	14	89.9	1.9	17.3	2	0.830	0.001	L	18	89.9	637.514	639.842	640.672	640.674	0
1	22102402	193	Low	10.0	Precise	1	14	10	11	17.3	31.7	6.4	10	11	14	31.7	6.4	17.3	1	0.636	0.000	R	14	17.3	641.177	643.044	643.680	643.682	0
1	22102402	194	Low	10.0	Precise	1	16	18	2	64.9	89.9	2.3	16	2	18	64.9	2.3	89.9	2	0.766	0.000	R	18	89.9	644.185	644.714	645.480	645.482	0
1	22102402	195	Low	10.0	Vague	2	15	18	19	42.7	89.9	3.0	15	18	19	42.7	89.9	3.0	1	0.739	0.000	L	15	42.7	645.986	646.909	647.648	647.651	0
1	22102402	196	Low	10.0	Precise	1	10	18	3	31.7	89.9	2.4	18	3	10	89.9	2.4	31.7	2	0.667	0.000	L	18	89.9	648.154	649.341	650.008	650.010	0
1	22102402	197	Low	10.0	Vague	2	10	16	21	31.7	64.9	2.5	10	21	16	31.7	2.5	64.9	2	1.147	0.000	R	16	64.9	650.513	652.893	654.040	654.042	0
1	22102402	198	Low	10.0	Vague	2	14	18	24	17.3	89.9	1.3	14	18	24	17.3	89.9	1.3	2	1.474	0.001	D	18	89.9	654.545	656.614	658.088	658.091	0
1	22102402	199	Low	10.0	Vague	2	14	16	19	17.3	64.9	3.0	14	19	16	17.3	3.0	64.9	2	1.474	0.001	R	16	64.9	658.594	661.510	662.984	662.986	0
1	22102402	200	Low	10.0	Precise	1	10	17	11	31.7	90.0	6.4	11	10	17	6.4	31.7	90.0	2	0.752	0.001	R	17	90.0	663.490	665.480	666.232	666.235	0
1	22102402	201	Low	10.0	Vague	2	15	17	25	42.7	90.0	5.0	15	25	17	42.7	5.0	90.0	2	0.543	0.000	R	17	90.0	666.739	668.744	669.288	669.290	0
1	22102402	202	Low	10.0	Vague	2	14	15	33	17.3	42.7	8.9	14	15	33	17.3	42.7	8.9	2	2.546	0.001	D	15	42.7	669.794	672.182	674.728	674.731	0
1	22102402	203	Low	10.0	Precise	1	15	17	3	42.7	90.0	2.4	17	15	3	90.0	42.7	2.4	2	0.919	0.000	L	17	90.0	675.234	676.905	677.824	677.826	0
1	22102402	204	Low	10.0	Precise	1	10	16	2	31.7	64.9	2.3	2	16	10	2.3	64.9	31.7	2	1.143	0.000	D	16	64.9	678.330	679.721	680.864	680.866	0
1	22102402	205	Low	10.0	Precise	1	15	17	11	42.7	90.0	6.4	17	11	15	90.0	6.4	42.7	2	0.814	0.001	L	17	90.0	681.369	684.130	684.944	684.946	0
1	22102402	206	Low	10.0	Precise	1	10	17	3	31.7	90.0	2.4	17	10	3	90.0	31.7	2.4	2	0.654	0.000	L	17	90.0	685.449	688.346	689.000	689.002	0
1	22102402	207	Low	10.0	Vague	2	15	16	31	42.7	64.9	7.2	15	16	31	42.7	64.9	7.2	2	2.367	0.001	D	16	64.9	689.506	690.497	692.864	692.866	0
1	22102402	208	Low	10.0	Vague	2	10	18	31	31.7	89.9	7.2	10	31	18	31.7	7.2	89.9	2	1.579	0.001	R	18	89.9	693.369	695.949	697.528	697.531	0
1	22102402	209	Low	10.0	Precise	1	14	10	3	17.3	31.7	2.4	3	14	10	2.4	17.3	31.7	1	1.294	0.000	D	14	17.3	698.033	699.898	701.192	701.194	0
1	22102402	210	Low	10.0	Precise	1	14	18	4	17.3	89.9	4.6	14	18	4	17.3	89.9	4.6	2	0.987	0.000	D	18	89.9	701.697	704.325	705.312	705.314	0
1	22102402	211	Low	10.0	Vague	2	10	17	25	31.7	90.0	5.0	25	10	17	5.0	31.7	90.0	2	1.556	0.000	R	17	90.0	705.818	707.628	709.184	709.187	0
1	22102402	212	Low	10.0	Vague	2	16	18	21	64.9	89.9	2.5	16	18	21	64.9	89.9	2.5	2	0.908	0.001	D	18	89.9	709.689	712.172	713.080	713.083	0
1	22102402	213	Low	10.0	Precise	1	14	18	11	17.3	89.9	6.4	18	11	14	89.9	6.4	17.3	2	0.946	0.001	L	18	89.9	713.586	714.087	715.032	715.035	0
1	22102402	214	Low	10.0	Precise	1	14	17	3	17.3	90.0	2.4	17	14	3	90.0	17.3	2.4	2	0.755	0.001	L	17	90.0	715.538	717.445	718.200	718.203	0
1	22102402	215	Low	10.0	Vague	2	15	18	25	42.7	89.9	5.0	18	25	15	89.9	5.0	42.7	2	0.823	0.000	L	18	89.9	718.706	720.056	720.880	720.882	0
1	22102402	216	Low	10.0	Precise	1	15	18	11	42.7	89.9	6.4	11	15	18	6.4	42.7	89.9	2	0.815	0.000	R	18	89.9	721.385	723.225	724.040	724.042	0
1	22102402	217	Low	10.0	Precise	1	15	16	2	42.7	64.9	2.3	15	16	2	42.7	64.9	2.3	1	0.757	0.000	L	15	42.7	724.545	725.955	726.712	726.715	0
1	22102402	218	Low	10.0	Precise	1	18	17	2	89.9	90.0	2.3	17	2	18	90.0	2.3	89.9	2	0.540	0.000	L	17	90.0	727.217	728.173	728.712	728.715	0
1	22102402	219	Low	10.0	Precise	1	10	16	11	31.7	64.9	6.4	10	16	11	31.7	64.9	6.4	2	1.635	0.001	D	16	64.9	729.218	730.069	731.704	731.706	0
1	22102402	220	Low	10.0	Vague	2	16	17	33	64.9	90.0	8.9	16	33	17	64.9	8.9	90.0	2	0.571	0.000	R	17	90.0	732.209	734.924	735.496	735.498	0
1	22102402	221	Low	10.0	Precise	1	16	17	3	64.9	90.0	2.4	17	16	3	90.0	64.9	2.4	2	0.545	0.001	L	17	90.0	736.002	738.911	739.456	739.459	0
1	22102402	222	Low	10.0	Precise	1	14	16	1	17.3	64.9	1.9	14	16	1	17.3	64.9	1.9	1	1.422	0.001	L	14	17.3	739.961	741.098	742.520	742.522	0
1	22102402	223	Low	10.0	Vague	2	16	17	19	64.9	90.0	3.0	16	17	19	64.9	90.0	3.0	2	0.755	0.000	D	17	90.0	743.025	744.806	745.560	745.563	0
1	22102402	224	Low	10.0	Precise	1	16	17	4	64.9	90.0	4.6	17	4	16	90.0	4.6	64.9	2	0.547	0.000	L	17	90.0	746.066	747.261	747.808	747.810	0
1	22102402	225	Low	10.0	Precise	1	18	17	1	89.9	90.0	1.9	17	18	1	90.0	89.9	1.9	2	0.499	0.001	L	17	90.0	748.313	749.717	750.216	750.218	0
1	22102402	226	Low	10.0	Precise	1	14	17	11	17.3	90.0	6.4	14	17	11	17.3	90.0	6.4	2	0.549	0.000	D	17	90.0	750.721	753.459	754.008	754.011	0
1	22102402	227	Low	10.0	Precise	1	10	18	4	31.7	89.9	4.6	10	18	4	31.7	89.9	4.6	2	0.924	0.001	D	18	89.9	754.514	756.357	757.280	757.283	0
1	22102402	228	Low	10.0	Vague	2	18	17	21	89.9	90.0	2.5	21	17	18	2.5	90.0	89.9	2	0.884	0.001	D	17	90.0	757.786	759.773	760.656	760.658	0
1	22102402	229	Low	10.0	Vague	2	14	18	25	17.3	89.9	5.0	14	25	18	17.3	5.0	89.9	2	1.038	0.000	R	18	89.9	761.161	763.210	764.248	764.250	0
1	22102402	230	Low	10.0	Precise	1	14	17	4	17.3	90.0	4.6	17	4	14	90.0	4.6	17.3	2	0.853	0.000	L	17	90.0	764.753	767.012	767.864	767.867	0
1	22102402	231	Low	10.0	Precise	1	10	17	5	31.7	90.0	8.9	5	17	10	8.9	90.0	31.7	2	0.907	0.001	D	17	90.0	768.370	770.350	771.256	771.259	0
1	22102402	232	Low	10.0	Vague	2	14	16	33	17.3	64.9	8.9	16	33	14	64.9	8.9	17.3	2	1.584	0.000	L	16	64.9	771.761	772.336	773.920	773.922	0
1	22102402	233	Low	10.0	Vague	2	10	16	24	31.7	64.9	1.3	24	16	10	1.3	64.9	31.7	2	1.677	0.000	D	16	64.9	774.426	777.339	779.016	779.018	0
1	22102402	234	Low	10.0	Precise	1	16	18	11	64.9	89.9	6.4	16	18	11	64.9	89.9	6.4	1	0.544	0.000	L	16	64.9	779.522	780.496	781.040	781.043	0
1	22102402	235	Low	10.0	Vague	2	10	17	24	31.7	90.0	1.3	24	17	10	1.3	90.0	31.7	2	0.653	0.000	D	17	90.0	781.546	783.315	783.968	783.970	0
1	22102402	236	Low	10.0	Vague	2	15	18	21	42.7	89.9	2.5	21	18	15	2.5	89.9	42.7	2	0.911	0.001	D	18	89.9	784.474	787.370	788.280	788.283	0
1	22102402	237	Low	10.0	Vague	2	15	17	21	42.7	90.0	2.5	17	21	15	90.0	2.5	42.7	2	0.688	0.000	L	17	90.0	788.786	791.432	792.120	792.122	0
1	22102402	238	Low	10.0	Vague	2	15	17	31	42.7	90.0	7.2	15	31	17	42.7	7.2	90.0	2	0.661	0.000	R	17	90.0	792.626	794.539	795.200	795.203	0
1	22102402	239	Low	10.0	Precise	1	10	16	5	31.7	64.9	8.9	10	5	16	31.7	8.9	64.9	2	1.752	0.000	R	16	64.9	795.705	798.096	799.848	799.851	0
1	22102402	240	Low	10.0	Precise	1	15	16	11	42.7	64.9	6.4	11	15	16	6.4	42.7	64.9	1	1.371	0.000	D	15	42.7	800.354	802.165	803.536	803.538	0
1	22102402	241	Low	10.0	Precise	1	15	18	3	42.7	89.9	2.4	3	15	18	2.4	42.7	89.9	2	1.185	0.000	R	18	89.9	819.674	821.983	823.168	823.170	0
1	22102402	242	Low	10.0	Vague	2	14	17	33	17.3	90.0	8.9	14	17	33	17.3	90.0	8.9	2	0.769	0.000	D	17	90.0	823.674	825.375	826.144	826.147	0
1	22102402	243	Low	10.0	Precise	1	10	15	4	31.7	42.7	4.6	4	15	10	4.6	42.7	31.7	2	0.722	0.001	D	15	42.7	826.650	828.150	828.872	828.875	0
1	22102402	244	Low	10.0	Precise	1	18	17	4	89.9	90.0	4.6	17	4	18	90.0	4.6	89.9	2	0.609	0.001	L	17	90.0	829.378	832.296	832.904	832.907	0
1	22102402	245	Low	10.0	Vague	2	18	17	25	89.9	90.0	5.0	25	17	18	5.0	90.0	89.9	2	0.578	0.001	D	17	90.0	833.410	835.886	836.464	836.467	0
1	22102402	246	Low	10.0	Vague	2	16	17	21	64.9	90.0	2.5	16	17	21	64.9	90.0	2.5	2	0.539	0.001	D	17	90.0	836.969	839.126	839.664	839.667	0
1	22102402	247	Low	10.0	Vague	2	14	15	21	17.3	42.7	2.5	15	14	21	42.7	17.3	2.5	2	1.415	0.001	L	15	42.7	840.169	842.009	843.424	843.427	0
1	22102402	248	Low	10.0	Vague	2	15	17	33	42.7	90.0	8.9	15	33	17	42.7	8.9	90.0	2	0.616	0.001	R	17	90.0	843.930	844.616	845.232	845.235	0
1	22102402	249	Low	10.0	Vague	2	15	18	33	42.7	89.9	8.9	18	15	33	89.9	42.7	8.9	2	0.933	0.000	L	18	89.9	845.738	847.491	848.424	848.426	0
1	22102402	250	Low	10.0	Precise	1	10	18	2	31.7	89.9	2.3	10	18	2	31.7	89.9	2.3	2	0.758	0.000	D	18	89.9	848.929	850.258	851.016	851.019	0
1	22102402	251	Low	10.0	Vague	2	10	15	31	31.7	42.7	7.2	10	15	31	31.7	42.7	7.2	2	1.394	0.001	D	15	42.7	851.521	852.406	853.800	853.803	0
1	22102402	252	Low	10.0	Vague	2	14	17	24	17.3	90.0	1.3	17	24	14	90.0	1.3	17.3	2	0.541	0.000	L	17	90.0	854.306	855.395	855.936	855.938	0
1	22102402	253	Low	10.0	Precise	1	10	16	3	31.7	64.9	2.4	16	3	10	64.9	2.4	31.7	2	2.047	0.000	L	16	64.9	856.442	857.529	859.576	859.579	0
1	22102402	254	Low	10.0	Precise	1	14	15	11	17.3	42.7	6.4	11	15	14	6.4	42.7	17.3	1	1.271	0.000	R	14	17.3	860.083	862.561	863.832	863.835	0
1	22102402	255	Low	10.0	Precise	1	15	17	2	42.7	90.0	2.3	17	15	2	90.0	42.7	2.3	2	0.600	0.001	L	17	90.0	864.338	866.921	867.520	867.523	0
1	22102402	256	Low	10.0	Precise	1	14	15	1	17.3	42.7	1.9	1	15	14	1.9	42.7	17.3	2	2.119	0.001	D	15	42.7	868.026	868.778	870.896	870.899	0
1	22102402	257	Low	10.0	Vague	2	15	17	19	42.7	90.0	3.0	15	17	19	42.7	90.0	3.0	2	0.772	0.000	D	17	90.0	871.401	873.221	873.992	873.994	0
1	22102402	258	Low	10.0	Vague	2	16	17	31	64.9	90.0	7.2	16	17	31	64.9	90.0	7.2	2	0.560	0.000	D	17	90.0	874.498	875.152	875.712	875.715	0
1	22102402	259	Low	10.0	Vague	2	10	16	25	31.7	64.9	5.0	10	25	16	31.7	5.0	64.9	2	1.004	0.001	R	16	64.9	876.218	878.068	879.072	879.075	0
1	22102402	260	Low	10.0	Vague	2	10	15	21	31.7	42.7	2.5	21	15	10	2.5	42.7	31.7	2	1.214	0.001	D	15	42.7	879.577	880.634	881.849	881.851	0
1	22102402	261	Low	10.0	Precise	1	18	17	3	89.9	90.0	2.4	17	3	18	90.0	2.4	89.9	2	0.734	0.000	L	17	90.0	882.354	884.338	885.072	885.075	0
1	22102402	262	Low	10.0	Vague	2	14	10	31	17.3	31.7	7.2	10	31	14	31.7	7.2	17.3	1	0.927	0.001	R	14	17.3	885.578	886.730	887.656	887.659	0
1	22102402	263	Low	10.0	Vague	2	10	18	25	31.7	89.9	5.0	18	10	25	89.9	31.7	5.0	2	1.055	0.000	L	18	89.9	888.162	889.793	890.848	890.850	0
1	22102402	264	Low	10.0	Precise	1	10	17	1	31.7	90.0	1.9	10	1	17	31.7	1.9	90.0	2	1.293	0.000	R	17	90.0	891.354	892.203	893.496	893.499	0
1	22102402	265	Low	10.0	Vague	2	14	17	31	17.3	90.0	7.2	17	14	31	90.0	17.3	7.2	2	0.529	0.001	L	17	90.0	894.002	895.632	896.160	896.163	0
1	22102402	266	Low	10.0	Vague	2	10	17	31	31.7	90.0	7.2	10	17	31	31.7	90.0	7.2	2	0.562	0.001	D	17	90.0	896.665	897.710	898.273	898.275	0
1	22102402	267	Low	10.0	Precise	1	15	17	1	42.7	90.0	1.9	15	1	17	42.7	1.9	90.0	2	0.528	0.000	R	17	90.0	898.777	900.905	901.432	901.435	0
1	22102402	268	Low	10.0	Precise	1	14	16	11	17.3	64.9	6.4	11	14	16	6.4	17.3	64.9	1	1.605	0.000	D	14	17.3	901.937	902.723	904.328	904.331	0
1	22102402	269	Low	10.0	Precise	1	14	18	2	17.3	89.9	2.3	2	18	14	2.3	89.9	17.3	1	0.799	0.001	R	14	17.3	904.834	906.354	907.152	907.155	0
1	22102402	270	Low	10.0	Precise	1	14	10	4	17.3	31.7	4.6	4	14	10	4.6	17.3	31.7	1	1.030	0.000	D	14	17.3	907.657	909.914	910.945	910.947	0
1	22102402	271	Low	10.0	Precise	1	14	16	2	17.3	64.9	2.3	16	2	14	64.9	2.3	17.3	1	0.627	0.000	R	14	17.3	911.450	912.237	912.864	912.867	0
1	22102402	272	Low	10.0	Precise	1	10	15	11	31.7	42.7	6.4	15	10	11	42.7	31.7	6.4	2	1.443	0.001	L	15	42.7	913.370	915.670	917.112	917.115	0
1	22102402	273	Low	10.0	Vague	2	15	16	19	42.7	64.9	3.0	15	19	16	42.7	3.0	64.9	1	1.663	0.000	L	15	42.7	917.618	919.409	921.072	921.075	0
1	22102402	274	Low	10.0	Vague	2	15	16	25	42.7	64.9	5.0	16	25	15	64.9	5.0	42.7	1	1.429	0.000	R	15	42.7	921.577	923.323	924.752	924.755	0
1	22102402	275	Low	10.0	Vague	2	10	17	21	31.7	90.0	2.5	10	21	17	31.7	2.5	90.0	2	0.557	0.001	R	17	90.0	925.258	926.844	927.400	927.403	0
1	22102402	276	Low	10.0	Vague	2	18	17	31	89.9	90.0	7.2	18	17	31	89.9	90.0	7.2	2	0.611	0.001	D	17	90.0	927.906	929.725	930.336	930.339	0
1	22102402	277	Low	10.0	Vague	2	15	16	21	42.7	64.9	2.5	16	21	15	64.9	2.5	42.7	2	5.172	0.001	L	16	64.9	930.841	931.509	936.680	936.683	0
1	22102402	278	Low	10.0	Precise	1	14	15	2	17.3	42.7	2.3	14	15	2	17.3	42.7	2.3	2	1.089	0.000	D	15	42.7	937.187	939.559	940.648	940.651	0
1	22102402	279	Low	10.0	Vague	2	18	17	24	89.9	90.0	1.3	18	24	17	89.9	1.3	90.0	2	0.637	0.001	R	17	90.0	941.154	943.020	943.657	943.660	0
1	22102402	280	Low	10.0	Vague	2	10	15	25	31.7	42.7	5.0	15	10	25	42.7	31.7	5.0	2	0.988	0.000	L	15	42.7	944.162	946.740	947.728	947.731	0
1	22102402	281	Low	10.0	Precise	1	15	16	5	42.7	64.9	8.9	15	5	16	42.7	8.9	64.9	1	1.252	0.001	L	15	42.7	948.233	950.996	952.249	952.251	0
1	22102402	282	Low	10.0	Precise	1	14	15	3	17.3	42.7	2.4	14	3	15	17.3	2.4	42.7	2	0.910	0.001	R	15	42.7	952.754	953.619	954.529	954.531	0
1	22102402	283	Low	10.0	Precise	1	14	18	5	17.3	89.9	8.9	18	14	5	89.9	17.3	8.9	2	0.989	0.000	L	18	89.9	955.034	955.563	956.552	956.555	0
1	22102402	284	Low	10.0	Precise	1	16	18	5	64.9	89.9	8.9	18	16	5	89.9	64.9	8.9	2	0.578	0.000	L	18	89.9	957.058	959.095	959.673	959.675	0
1	22102402	285	Low	10.0	Vague	2	15	17	24	42.7	90.0	1.3	24	17	15	1.3	90.0	42.7	2	0.747	0.001	D	17	90.0	960.178	962.333	963.081	963.083	0
1	22102402	286	Low	10.0	Vague	2	14	15	31	17.3	42.7	7.2	14	15	31	17.3	42.7	7.2	2	2.298	0.000	D	15	42.7	963.585	966.287	968.585	968.587	0
1	22102402	287	Low	10.0	Precise	1	16	17	11	64.9	90.0	6.4	16	11	17	64.9	6.4	90.0	2	0.655	0.000	R	17	90.0	969.090	970.161	970.816	970.819	0
1	22102402	288	Low	10.0	Vague	2	10	18	33	31.7	89.9	8.9	18	33	10	89.9	8.9	31.7	2	1.283	0.000	L	18	89.9	971.322	971.885	973.168	973.171	0
1	22102402	289	Low	10.0	Vague	2	14	15	24	17.3	42.7	1.3	24	15	14	1.3	42.7	17.3	1	0.923	0.000	R	14	17.3	973.674	976.253	977.176	977.179	0
1	22102402	290	Low	10.0	Precise	1	14	10	2	17.3	31.7	2.3	2	10	14	2.3	31.7	17.3	1	0.654	0.000	R	14	17.3	977.681	978.906	979.560	979.563	0
1	22102402	291	Low	10.0	Precise	1	14	16	3	17.3	64.9	2.4	16	14	3	64.9	17.3	2.4	2	1.993	0.000	L	16	64.9	980.066	981.375	983.368	983.371	0
1	22102402	292	Low	10.0	Vague	2	16	18	31	64.9	89.9	7.2	18	31	16	89.9	7.2	64.9	2	2.148	0.001	L	18	89.9	983.873	985.588	987.736	987.739	0
1	22102402	293	Low	10.0	Precise	1	10	15	2	31.7	42.7	2.3	2	15	10	2.3	42.7	31.7	2	2.954	0.001	D	15	42.7	988.242	989.766	992.720	992.723	0
1	22102402	294	Low	10.0	Vague	2	10	18	21	31.7	89.9	2.5	21	10	18	2.5	31.7	89.9	2	0.901	0.001	R	18	89.9	993.226	994.540	995.441	995.443	0
1	22102402	295	Low	10.0	Vague	2	14	17	19	17.3	90.0	3.0	14	17	19	17.3	90.0	3.0	2	0.604	0.000	D	17	90.0	995.945	998.293	998.897	998.899	0
1	22102402	296	Low	10.0	Vague	2	10	18	24	31.7	89.9	1.3	24	10	18	1.3	31.7	89.9	2	0.617	0.001	R	18	89.9	999.402	1000.728	1001.345	1001.347	0
1	22102402	297	Low	10.0	Precise	1	15	16	4	42.7	64.9	4.6	15	16	4	42.7	64.9	4.6	2	1.075	0.001	D	16	64.9	1001.849	1003.766	1004.841	1004.843	0
1	22102402	298	Low	10.0	Vague	2	10	17	33	31.7	90.0	8.9	17	33	10	90.0	8.9	31.7	2	0.713	0.000	L	17	90.0	1005.346	1008.296	1009.009	1009.011	0
1	22102402	299	Low	10.0	Vague	2	14	10	19	17.3	31.7	3.0	19	14	10	3.0	17.3	31.7	1	0.911	0.000	D	14	17.3	1009.514	1011.569	1012.480	1012.483	0
1	22102402	300	Low	10.0	Precise	1	14	17	1	17.3	90.0	1.9	1	14	17	1.9	17.3	90.0	2	0.604	0.000	R	17	90.0	1012.985	1014.284	1014.889	1014.891	0
1	22102402	301	Low	10.0	Vague	2	10	16	33	31.7	64.9	8.9	10	16	33	31.7	64.9	8.9	2	2.563	0.000	D	16	64.9	1026.009	1026.509	1029.073	1029.075	0
1	22102402	302	Low	10.0	Precise	1	10	16	1	31.7	64.9	1.9	1	10	16	1.9	31.7	64.9	2	0.613	0.001	R	16	64.9	1029.578	1030.347	1030.961	1030.963	0
1	22102402	303	Low	10.0	Vague	2	14	10	33	17.3	31.7	8.9	10	14	33	31.7	17.3	8.9	1	1.030	0.001	D	14	17.3	1031.465	1034.443	1035.473	1035.475	0
1	22102402	304	Low	10.0	Precise	1	16	18	3	64.9	89.9	2.4	3	16	18	2.4	64.9	89.9	2	0.969	0.000	R	18	89.9	1035.977	1037.583	1038.553	1038.555	0
1	22102402	305	Low	10.0	Precise	1	14	10	1	17.3	31.7	1.9	10	14	1	31.7	17.3	1.9	1	1.231	0.000	D	14	17.3	1039.058	1040.705	1041.937	1041.939	0
1	22102402	306	Low	10.0	Precise	1	10	15	1	31.7	42.7	1.9	15	1	10	42.7	1.9	31.7	2	1.593	0.000	L	15	42.7	1042.442	1044.424	1046.017	1046.019	0
1	22102402	307	Low	10.0	Precise	1	10	15	3	31.7	42.7	2.4	15	3	10	42.7	2.4	31.7	2	0.605	0.000	L	15	42.7	1046.522	1047.180	1047.784	1047.787	0
1	22102402	308	Low	10.0	Vague	2	10	16	19	31.7	64.9	3.0	16	10	19	64.9	31.7	3.0	2	0.778	0.000	L	16	64.9	1048.289	1050.854	1051.632	1051.635	0
1	22102402	309	Low	10.0	Vague	2	16	17	24	64.9	90.0	1.3	17	24	16	90.0	1.3	64.9	2	0.516	0.000	L	17	90.0	1052.137	1053.524	1054.040	1054.043	0
1	22102402	310	Low	10.0	Vague	2	14	16	25	17.3	64.9	5.0	14	16	25	17.3	64.9	5.0	1	0.775	0.001	L	14	17.3	1054.545	1056.482	1057.257	1057.259	0
1	22102402	311	Low	10.0	Vague	2	14	17	25	17.3	90.0	5.0	14	17	25	17.3	90.0	5.0	2	0.614	0.000	D	17	90.0	1057.762	1060.643	1061.256	1061.259	0
1	22102402	312	Low	10.0	Precise	1	14	15	4	17.3	42.7	4.6	14	15	4	17.3	42.7	4.6	2	1.617	0.001	D	15	42.7	1061.762	1064.487	1066.105	1066.107	0
1	22102402	313	Low	10.0	Vague	2	14	17	21	17.3	90.0	2.5	21	17	14	2.5	90.0	17.3	2	0.515	0.000	D	17	90.0	1066.609	1067.541	1068.057	1068.059	0
1	22102402	314	Low	10.0	Vague	2	14	18	19	17.3	89.9	3.0	19	18	14	3.0	89.9	17.3	2	0.853	0.000	D	18	89.9	1068.562	1070.411	1071.265	1071.267	0
1	22102402	315	Low	10.0	Precise	1	14	16	5	17.3	64.9	8.9	16	14	5	64.9	17.3	8.9	1	1.318	0.001	D	14	17.3	1071.769	1074.059	1075.377	1075.379	0
1	22102402	316	Low	10.0	Vague	2	10	15	24	31.7	42.7	1.3	15	10	24	42.7	31.7	1.3	2	1.132	0.001	L	15	42.7	1075.882	1077.677	1078.809	1078.811	0
1	22102402	317	Low	10.0	Vague	2	14	15	25	17.3	42.7	5.0	25	14	15	5.0	17.3	42.7	1	1.113	0.000	D	14	17.3	1079.314	1081.336	1082.448	1082.451	0
1	22102402	318	Low	10.0	Vague	2	14	18	33	17.3	89.9	8.9	14	33	18	17.3	8.9	89.9	2	1.064	0.001	R	18	89.9	1082.954	1084.464	1085.529	1085.531	0
1	22102402	319	Low	10.0	Vague	2	10	15	19	31.7	42.7	3.0	10	19	15	31.7	3.0	42.7	2	1.130	0.000	R	15	42.7	1086.034	1088.071	1089.200	1089.203	0
1	22102402	320	Low	10.0	Precise	1	15	18	2	42.7	89.9	2.3	18	2	15	89.9	2.3	42.7	2	0.671	0.001	L	18	89.9	1089.706	1091.321	1091.993	1091.995	0
1	22102402	321	Low	10.0	Precise	1	14	18	3	17.3	89.9	2.4	18	3	14	89.9	2.4	17.3	2	0.523	0.000	L	18	89.9	1092.499	1093.189	1093.712	1093.715	0
1	22102402	322	Low	10.0	Precise	1	14	17	5	17.3	90.0	8.9	17	5	14	90.0	8.9	17.3	2	0.638	0.000	L	17	90.0	1094.218	1096.602	1097.240	1097.243	0
1	22102402	323	Low	10.0	Vague	2	15	18	31	42.7	89.9	7.2	18	31	15	89.9	7.2	42.7	2	0.770	0.000	L	18	89.9	1097.746	1099.030	1099.801	1099.803	0
1	22102402	324	Low	10.0	Precise	1	16	17	2	64.9	90.0	2.3	16	17	2	64.9	90.0	2.3	2	0.604	0.000	D	17	90.0	1100.306	1101.244	1101.849	1101.851	0
1	22102402	325	Low	10.0	Vague	2	14	10	25	17.3	31.7	5.0	10	25	14	31.7	5.0	17.3	1	0.912	0.001	R	14	17.3	1102.354	1103.993	1104.905	1104.907	0
1	22102402	326	Low	10.0	Vague	2	10	17	19	31.7	90.0	3.0	17	10	19	90.0	31.7	3.0	2	0.563	0.000	L	17	90.0	1105.410	1106.661	1107.225	1107.227	0
1	22102402	327	Low	10.0	Precise	1	10	18	1	31.7	89.9	1.9	10	1	18	31.7	1.9	89.9	2	1.830	0.000	R	18	89.9	1107.729	1109.411	1111.241	1111.243	0
1	22102402	328	Low	10.0	Precise	1	15	16	1	42.7	64.9	1.9	15	16	1	42.7	64.9	1.9	2	2.024	0.000	D	16	64.9	1111.746	1113.497	1115.521	1115.523	0
1	22102402	329	Low	10.0	Precise	1	16	17	1	64.9	90.0	1.9	17	1	16	90.0	1.9	64.9	2	0.717	0.001	L	17	90.0	1116.026	1118.276	1118.993	1118.995	0
1	22102402	330	Low	10.0	Precise	1	15	18	1	42.7	89.9	1.9	15	18	1	42.7	89.9	1.9	2	1.353	0.001	D	18	89.9	1119.498	1121.104	1122.457	1122.459	0
1	22102402	331	Low	10.0	Vague	2	16	18	33	64.9	89.9	8.9	33	18	16	8.9	89.9	64.9	2	0.577	0.000	D	18	89.9	1122.961	1123.855	1124.433	1124.435	0
1	22102402	332	Low	10.0	Precise	1	16	18	4	64.9	89.9	4.6	16	18	4	64.9	89.9	4.6	2	0.498	0.001	D	18	89.9	1124.937	1126.695	1127.193	1127.195	0
1	22102402	333	Low	10.0	Vague	2	15	16	24	42.7	64.9	1.3	15	16	24	42.7	64.9	1.3	1	0.750	0.000	L	15	42.7	1127.698	1128.963	1129.713	1129.715	0
1	22102402	334	Low	10.0	Precise	1	14	17	2	17.3	90.0	2.3	2	14	17	2.3	17.3	90.0	2	0.875	0.001	R	17	90.0	1130.218	1132.582	1133.457	1133.460	0
1	22102402	335	Low	10.0	Vague	2	14	10	24	17.3	31.7	1.3	10	14	24	31.7	17.3	1.3	1	0.616	0.000	D	14	17.3	1133.962	1136.433	1137.048	1137.051	0
1	22102402	336	Low	10.0	Precise	1	10	17	2	31.7	90.0	2.3	10	17	2	31.7	90.0	2.3	2	0.661	0.000	D	17	90.0	1137.553	1139.388	1140.049	1140.051	0
1	22102402	337	Low	10.0	Vague	2	16	18	19	64.9	89.9	3.0	16	19	18	64.9	3.0	89.9	2	0.748	0.000	R	18	89.9	1140.554	1142.396	1143.145	1143.147	0
1	22102402	338	Low	10.0	Vague	2	18	17	19	89.9	90.0	3.0	17	18	19	90.0	89.9	3.0	2	0.630	0.000	L	17	90.0	1143.650	1146.042	1146.672	1146.675	0
1	22102402	339	Low	10.0	Precise	1	18	17	11	89.9	90.0	6.4	11	18	17	6.4	89.9	90.0	2	0.558	0.001	R	17	90.0	1147.178	1148.299	1148.857	1148.859	0
1	22102402	340	Low	10.0	Vague	2	14	18	21	17.3	89.9	2.5	14	18	21	17.3	89.9	2.5	1	0.739	0.000	L	14	17.3	1149.362	1151.381	1152.120	1152.123	0
1	22102402	341	Low	10.0	Vague	2	16	18	25	64.9	89.9	5.0	16	25	18	64.9	5.0	89.9	2	0.683	0.000	R	18	89.9	1152.625	1155.014	1155.697	1155.699	0
1	22102402	342	Low	10.0	Precise	1	10	16	4	31.7	64.9	4.6	16	4	10	64.9	4.6	31.7	2	1.200	0.000	L	16	64.9	1156.202	1159.129	1160.329	1160.331	0
1	22102402	343	Low	10.0	Precise	1	16	18	1	64.9	89.9	1.9	16	18	1	64.9	89.9	1.9	2	1.245	0.001	D	18	89.9	1160.834	1163.067	1164.313	1164.315	0
1	22102402	344	Low	10.0	Precise	1	14	10	5	17.3	31.7	8.9	14	10	5	17.3	31.7	8.9	1	1.649	0.000	L	14	17.3	1164.818	1167.008	1168.656	1168.659	0
1	22102402	345	Low	10.0	Precise	1	10	18	11	31.7	89.9	6.4	10	11	18	31.7	6.4	89.9	2	1.098	0.000	R	18	89.9	1169.162	1169.783	1170.881	1170.883	0
1	22102402	346	Low	10.0	Vague	2	14	15	19	17.3	42.7	3.0	14	19	15	17.3	3.0	42.7	2	2.218	0.000	R	15	42.7	1171.385	1172.206	1174.424	1174.427	0
1	22102402	347	Low	10.0	Vague	2	18	17	33	89.9	90.0	8.9	17	33	18	90.0	8.9	89.9	2	0.576	0.001	L	17	90.0	1174.929	1176.625	1177.201	1177.203	0
1	22102402	348	Low	10.0	Precise	1	15	17	4	42.7	90.0	4.6	15	17	4	42.7	90.0	4.6	2	1.062	0.000	D	17	90.0	1177.706	1180.515	1181.577	1181.579	0
1	22102402	349	Low	10.0	Precise	1	10	17	4	31.7	90.0	4.6	4	10	17	4.6	31.7	90.0	2	2.048	0.001	R	17	90.0	1182.082	1183.969	1186.017	1186.019	0
1	22102402	350	Low	10.0	Precise	1	18	17	5	89.9	90.0	8.9	5	18	17	8.9	89.9	90.0	2	0.479	0.000	R	17	90.0	1186.522	1188.122	1188.600	1188.603	0
1	22102402	351	Low	10.0	Vague	2	14	18	31	17.3	89.9	7.2	31	18	14	7.2	89.9	17.3	2	0.805	0.001	D	18	89.9	1189.106	1190.052	1190.857	1190.859	0
1	22102402	352	Low	10.0	Vague	2	14	16	21	17.3	64.9	2.5	16	14	21	64.9	17.3	2.5	2	0.858	0.001	L	16	64.9	1191.362	1192.255	1193.113	1193.115	0
1	22102402	353	Low	10.0	Vague	2	16	18	24	64.9	89.9	1.3	16	18	24	64.9	89.9	1.3	1	0.453	0.000	L	16	64.9	1193.618	1196.548	1197.000	1197.003	0
1	22102402	354	Low	10.0	Vague	2	10	16	31	31.7	64.9	7.2	16	31	10	64.9	7.2	31.7	2	0.655	0.000	L	16	64.9	1197.506	1198.594	1199.249	1199.251	0
1	22102402	355	Low	10.0	Vague	2	10	18	19	31.7	89.9	3.0	18	19	10	89.9	3.0	31.7	2	0.751	0.001	L	18	89.9	1199.754	1201.610	1202.361	1202.363	0
1	22102402	356	Low	10.0	Precise	1	14	15	5	17.3	42.7	8.9	15	5	14	42.7	8.9	17.3	2	1.207	0.001	L	15	42.7	1202.866	1205.625	1206.833	1206.835	0
1	22102402	357	Low	10.0	Precise	1	10	18	5	31.7	89.9	8.9	5	18	10	8.9	89.9	31.7	2	0.998	0.001	D	18	89.9	1207.338	1209.499	1210.497	1210.499	0
1	22102402	358	Low	10.0	Vague	2	16	17	25	64.9	90.0	5.0	25	17	16	5.0	90.0	64.9	2	0.759	0.000	D	17	90.0	1211.002	1213.034	1213.793	1213.795	0
1	22102402	359	Low	10.0	Precise	1	15	18	5	42.7	89.9	8.9	5	18	15	8.9	89.9	42.7	2	0.755	0.000	D	18	89.9	1214.297	1217.173	1217.929	1217.931	0
1	22102402	360	Low	10.0	Precise	1	16	17	5	64.9	90.0	8.9	5	17	16	8.9	90.0	64.9	2	1.002	0.000	D	17	90.0	1218.435	1219.703	1220.704	1220.707	0
