Group	subID	trial	TimePressure	TimeConstraint	Vagueness	Vaguenesscode	ID1	ID2	ID3	V1	V2	V3	ID_left	ID_middle	ID_right	Bid_left	Bid_middle	Bid_right	chosenItem	RT	RTvariance	chosenPosition	chosenID	chosenValue	fixation_time	option_time	choice_time	feedback_time	timeout
1	22102406	1	High	1.5	Vague	2	10	18	29	6.0	10.3	2.1	10	18	29	6.0	10.3	2.1	2	1.237	0.000	D	18	10.3	8.443	10.655	11.892	11.895	0
1	22102406	2	High	1.5	Precise	1	18	17	5	10.3	20.4	0.0	17	5	18	20.4	0.0	10.3	1	1.141	0.001	R	18	10.3	12.399	15.382	16.524	16.526	0
1	22102406	3	High	1.5	Precise	1	15	17	9	4.6	20.4	2.0	9	17	15	2.0	20.4	4.6	2	0.907	0.001	D	17	20.4	17.031	18.489	19.396	19.399	0
1	22102406	4	High	1.5	Vague	2	10	18	19	6.0	10.3	0.6	19	10	18	0.6	6.0	10.3	2	0.856	0.000	R	18	10.3	19.904	20.692	21.548	21.550	0
1	22102406	5	High	1.5	Precise	1	4	17	5	3.5	20.4	0.0	17	4	5	20.4	3.5	0.0	2	0.924	0.000	L	17	20.4	22.057	23.712	24.635	24.641	0
1	22102406	6	High	1.5	Vague	2	12	10	25	3.7	6.0	1.0	25	12	10	1.0	3.7	6.0	1	1.222	0.001	D	12	3.7	25.146	27.550	28.772	28.774	0
1	22102406	7	High	1.5	Vague	2	15	18	25	4.6	10.3	1.0	15	25	18	4.6	1.0	10.3	2	0.776	0.000	R	18	10.3	29.277	31.428	32.204	32.207	0
1	22102406	8	High	1.5	Vague	2	15	18	32	4.6	10.3	2.3	18	32	15	10.3	2.3	4.6	2	1.108	0.001	L	18	10.3	32.709	33.391	34.500	34.503	0
1	22102406	9	High	1.5	Precise	1	10	18	3	6.0	10.3	0.9	10	3	18	6.0	0.9	10.3	2	1.166	0.001	R	18	10.3	35.006	37.102	38.268	38.270	0
1	22102406	10	High	1.5	Vague	2	10	17	30	6.0	20.4	0.0	17	30	10	20.4	0.0	6.0	2	0.779	0.000	L	17	20.4	38.773	39.625	40.403	40.406	0
1	22102406	11	High	1.5	Precise	1	12	17	2	3.7	20.4	0.7	17	2	12	20.4	0.7	3.7	2	0.810	0.001	L	17	20.4	40.909	43.202	44.012	44.014	0
1	22102406	12	High	1.5	Precise	1	12	15	5	3.7	4.6	0.0	12	15	5	3.7	4.6	0.0	3	1.209	0.001	R	5	0.0	44.518	45.667	46.876	46.879	0
1	22102406	13	High	1.5	Vague	2	4	12	32	3.5	3.7	2.3	32	4	12	2.3	3.5	3.7	2	1.278	0.000	R	12	3.7	47.381	48.110	49.388	49.390	0
1	22102406	14	High	1.5	Precise	1	15	18	14	4.6	10.3	1.5	14	18	15	1.5	10.3	4.6	2	0.852	0.000	D	18	10.3	49.892	52.511	53.364	53.366	0
1	22102406	15	High	1.5	Precise	1	12	17	3	3.7	20.4	0.9	3	17	12	0.9	20.4	3.7	2	0.994	0.000	D	17	20.4	53.870	54.402	55.396	55.398	0
1	22102406	16	High	1.5	Precise	1	12	17	13	3.7	20.4	1.4	12	17	13	3.7	20.4	1.4	2	0.748	0.001	D	17	20.4	55.901	57.784	58.532	58.534	0
1	22102406	17	High	1.5	Precise	1	15	10	13	4.6	6.0	1.4	10	13	15	6.0	1.4	4.6	1	1.183	0.001	R	15	4.6	59.037	60.693	61.876	61.878	0
1	22102406	18	High	1.5	Vague	2	12	10	32	3.7	6.0	2.3	10	12	32	6.0	3.7	2.3	NaN	NaN	NaN	NaN	NaN	NaN	62.381	63.826	NaN	65.316	1
1	22102406	19	High	1.5	Vague	2	12	10	30	3.7	6.0	0.0	10	30	12	6.0	0.0	3.7	1	1.117	0.001	R	12	3.7	67.320	68.983	70.100	70.104	0
1	22102406	20	High	1.5	Precise	1	18	17	3	10.3	20.4	0.9	17	3	18	20.4	0.9	10.3	1	1.189	0.000	R	18	10.3	70.606	72.831	74.020	74.022	0
1	22102406	21	High	1.5	Vague	2	12	18	30	3.7	10.3	0.0	30	18	12	0.0	10.3	3.7	2	0.841	0.001	D	18	10.3	74.524	76.587	77.428	77.430	0
1	22102406	22	High	1.5	Vague	2	12	17	25	3.7	20.4	1.0	12	25	17	3.7	1.0	20.4	2	0.915	0.001	R	17	20.4	77.933	80.049	80.964	80.966	0
1	22102406	23	High	1.5	Precise	1	12	15	13	3.7	4.6	1.4	15	12	13	4.6	3.7	1.4	1	1.109	0.001	D	12	3.7	81.469	83.063	84.172	84.174	0
1	22102406	24	High	1.5	Vague	2	4	10	19	3.5	6.0	0.6	19	10	4	0.6	6.0	3.5	2	1.365	0.000	D	10	6.0	84.678	87.647	89.012	89.014	0
1	22102406	25	High	1.5	Vague	2	15	17	23	4.6	20.4	0.5	15	23	17	4.6	0.5	20.4	2	0.925	0.001	R	17	20.4	89.517	91.943	92.868	92.870	0
1	22102406	26	High	1.5	Vague	2	12	18	23	3.7	10.3	0.5	12	18	23	3.7	10.3	0.5	2	0.835	0.001	D	18	10.3	93.373	93.953	94.788	94.790	0
1	22102406	27	High	1.5	Vague	2	12	17	30	3.7	20.4	0.0	30	12	17	0.0	3.7	20.4	2	0.676	0.001	R	17	20.4	95.293	97.240	97.916	97.918	0
1	22102406	28	High	1.5	Precise	1	12	10	14	3.7	6.0	1.5	12	14	10	3.7	1.5	6.0	NaN	NaN	NaN	NaN	NaN	NaN	98.421	100.884	NaN	102.371	1
1	22102406	29	High	1.5	Precise	1	4	12	2	3.5	3.7	0.7	12	2	4	3.7	0.7	3.5	2	1.009	0.000	L	12	3.7	104.374	105.539	106.548	106.551	0
1	22102406	30	High	1.5	Vague	2	18	17	30	10.3	20.4	0.0	18	30	17	10.3	0.0	20.4	1	1.220	0.000	L	18	10.3	107.054	107.663	108.884	108.886	0
1	22102406	31	High	1.5	Precise	1	10	18	5	6.0	10.3	0.0	18	5	10	10.3	0.0	6.0	2	0.839	0.000	L	18	10.3	109.390	111.133	111.972	111.974	0
1	22102406	32	High	1.5	Precise	1	4	10	3	3.5	6.0	0.9	10	4	3	6.0	3.5	0.9	1	1.128	0.000	D	4	3.5	112.477	115.196	116.324	116.326	0
1	22102406	33	High	1.5	Vague	2	12	15	29	3.7	4.6	2.1	15	12	29	4.6	3.7	2.1	3	0.955	0.000	R	29	2.1	116.830	118.825	119.780	119.782	0
1	22102406	34	High	1.5	Vague	2	12	15	30	3.7	4.6	0.0	12	15	30	3.7	4.6	0.0	2	1.180	0.000	D	15	4.6	120.285	120.872	122.052	122.054	0
1	22102406	35	High	1.5	Precise	1	4	15	3	3.5	4.6	0.9	3	4	15	0.9	3.5	4.6	2	1.181	0.001	R	15	4.6	122.557	124.239	125.420	125.422	0
1	22102406	36	High	1.5	Precise	1	12	18	13	3.7	10.3	1.4	12	18	13	3.7	10.3	1.4	2	0.856	0.000	D	18	10.3	125.925	126.475	127.332	127.334	0
1	22102406	37	High	1.5	Precise	1	12	10	5	3.7	6.0	0.0	12	5	10	3.7	0.0	6.0	NaN	NaN	NaN	NaN	NaN	NaN	127.836	130.477	NaN	131.964	1
1	22102406	38	High	1.5	Vague	2	4	12	30	3.5	3.7	0.0	12	4	30	3.7	3.5	0.0	2	0.922	0.001	L	12	3.7	133.966	134.898	135.820	135.823	0
1	22102406	39	High	1.5	Precise	1	4	18	3	3.5	10.3	0.9	18	4	3	10.3	3.5	0.9	2	0.959	0.000	L	18	10.3	136.325	138.829	139.788	139.790	0
1	22102406	40	High	1.5	Precise	1	10	17	14	6.0	20.4	1.5	17	14	10	20.4	1.5	6.0	2	1.368	0.001	L	17	20.4	140.293	142.580	143.948	143.951	0
1	22102406	41	High	1.5	Precise	1	12	10	13	3.7	6.0	1.4	13	10	12	1.4	6.0	3.7	1	1.006	0.001	R	12	3.7	144.454	146.598	147.604	147.606	0
1	22102406	42	High	1.5	Vague	2	10	17	25	6.0	20.4	1.0	10	25	17	6.0	1.0	20.4	2	0.812	0.001	R	17	20.4	148.109	148.712	149.524	149.526	0
1	22102406	43	High	1.5	Precise	1	4	17	14	3.5	20.4	1.5	4	14	17	3.5	1.5	20.4	2	0.772	0.000	R	17	20.4	150.030	152.760	153.532	153.534	0
1	22102406	44	High	1.5	Precise	1	10	18	13	6.0	10.3	1.4	13	18	10	1.4	10.3	6.0	2	0.757	0.001	D	18	10.3	154.039	154.983	155.740	155.742	0
1	22102406	45	High	1.5	Vague	2	4	18	30	3.5	10.3	0.0	30	4	18	0.0	3.5	10.3	2	0.781	0.000	R	18	10.3	156.246	158.743	159.524	159.526	0
1	22102406	46	High	1.5	Precise	1	4	17	13	3.5	20.4	1.4	4	17	13	3.5	20.4	1.4	2	0.572	0.000	D	17	20.4	160.030	162.976	163.548	163.550	0
1	22102406	47	High	1.5	Vague	2	12	10	29	3.7	6.0	2.1	12	10	29	3.7	6.0	2.1	3	0.716	0.001	R	29	2.1	164.054	165.288	166.004	166.006	0
1	22102406	48	High	1.5	Vague	2	15	10	30	4.6	6.0	0.0	30	15	10	0.0	4.6	6.0	1	1.016	0.000	D	15	4.6	166.510	167.323	168.340	168.342	0
1	22102406	49	High	1.5	Vague	2	12	18	25	3.7	10.3	1.0	12	18	25	3.7	10.3	1.0	2	1.095	0.000	D	18	10.3	168.845	170.869	171.964	171.966	0
1	22102406	50	High	1.5	Precise	1	12	10	3	3.7	6.0	0.9	12	10	3	3.7	6.0	0.9	2	1.115	0.001	D	10	6.0	172.470	175.297	176.412	176.414	0
1	22102406	51	High	1.5	Precise	1	15	10	14	4.6	6.0	1.5	14	10	15	1.5	6.0	4.6	1	1.190	0.001	R	15	4.6	176.917	178.998	180.188	180.190	0
1	22102406	52	High	1.5	Vague	2	12	10	23	3.7	6.0	0.5	10	23	12	6.0	0.5	3.7	1	0.964	0.000	R	12	3.7	180.693	181.328	182.292	182.294	0
1	22102406	53	High	1.5	Vague	2	4	18	32	3.5	10.3	2.3	18	32	4	10.3	2.3	3.5	2	0.961	0.000	L	18	10.3	182.797	185.555	186.516	186.518	0
1	22102406	54	High	1.5	Vague	2	4	10	32	3.5	6.0	2.3	10	4	32	6.0	3.5	2.3	NaN	NaN	NaN	NaN	NaN	NaN	187.021	187.634	NaN	189.120	1
1	22102406	55	High	1.5	Vague	2	4	12	29	3.5	3.7	2.1	29	4	12	2.1	3.5	3.7	2	1.287	0.001	R	12	3.7	191.124	193.205	194.492	194.494	0
1	22102406	56	High	1.5	Vague	2	4	15	30	3.5	4.6	0.0	4	30	15	3.5	0.0	4.6	2	1.087	0.000	R	15	4.6	194.997	197.893	198.980	198.982	0
1	22102406	57	High	1.5	Vague	2	15	17	32	4.6	20.4	2.3	17	32	15	20.4	2.3	4.6	2	1.216	0.000	L	17	20.4	199.486	201.044	202.260	202.262	0
1	22102406	58	High	1.5	Vague	2	15	18	29	4.6	10.3	2.1	18	15	29	10.3	4.6	2.1	2	1.012	0.000	L	18	10.3	202.765	203.464	204.476	204.478	0
1	22102406	59	High	1.5	Vague	2	4	18	29	3.5	10.3	2.1	29	18	4	2.1	10.3	3.5	2	0.799	0.000	D	18	10.3	204.982	206.837	207.636	207.638	0
1	22102406	60	High	1.5	Vague	2	18	17	25	10.3	20.4	1.0	25	18	17	1.0	10.3	20.4	2	0.623	0.001	R	17	20.4	208.140	209.037	209.660	209.662	0
1	22102406	61	High	1.5	Vague	2	12	18	32	3.7	10.3	2.3	18	32	12	10.3	2.3	3.7	NaN	NaN	NaN	NaN	NaN	NaN	225.361	227.447	NaN	228.937	1
1	22102406	62	High	1.5	Precise	1	18	17	9	10.3	20.4	2.0	18	17	9	10.3	20.4	2.0	2	1.219	0.001	D	17	20.4	230.940	232.401	233.620	233.623	0
1	22102406	63	High	1.5	Precise	1	18	17	14	10.3	20.4	1.5	14	18	17	1.5	10.3	20.4	2	0.893	0.000	R	17	20.4	234.125	237.038	237.932	237.934	0
1	22102406	64	High	1.5	Precise	1	15	18	2	4.6	10.3	0.7	15	2	18	4.6	0.7	10.3	2	0.879	0.000	R	18	10.3	238.436	239.733	240.612	240.614	0
1	22102406	65	High	1.5	Precise	1	15	17	3	4.6	20.4	0.9	17	15	3	20.4	4.6	0.9	2	1.158	0.000	L	17	20.4	241.118	243.718	244.876	244.878	0
1	22102406	66	High	1.5	Vague	2	18	17	23	10.3	20.4	0.5	18	17	23	10.3	20.4	0.5	2	1.069	0.001	D	17	20.4	245.382	246.559	247.628	247.631	0
1	22102406	67	High	1.5	Precise	1	15	10	5	4.6	6.0	0.0	5	10	15	0.0	6.0	4.6	1	1.021	0.001	R	15	4.6	248.134	250.423	251.444	251.447	0
1	22102406	68	High	1.5	Precise	1	4	12	13	3.5	3.7	1.4	13	12	4	1.4	3.7	3.5	2	1.434	0.001	D	12	3.7	251.950	254.066	255.500	255.502	0
1	22102406	69	High	1.5	Precise	1	4	12	14	3.5	3.7	1.5	12	4	14	3.7	3.5	1.5	1	1.232	0.001	D	4	3.5	256.005	257.404	258.636	258.639	0
1	22102406	70	High	1.5	Vague	2	10	18	30	6.0	10.3	0.0	10	30	18	6.0	0.0	10.3	2	1.073	0.000	R	18	10.3	259.142	261.379	262.452	262.454	0
1	22102406	71	High	1.5	Precise	1	10	17	9	6.0	20.4	2.0	9	17	10	2.0	20.4	6.0	2	0.796	0.001	D	17	20.4	262.957	265.144	265.940	265.943	0
1	22102406	72	High	1.5	Vague	2	18	17	32	10.3	20.4	2.3	17	18	32	20.4	10.3	2.3	2	0.621	0.000	L	17	20.4	266.446	269.432	270.052	270.054	0
1	22102406	73	High	1.5	Precise	1	4	10	2	3.5	6.0	0.7	2	4	10	0.7	3.5	6.0	1	1.160	0.001	D	4	3.5	270.558	271.748	272.908	272.911	0
1	22102406	74	High	1.5	Vague	2	10	17	19	6.0	20.4	0.6	19	17	10	0.6	20.4	6.0	2	0.703	0.000	D	17	20.4	273.414	275.486	276.188	276.190	0
1	22102406	75	High	1.5	Precise	1	4	18	14	3.5	10.3	1.5	18	14	4	10.3	1.5	3.5	2	1.232	0.000	L	18	10.3	276.693	278.731	279.964	279.966	0
1	22102406	76	High	1.5	Vague	2	4	18	23	3.5	10.3	0.5	4	23	18	3.5	0.5	10.3	2	0.830	0.000	R	18	10.3	280.469	281.758	282.588	282.590	0
1	22102406	77	High	1.5	Vague	2	15	18	23	4.6	10.3	0.5	23	15	18	0.5	4.6	10.3	2	0.759	0.001	R	18	10.3	283.093	285.749	286.508	286.511	0
1	22102406	78	High	1.5	Precise	1	12	10	2	3.7	6.0	0.7	10	2	12	6.0	0.7	3.7	1	1.125	0.000	R	12	3.7	287.013	288.727	289.852	289.854	0
1	22102406	79	High	1.5	Precise	1	15	17	5	4.6	20.4	0.0	15	17	5	4.6	20.4	0.0	2	0.709	0.001	D	17	20.4	290.357	292.655	293.364	293.367	0
1	22102406	80	High	1.5	Vague	2	15	17	30	4.6	20.4	0.0	17	30	15	20.4	0.0	4.6	2	0.891	0.000	L	17	20.4	293.870	294.513	295.404	295.406	0
1	22102406	81	High	1.5	Vague	2	15	18	19	4.6	10.3	0.6	18	19	15	10.3	0.6	4.6	2	0.862	0.001	L	18	10.3	295.910	297.310	298.172	298.175	0
1	22102406	82	High	1.5	Precise	1	12	18	14	3.7	10.3	1.5	12	18	14	3.7	10.3	1.5	2	0.635	0.001	D	18	10.3	298.677	301.321	301.956	301.958	0
1	22102406	83	High	1.5	Vague	2	10	17	23	6.0	20.4	0.5	23	17	10	0.5	20.4	6.0	2	0.624	0.000	D	17	20.4	302.461	304.324	304.948	304.951	0
1	22102406	84	High	1.5	Precise	1	4	17	9	3.5	20.4	2.0	4	9	17	3.5	2.0	20.4	2	0.700	0.001	R	17	20.4	305.454	306.560	307.260	307.263	0
1	22102406	85	High	1.5	Vague	2	4	12	19	3.5	3.7	0.6	12	19	4	3.7	0.6	3.5	2	0.946	0.000	L	12	3.7	307.765	309.474	310.420	310.422	0
1	22102406	86	High	1.5	Precise	1	12	15	14	3.7	4.6	1.5	12	14	15	3.7	1.5	4.6	1	1.030	0.000	L	12	3.7	310.925	311.551	312.580	312.583	0
1	22102406	87	High	1.5	Precise	1	4	12	9	3.5	3.7	2.0	4	9	12	3.5	2.0	3.7	1	1.199	0.000	L	4	3.5	313.086	315.661	316.860	316.862	0
1	22102406	88	High	1.5	Vague	2	10	17	29	6.0	20.4	2.1	10	29	17	6.0	2.1	20.4	2	0.712	0.000	R	17	20.4	317.366	318.828	319.540	319.542	0
1	22102406	89	High	1.5	Vague	2	12	15	32	3.7	4.6	2.3	12	15	32	3.7	4.6	2.3	1	1.116	0.001	L	12	3.7	320.045	321.952	323.068	323.071	0
1	22102406	90	High	1.5	Precise	1	15	17	2	4.6	20.4	0.7	17	2	15	20.4	0.7	4.6	2	0.646	0.000	L	17	20.4	323.573	326.086	326.732	326.734	0
1	22102406	91	High	1.5	Vague	2	12	15	25	3.7	4.6	1.0	15	25	12	4.6	1.0	3.7	2	1.079	0.001	L	15	4.6	327.237	328.549	329.628	329.630	0
1	22102406	92	High	1.5	Precise	1	4	17	3	3.5	20.4	0.9	17	3	4	20.4	0.9	3.5	2	0.866	0.000	L	17	20.4	330.134	331.826	332.692	332.694	0
1	22102406	93	High	1.5	Precise	1	12	18	2	3.7	10.3	0.7	12	18	2	3.7	10.3	0.7	2	0.756	0.001	D	18	10.3	333.197	335.088	335.844	335.847	0
1	22102406	94	High	1.5	Precise	1	4	15	14	3.5	4.6	1.5	4	15	14	3.5	4.6	1.5	2	0.950	0.001	D	15	4.6	336.350	339.271	340.220	340.223	0
1	22102406	95	High	1.5	Vague	2	4	10	25	3.5	6.0	1.0	25	4	10	1.0	3.5	6.0	1	1.450	0.000	D	4	3.5	340.725	341.322	342.772	342.774	0
1	22102406	96	High	1.5	Vague	2	12	15	23	3.7	4.6	0.5	12	15	23	3.7	4.6	0.5	1	0.902	0.000	L	12	3.7	343.277	346.022	346.924	346.926	0
1	22102406	97	High	1.5	Precise	1	12	15	3	3.7	4.6	0.9	12	15	3	3.7	4.6	0.9	2	1.108	0.000	D	15	4.6	347.429	349.808	350.916	350.918	0
1	22102406	98	High	1.5	Precise	1	4	15	13	3.5	4.6	1.4	4	13	15	3.5	1.4	4.6	2	0.828	0.000	R	15	4.6	351.421	353.016	353.844	353.847	0
1	22102406	99	High	1.5	Vague	2	10	18	23	6.0	10.3	0.5	10	18	23	6.0	10.3	0.5	2	0.784	0.001	D	18	10.3	354.350	357.212	357.996	357.998	0
1	22102406	100	High	1.5	Vague	2	18	17	19	10.3	20.4	0.6	17	19	18	20.4	0.6	10.3	2	0.978	0.000	L	17	20.4	358.502	359.210	360.188	360.190	0
1	22102406	101	High	1.5	Vague	2	10	18	32	6.0	10.3	2.3	18	32	10	10.3	2.3	6.0	2	0.741	0.000	L	18	10.3	360.693	362.551	363.292	363.294	0
1	22102406	102	High	1.5	Vague	2	4	17	32	3.5	20.4	2.3	17	4	32	20.4	3.5	2.3	2	0.735	0.000	L	17	20.4	363.798	366.453	367.188	367.190	0
1	22102406	103	High	1.5	Precise	1	15	18	13	4.6	10.3	1.4	15	13	18	4.6	1.4	10.3	2	0.829	0.000	R	18	10.3	367.694	368.247	369.076	369.079	0
1	22102406	104	High	1.5	Precise	1	18	17	2	10.3	20.4	0.7	17	2	18	20.4	0.7	10.3	2	0.812	0.000	L	17	20.4	369.582	371.504	372.316	372.319	0
1	22102406	105	High	1.5	Precise	1	15	17	13	4.6	20.4	1.4	17	13	15	20.4	1.4	4.6	2	0.752	0.001	L	17	20.4	372.822	374.948	375.700	375.703	0
1	22102406	106	High	1.5	Vague	2	4	10	30	3.5	6.0	0.0	4	10	30	3.5	6.0	0.0	1	1.383	0.000	L	4	3.5	376.206	376.941	378.324	378.327	0
1	22102406	107	High	1.5	Vague	2	10	18	25	6.0	10.3	1.0	10	25	18	6.0	1.0	10.3	2	0.860	0.000	R	18	10.3	378.830	380.680	381.540	381.542	0
1	22102406	108	High	1.5	Precise	1	4	18	2	3.5	10.3	0.7	2	4	18	0.7	3.5	10.3	2	0.773	0.001	R	18	10.3	382.045	383.680	384.453	384.455	0
1	22102406	109	High	1.5	Precise	1	15	18	3	4.6	10.3	0.9	15	18	3	4.6	10.3	0.9	2	0.825	0.000	D	18	10.3	384.957	386.883	387.708	387.710	0
1	22102406	110	High	1.5	Precise	1	12	15	2	3.7	4.6	0.7	12	2	15	3.7	0.7	4.6	1	1.004	0.001	L	12	3.7	388.213	389.513	390.516	390.519	0
1	22102406	111	High	1.5	Vague	2	4	15	32	3.5	4.6	2.3	32	15	4	2.3	4.6	3.5	2	1.102	0.000	D	15	4.6	391.021	393.534	394.636	394.638	0
1	22102406	112	High	1.5	Precise	1	12	17	14	3.7	20.4	1.5	17	12	14	20.4	3.7	1.5	2	0.762	0.001	L	17	20.4	395.141	398.050	398.812	398.815	0
1	22102406	113	High	1.5	Precise	1	15	10	9	4.6	6.0	2.0	15	9	10	4.6	2.0	6.0	1	1.245	0.000	L	15	4.6	399.318	401.215	402.460	402.463	0
1	22102406	114	High	1.5	Vague	2	4	10	23	3.5	6.0	0.5	23	4	10	0.5	3.5	6.0	1	1.144	0.000	D	4	3.5	402.966	404.052	405.196	405.199	0
1	22102406	115	High	1.5	Vague	2	4	17	29	3.5	20.4	2.1	4	29	17	3.5	2.1	20.4	2	1.144	0.000	R	17	20.4	405.701	407.853	408.996	408.999	0
1	22102406	116	High	1.5	Precise	1	10	18	14	6.0	10.3	1.5	14	18	10	1.5	10.3	6.0	2	0.771	0.000	D	18	10.3	409.501	410.145	410.916	410.919	0
1	22102406	117	High	1.5	Precise	1	15	10	2	4.6	6.0	0.7	10	15	2	6.0	4.6	0.7	1	1.399	0.000	D	15	4.6	411.421	411.949	413.348	413.351	0
1	22102406	118	High	1.5	Vague	2	15	18	30	4.6	10.3	0.0	30	18	15	0.0	10.3	4.6	2	1.007	0.000	D	18	10.3	413.854	416.621	417.628	417.631	0
1	22102406	119	High	1.5	Precise	1	10	17	13	6.0	20.4	1.4	17	13	10	20.4	1.4	6.0	2	0.759	0.000	L	17	20.4	418.134	420.597	421.356	421.359	0
1	22102406	120	High	1.5	Vague	2	15	10	32	4.6	6.0	2.3	32	15	10	2.3	4.6	6.0	1	1.305	0.000	D	15	4.6	421.862	423.491	424.796	424.799	0
1	22102406	121	High	1.5	Vague	2	4	15	25	3.5	4.6	1.0	15	25	4	4.6	1.0	3.5	2	1.052	0.001	L	15	4.6	447.994	450.833	451.884	451.887	0
1	22102406	122	High	1.5	Precise	1	10	17	3	6.0	20.4	0.9	10	17	3	6.0	20.4	0.9	2	0.753	0.000	D	17	20.4	452.390	453.667	454.420	454.423	0
1	22102406	123	High	1.5	Precise	1	4	18	5	3.5	10.3	0.0	4	5	18	3.5	0.0	10.3	2	1.345	0.000	R	18	10.3	454.926	457.794	459.140	459.143	0
1	22102406	124	High	1.5	Precise	1	12	17	5	3.7	20.4	0.0	5	17	12	0.0	20.4	3.7	2	0.741	0.000	D	17	20.4	459.646	460.591	461.332	461.334	0
1	22102406	125	High	1.5	Vague	2	4	17	30	3.5	20.4	0.0	30	4	17	0.0	3.5	20.4	2	0.780	0.001	R	17	20.4	461.837	462.800	463.580	463.583	0
1	22102406	126	High	1.5	Vague	2	15	17	25	4.6	20.4	1.0	15	25	17	4.6	1.0	20.4	2	0.593	0.000	R	17	20.4	464.086	465.691	466.284	466.287	0
1	22102406	127	High	1.5	Vague	2	12	17	23	3.7	20.4	0.5	23	17	12	0.5	20.4	3.7	2	0.677	0.000	D	17	20.4	466.789	468.208	468.884	468.887	0
1	22102406	128	High	1.5	Vague	2	15	17	29	4.6	20.4	2.1	15	17	29	4.6	20.4	2.1	2	0.814	0.000	D	17	20.4	469.389	471.094	471.908	471.910	0
1	22102406	129	High	1.5	Vague	2	12	17	32	3.7	20.4	2.3	17	32	12	20.4	2.3	3.7	2	0.794	0.000	L	17	20.4	472.413	473.347	474.140	474.143	0
1	22102406	130	High	1.5	Precise	1	18	17	13	10.3	20.4	1.4	17	13	18	20.4	1.4	10.3	2	0.615	0.001	L	17	20.4	474.645	476.774	477.388	477.391	0
1	22102406	131	High	1.5	Vague	2	12	17	19	3.7	20.4	0.6	19	17	12	0.6	20.4	3.7	2	0.722	0.000	D	17	20.4	477.893	480.170	480.892	480.895	0
1	22102406	132	High	1.5	Vague	2	12	17	29	3.7	20.4	2.1	29	17	12	2.1	20.4	3.7	2	0.664	0.000	D	17	20.4	481.398	483.924	484.588	484.591	0
1	22102406	133	High	1.5	Vague	2	4	12	25	3.5	3.7	1.0	25	4	12	1.0	3.5	3.7	2	1.018	0.000	R	12	3.7	485.094	487.882	488.900	488.902	0
1	22102406	134	High	1.5	Precise	1	4	10	13	3.5	6.0	1.4	13	4	10	1.4	3.5	6.0	1	1.470	0.000	D	4	3.5	489.405	491.118	492.588	492.591	0
1	22102406	135	High	1.5	Vague	2	15	10	23	4.6	6.0	0.5	23	10	15	0.5	6.0	4.6	1	1.054	0.000	R	15	4.6	493.094	495.102	496.156	496.159	0
1	22102406	136	High	1.5	Precise	1	4	18	9	3.5	10.3	2.0	9	4	18	2.0	3.5	10.3	2	0.999	0.000	R	18	10.3	496.662	497.781	498.780	498.783	0
1	22102406	137	High	1.5	Precise	1	4	15	9	3.5	4.6	2.0	9	15	4	2.0	4.6	3.5	2	1.002	0.000	D	15	4.6	499.285	501.722	502.724	502.727	0
1	22102406	138	High	1.5	Vague	2	15	10	25	4.6	6.0	1.0	25	15	10	1.0	4.6	6.0	1	0.784	0.001	D	15	4.6	503.229	505.660	506.444	506.447	0
1	22102406	139	High	1.5	Precise	1	15	17	14	4.6	20.4	1.5	14	17	15	1.5	20.4	4.6	2	0.724	0.001	D	17	20.4	506.950	509.888	510.612	510.615	0
1	22102406	140	High	1.5	Vague	2	4	15	29	3.5	4.6	2.1	29	15	4	2.1	4.6	3.5	2	1.259	0.000	D	15	4.6	511.118	514.106	515.365	515.367	0
1	22102406	141	High	1.5	Precise	1	10	18	9	6.0	10.3	2.0	9	10	18	2.0	6.0	10.3	2	1.158	0.000	R	18	10.3	515.870	518.119	519.276	519.279	0
1	22102406	142	High	1.5	Vague	2	15	17	19	4.6	20.4	0.6	15	19	17	4.6	0.6	20.4	2	1.001	0.000	R	17	20.4	519.781	520.500	521.500	521.503	0
1	22102406	143	High	1.5	Precise	1	10	18	2	6.0	10.3	0.7	10	2	18	6.0	0.7	10.3	2	0.894	0.001	R	18	10.3	522.005	524.423	525.317	525.319	0
1	22102406	144	High	1.5	Precise	1	10	17	5	6.0	20.4	0.0	17	10	5	20.4	6.0	0.0	2	1.170	0.000	L	17	20.4	525.822	528.795	529.964	529.967	0
1	22102406	145	High	1.5	Precise	1	4	10	14	3.5	6.0	1.5	10	4	14	6.0	3.5	1.5	NaN	NaN	NaN	NaN	NaN	NaN	530.469	531.186	NaN	532.676	1
1	22102406	146	High	1.5	Vague	2	4	18	25	3.5	10.3	1.0	4	18	25	3.5	10.3	1.0	2	0.975	0.000	D	18	10.3	534.679	536.845	537.820	537.823	0
1	22102406	147	High	1.5	Precise	1	12	18	9	3.7	10.3	2.0	9	18	12	2.0	10.3	3.7	2	0.914	0.000	D	18	10.3	538.326	539.363	540.276	540.279	0
1	22102406	148	High	1.5	Vague	2	12	18	19	3.7	10.3	0.6	19	12	18	0.6	3.7	10.3	2	0.844	0.001	R	18	10.3	540.781	542.273	543.116	543.119	0
1	22102406	149	High	1.5	Vague	2	15	10	29	4.6	6.0	2.1	29	15	10	2.1	4.6	6.0	1	1.241	0.000	D	15	4.6	543.622	545.363	546.604	546.607	0
1	22102406	150	High	1.5	Precise	1	4	15	5	3.5	4.6	0.0	15	4	5	4.6	3.5	0.0	1	1.223	0.000	D	4	3.5	547.110	549.133	550.356	550.359	0
1	22102406	151	High	1.5	Precise	1	4	10	5	3.5	6.0	0.0	4	10	5	3.5	6.0	0.0	3	1.164	0.000	R	5	0.0	550.862	552.009	553.173	553.175	0
1	22102406	152	High	1.5	Precise	1	15	18	9	4.6	10.3	2.0	18	15	9	10.3	4.6	2.0	2	0.743	0.001	L	18	10.3	553.678	556.301	557.044	557.047	0
1	22102406	153	High	1.5	Vague	2	12	10	19	3.7	6.0	0.6	10	19	12	6.0	0.6	3.7	2	1.197	0.000	L	10	6.0	557.549	560.327	561.524	561.527	0
1	22102406	154	High	1.5	Precise	1	15	18	5	4.6	10.3	0.0	5	15	18	0.0	4.6	10.3	2	0.773	0.000	R	18	10.3	562.029	565.015	565.788	565.791	0
1	22102406	155	High	1.5	Precise	1	12	18	3	3.7	10.3	0.9	3	12	18	0.9	3.7	10.3	2	1.031	0.001	R	18	10.3	566.293	569.197	570.228	570.231	0
1	22102406	156	High	1.5	Vague	2	4	17	25	3.5	20.4	1.0	17	25	4	20.4	1.0	3.5	2	0.757	0.001	L	17	20.4	570.733	573.256	574.013	574.015	0
1	22102406	157	High	1.5	Vague	2	4	10	29	3.5	6.0	2.1	29	10	4	2.1	6.0	3.5	2	1.048	0.000	D	10	6.0	574.518	575.821	576.869	576.871	0
1	22102406	158	High	1.5	Vague	2	4	15	23	3.5	4.6	0.5	23	15	4	0.5	4.6	3.5	2	0.953	0.001	D	15	4.6	577.375	580.100	581.052	581.055	0
1	22102406	159	High	1.5	Precise	1	12	15	9	3.7	4.6	2.0	12	9	15	3.7	2.0	4.6	1	1.358	0.000	L	12	3.7	581.558	582.918	584.277	584.279	0
1	22102406	160	High	1.5	Precise	1	4	18	13	3.5	10.3	1.4	13	4	18	1.4	3.5	10.3	2	0.650	0.000	R	18	10.3	584.781	587.178	587.828	587.831	0
1	22102406	161	High	1.5	Vague	2	4	15	19	3.5	4.6	0.6	19	4	15	0.6	3.5	4.6	2	0.924	0.000	R	15	4.6	588.334	590.728	591.653	591.655	0
1	22102406	162	High	1.5	Vague	2	12	18	29	3.7	10.3	2.1	12	18	29	3.7	10.3	2.1	2	1.242	0.001	D	18	10.3	592.158	593.346	594.589	594.591	0
1	22102406	163	High	1.5	Precise	1	12	17	9	3.7	20.4	2.0	9	12	17	2.0	3.7	20.4	2	0.755	0.000	R	17	20.4	595.094	596.041	596.796	596.799	0
1	22102406	164	High	1.5	Precise	1	4	12	5	3.5	3.7	0.0	4	12	5	3.5	3.7	0.0	2	0.949	0.000	D	12	3.7	597.301	599.239	600.189	600.191	0
1	22102406	165	High	1.5	Vague	2	4	17	19	3.5	20.4	0.6	4	19	17	3.5	0.6	20.4	2	0.723	0.001	R	17	20.4	600.694	603.586	604.309	604.311	0
1	22102406	166	High	1.5	Vague	2	4	12	23	3.5	3.7	0.5	23	4	12	0.5	3.5	3.7	2	0.909	0.001	R	12	3.7	604.814	605.543	606.453	606.455	0
1	22102406	167	High	1.5	Precise	1	4	17	2	3.5	20.4	0.7	4	2	17	3.5	0.7	20.4	2	0.687	0.001	R	17	20.4	606.958	609.622	610.308	610.311	0
1	22102406	168	High	1.5	Precise	1	12	18	5	3.7	10.3	0.0	12	18	5	3.7	10.3	0.0	2	0.922	0.001	D	18	10.3	610.814	613.618	614.541	614.543	0
1	22102406	169	High	1.5	Precise	1	12	10	9	3.7	6.0	2.0	12	9	10	3.7	2.0	6.0	1	1.101	0.000	L	12	3.7	615.046	616.575	617.676	617.679	0
1	22102406	170	High	1.5	Precise	1	10	17	2	6.0	20.4	0.7	10	2	17	6.0	0.7	20.4	2	0.667	0.000	R	17	20.4	618.181	618.890	619.557	619.559	0
1	22102406	171	High	1.5	Vague	2	10	17	32	6.0	20.4	2.3	10	17	32	6.0	20.4	2.3	2	0.847	0.000	D	17	20.4	620.061	621.374	622.220	622.223	0
1	22102406	172	High	1.5	Precise	1	4	12	3	3.5	3.7	0.9	3	4	12	0.9	3.5	3.7	2	0.918	0.000	R	12	3.7	622.725	624.854	625.773	625.775	0
1	22102406	173	High	1.5	Precise	1	4	15	2	3.5	4.6	0.7	2	4	15	0.7	3.5	4.6	2	0.999	0.000	R	15	4.6	626.278	629.126	630.124	630.127	0
1	22102406	174	High	1.5	Vague	2	12	15	19	3.7	4.6	0.6	12	15	19	3.7	4.6	0.6	2	0.766	0.001	D	15	4.6	630.631	631.334	632.101	632.103	0
1	22102406	175	High	1.5	Precise	1	15	10	3	4.6	6.0	0.9	10	15	3	6.0	4.6	0.9	1	1.152	0.000	D	15	4.6	632.606	635.013	636.165	636.167	0
1	22102406	176	High	1.5	Vague	2	4	18	19	3.5	10.3	0.6	18	4	19	10.3	3.5	0.6	2	0.765	0.001	L	18	10.3	636.669	639.647	640.413	640.415	0
1	22102406	177	High	1.5	Vague	2	15	10	19	4.6	6.0	0.6	10	19	15	6.0	0.6	4.6	1	1.196	0.000	R	15	4.6	640.918	641.585	642.781	642.783	0
1	22102406	178	High	1.5	Vague	2	18	17	29	10.3	20.4	2.1	18	29	17	10.3	2.1	20.4	2	0.952	0.000	R	17	20.4	643.285	646.220	647.172	647.175	0
1	22102406	179	High	1.5	Precise	1	4	10	9	3.5	6.0	2.0	4	9	10	3.5	2.0	6.0	NaN	NaN	NaN	NaN	NaN	NaN	647.678	648.622	NaN	650.108	1
1	22102406	180	High	1.5	Vague	2	4	17	23	3.5	20.4	0.5	17	4	23	20.4	3.5	0.5	2	0.690	0.000	L	17	20.4	652.112	654.082	654.773	654.775	0
1	22102406	181	Low	10.0	Precise	1	10	18	11	6.0	10.3	2.1	18	11	10	10.3	2.1	6.0	2	2.105	0.000	L	18	10.3	681.375	684.307	686.413	686.415	0
1	22102406	182	Low	10.0	Vague	2	18	17	31	10.3	20.4	2.2	17	31	18	20.4	2.2	10.3	2	1.760	0.000	L	17	20.4	686.917	689.172	690.932	690.935	0
1	22102406	183	Low	10.0	Vague	2	12	10	35	3.7	6.0	1.7	10	35	12	6.0	1.7	3.7	1	1.089	0.001	R	12	3.7	691.437	693.980	695.069	695.072	0
1	22102406	184	Low	10.0	Vague	2	12	17	31	3.7	20.4	2.2	12	17	31	3.7	20.4	2.2	2	1.673	0.000	D	17	20.4	695.575	696.116	697.789	697.791	0
1	22102406	185	Low	10.0	Precise	1	12	18	6	3.7	10.3	0.9	18	12	6	10.3	3.7	0.9	2	1.431	0.001	L	18	10.3	698.294	700.661	702.093	702.095	0
1	22102406	186	Low	10.0	Vague	2	4	12	22	3.5	3.7	0.9	12	22	4	3.7	0.9	3.5	2	0.962	0.001	L	12	3.7	702.598	705.002	705.965	705.967	0
1	22102406	187	Low	10.0	Vague	2	10	17	22	6.0	20.4	0.9	22	10	17	0.9	6.0	20.4	2	1.023	0.000	R	17	20.4	706.470	707.261	708.284	708.287	0
1	22102406	188	Low	10.0	Vague	2	15	17	22	4.6	20.4	0.9	22	15	17	0.9	4.6	20.4	2	0.942	0.000	R	17	20.4	708.790	710.599	711.541	711.543	0
1	22102406	189	Low	10.0	Vague	2	4	17	22	3.5	20.4	0.9	22	17	4	0.9	20.4	3.5	2	0.855	0.001	D	17	20.4	712.046	714.166	715.021	715.023	0
1	22102406	190	Low	10.0	Precise	1	15	10	16	4.6	6.0	1.4	10	16	15	6.0	1.4	4.6	1	1.060	0.000	R	15	4.6	715.526	717.056	718.116	718.120	0
1	22102406	191	Low	10.0	Vague	2	4	12	24	3.5	3.7	0.3	12	24	4	3.7	0.3	3.5	2	1.485	0.001	L	12	3.7	718.622	720.047	721.533	721.535	0
1	22102406	192	Low	10.0	Precise	1	10	17	7	6.0	20.4	0.2	10	7	17	6.0	0.2	20.4	2	0.804	0.001	R	17	20.4	722.038	722.737	723.541	723.543	0
1	22102406	193	Low	10.0	Precise	1	12	10	1	3.7	6.0	0.9	1	12	10	0.9	3.7	6.0	1	2.369	0.000	D	12	3.7	724.046	726.916	729.285	729.287	0
1	22102406	194	Low	10.0	Precise	1	12	18	11	3.7	10.3	2.1	11	18	12	2.1	10.3	3.7	1	1.486	0.001	R	12	3.7	729.789	731.663	733.149	733.151	0
1	22102406	195	Low	10.0	Precise	1	12	10	16	3.7	6.0	1.4	16	10	12	1.4	6.0	3.7	1	1.172	0.000	R	12	3.7	733.653	735.225	736.397	736.399	0
1	22102406	196	Low	10.0	Vague	2	12	15	24	3.7	4.6	0.3	15	24	12	4.6	0.3	3.7	1	1.452	0.000	R	12	3.7	736.902	739.808	741.261	741.263	0
1	22102406	197	Low	10.0	Vague	2	12	15	22	3.7	4.6	0.9	12	15	22	3.7	4.6	0.9	1	1.542	0.000	L	12	3.7	741.766	744.422	745.964	745.967	0
1	22102406	198	Low	10.0	Precise	1	10	18	16	6.0	10.3	1.4	10	16	18	6.0	1.4	10.3	2	1.271	0.001	R	18	10.3	746.470	748.038	749.309	749.311	0
1	22102406	199	Low	10.0	Precise	1	10	18	1	6.0	10.3	0.9	1	18	10	0.9	10.3	6.0	2	0.984	0.000	D	18	10.3	749.814	752.429	753.412	753.415	0
1	22102406	200	Low	10.0	Vague	2	4	10	24	3.5	6.0	0.3	10	24	4	6.0	0.3	3.5	1	2.027	0.001	R	4	3.5	753.918	756.874	758.901	758.903	0
1	22102406	201	Low	10.0	Precise	1	4	17	8	3.5	20.4	1.7	17	4	8	20.4	3.5	1.7	2	0.896	0.000	L	17	20.4	759.406	761.260	762.156	762.159	0
1	22102406	202	Low	10.0	Vague	2	15	17	24	4.6	20.4	0.3	17	24	15	20.4	0.3	4.6	2	0.993	0.000	L	17	20.4	762.662	764.996	765.989	765.991	0
1	22102406	203	Low	10.0	Vague	2	15	18	20	4.6	10.3	0.0	18	20	15	10.3	0.0	4.6	2	0.887	0.001	L	18	10.3	766.494	768.790	769.677	769.679	0
1	22102406	204	Low	10.0	Vague	2	15	10	22	4.6	6.0	0.9	22	15	10	0.9	4.6	6.0	1	2.503	0.001	D	15	4.6	770.182	772.118	774.621	774.623	0
1	22102406	205	Low	10.0	Precise	1	12	17	16	3.7	20.4	1.4	12	17	16	3.7	20.4	1.4	2	0.759	0.000	D	17	20.4	775.125	777.070	777.829	777.831	0
1	22102406	206	Low	10.0	Precise	1	4	15	6	3.5	4.6	0.9	15	4	6	4.6	3.5	0.9	1	1.407	0.001	D	4	3.5	778.334	780.573	781.981	781.983	0
1	22102406	207	Low	10.0	Vague	2	4	17	20	3.5	20.4	0.0	4	17	20	3.5	20.4	0.0	2	0.774	0.000	D	17	20.4	782.486	783.646	784.420	784.423	0
1	22102406	208	Low	10.0	Vague	2	15	18	35	4.6	10.3	1.7	35	18	15	1.7	10.3	4.6	2	0.757	0.001	D	18	10.3	784.926	787.248	788.005	788.007	0
1	22102406	209	Low	10.0	Precise	1	12	10	11	3.7	6.0	2.1	12	10	11	3.7	6.0	2.1	1	1.670	0.000	L	12	3.7	788.509	789.614	791.284	791.287	0
1	22102406	210	Low	10.0	Vague	2	10	18	24	6.0	10.3	0.3	10	24	18	6.0	0.3	10.3	2	0.770	0.000	R	18	10.3	791.790	792.995	793.764	793.767	0
1	22102406	211	Low	10.0	Vague	2	12	15	21	3.7	4.6	0.6	21	15	12	0.6	4.6	3.7	1	1.233	0.001	R	12	3.7	794.269	796.339	797.573	797.575	0
1	22102406	212	Low	10.0	Precise	1	12	15	1	3.7	4.6	0.9	15	1	12	4.6	0.9	3.7	1	0.763	0.000	R	12	3.7	798.077	798.682	799.444	799.447	0
1	22102406	213	Low	10.0	Precise	1	4	15	7	3.5	4.6	0.2	7	4	15	0.2	3.5	4.6	1	1.534	0.000	D	4	3.5	799.950	802.343	803.877	803.879	0
1	22102406	214	Low	10.0	Vague	2	4	12	21	3.5	3.7	0.6	4	12	21	3.5	3.7	0.6	2	1.012	0.000	D	12	3.7	804.382	806.320	807.332	807.335	0
1	22102406	215	Low	10.0	Vague	2	4	17	21	3.5	20.4	0.6	4	17	21	3.5	20.4	0.6	2	0.799	0.000	D	17	20.4	807.838	808.494	809.293	809.295	0
1	22102406	216	Low	10.0	Precise	1	12	18	16	3.7	10.3	1.4	12	18	16	3.7	10.3	1.4	2	0.851	0.001	D	18	10.3	809.798	810.473	811.325	811.327	0
1	22102406	217	Low	10.0	Vague	2	10	18	31	6.0	10.3	2.2	18	10	31	10.3	6.0	2.2	2	0.751	0.001	L	18	10.3	811.830	812.990	813.741	813.743	0
1	22102406	218	Low	10.0	Vague	2	4	12	35	3.5	3.7	1.7	12	4	35	3.7	3.5	1.7	2	1.213	0.001	L	12	3.7	814.246	815.304	816.517	816.519	0
1	22102406	219	Low	10.0	Precise	1	4	18	7	3.5	10.3	0.2	4	18	7	3.5	10.3	0.2	2	0.779	0.000	D	18	10.3	817.022	817.994	818.772	818.775	0
1	22102406	220	Low	10.0	Precise	1	4	10	1	3.5	6.0	0.9	10	4	1	6.0	3.5	0.9	1	1.388	0.000	D	4	3.5	819.278	820.481	821.869	821.871	0
1	22102406	221	Low	10.0	Precise	1	4	12	11	3.5	3.7	2.1	4	11	12	3.5	2.1	3.7	2	1.622	0.001	R	12	3.7	822.374	823.687	825.309	825.312	0
1	22102406	222	Low	10.0	Vague	2	12	17	20	3.7	20.4	0.0	17	20	12	20.4	0.0	3.7	2	0.906	0.001	L	17	20.4	825.814	826.707	827.613	827.615	0
1	22102406	223	Low	10.0	Vague	2	10	17	20	6.0	20.4	0.0	10	17	20	6.0	20.4	0.0	2	0.734	0.000	D	17	20.4	828.118	830.031	830.765	830.767	0
1	22102406	224	Low	10.0	Precise	1	15	17	11	4.6	20.4	2.1	15	17	11	4.6	20.4	2.1	2	0.604	0.000	D	17	20.4	831.270	832.480	833.085	833.087	0
1	22102406	225	Low	10.0	Vague	2	15	10	21	4.6	6.0	0.6	10	15	21	6.0	4.6	0.6	1	1.955	0.000	D	15	4.6	833.590	836.097	838.053	838.055	0
1	22102406	226	Low	10.0	Vague	2	15	10	24	4.6	6.0	0.3	10	15	24	6.0	4.6	0.3	1	0.945	0.000	D	15	4.6	838.558	839.196	840.141	840.143	0
1	22102406	227	Low	10.0	Precise	1	12	10	6	3.7	6.0	0.9	12	10	6	3.7	6.0	0.9	1	1.043	0.000	L	12	3.7	840.645	841.737	842.780	842.783	0
1	22102406	228	Low	10.0	Precise	1	18	17	16	10.3	20.4	1.4	16	17	18	1.4	20.4	10.3	2	0.825	0.001	D	17	20.4	843.285	845.012	845.837	845.839	0
1	22102406	229	Low	10.0	Precise	1	15	10	11	4.6	6.0	2.1	11	15	10	2.1	4.6	6.0	1	1.232	0.000	D	15	4.6	846.342	848.981	850.213	850.215	0
1	22102406	230	Low	10.0	Vague	2	10	18	20	6.0	10.3	0.0	18	20	10	10.3	0.0	6.0	2	0.831	0.000	L	18	10.3	850.719	852.014	852.845	852.847	0
1	22102406	231	Low	10.0	Vague	2	15	17	35	4.6	20.4	1.7	35	17	15	1.7	20.4	4.6	2	0.719	0.001	D	17	20.4	853.350	854.478	855.197	855.199	0
1	22102406	232	Low	10.0	Precise	1	4	18	16	3.5	10.3	1.4	16	18	4	1.4	10.3	3.5	2	1.046	0.000	D	18	10.3	855.703	857.071	858.117	858.119	0
1	22102406	233	Low	10.0	Vague	2	4	17	24	3.5	20.4	0.3	17	24	4	20.4	0.3	3.5	2	0.775	0.000	L	17	20.4	858.622	861.477	862.253	862.255	0
1	22102406	234	Low	10.0	Vague	2	12	18	31	3.7	10.3	2.2	31	18	12	2.2	10.3	3.7	2	0.773	0.000	D	18	10.3	862.758	864.655	865.429	865.431	0
1	22102406	235	Low	10.0	Precise	1	18	17	6	10.3	20.4	0.9	17	18	6	20.4	10.3	0.9	2	0.716	0.000	L	17	20.4	865.933	868.145	868.861	868.863	0
1	22102406	236	Low	10.0	Vague	2	4	18	35	3.5	10.3	1.7	4	35	18	3.5	1.7	10.3	2	0.847	0.000	R	18	10.3	869.366	870.046	870.893	870.895	0
1	22102406	237	Low	10.0	Precise	1	10	17	1	6.0	20.4	0.9	1	17	10	0.9	20.4	6.0	2	0.767	0.001	D	17	20.4	871.398	872.406	873.173	873.175	0
1	22102406	238	Low	10.0	Vague	2	4	15	21	3.5	4.6	0.6	21	4	15	0.6	3.5	4.6	2	1.132	0.000	R	15	4.6	873.678	874.880	876.013	876.015	0
1	22102406	239	Low	10.0	Vague	2	15	10	35	4.6	6.0	1.7	15	10	35	4.6	6.0	1.7	1	0.911	0.000	L	15	4.6	876.518	877.358	878.269	878.271	0
1	22102406	240	Low	10.0	Precise	1	4	10	6	3.5	6.0	0.9	4	6	10	3.5	0.9	6.0	1	1.616	0.001	L	4	3.5	878.773	880.445	882.061	882.063	0
1	22102406	241	Low	10.0	Vague	2	4	15	22	3.5	4.6	0.9	4	22	15	3.5	0.9	4.6	2	1.256	0.001	R	15	4.6	894.532	895.173	896.429	896.431	0
1	22102406	242	Low	10.0	Precise	1	4	12	8	3.5	3.7	1.7	8	4	12	1.7	3.5	3.7	2	1.563	0.000	R	12	3.7	896.934	897.858	899.421	899.423	0
1	22102406	243	Low	10.0	Precise	1	18	17	11	10.3	20.4	2.1	11	18	17	2.1	10.3	20.4	2	1.071	0.000	R	17	20.4	899.925	900.830	901.901	901.903	0
1	22102406	244	Low	10.0	Precise	1	15	17	7	4.6	20.4	0.2	15	7	17	4.6	0.2	20.4	2	0.965	0.000	R	17	20.4	902.406	903.016	903.981	903.983	0
1	22102406	245	Low	10.0	Precise	1	12	18	1	3.7	10.3	0.9	18	12	1	10.3	3.7	0.9	2	1.147	0.000	L	18	10.3	904.486	907.226	908.373	908.375	0
1	22102406	246	Low	10.0	Precise	1	4	12	7	3.5	3.7	0.2	12	4	7	3.7	3.5	0.2	2	1.630	0.000	L	12	3.7	908.877	911.303	912.933	912.935	0
1	22102406	247	Low	10.0	Vague	2	18	17	21	10.3	20.4	0.6	21	17	18	0.6	20.4	10.3	2	0.771	0.000	D	17	20.4	913.438	915.474	916.245	916.247	0
1	22102406	248	Low	10.0	Vague	2	4	12	31	3.5	3.7	2.2	12	4	31	3.7	3.5	2.2	2	1.281	0.001	L	12	3.7	916.750	919.068	920.349	920.351	0
1	22102406	249	Low	10.0	Vague	2	12	10	31	3.7	6.0	2.2	10	12	31	6.0	3.7	2.2	1	1.682	0.001	D	12	3.7	920.854	923.467	925.149	925.152	0
1	22102406	250	Low	10.0	Vague	2	12	17	22	3.7	20.4	0.9	12	17	22	3.7	20.4	0.9	2	0.871	0.001	D	17	20.4	925.654	928.078	928.949	928.951	0
1	22102406	251	Low	10.0	Vague	2	4	15	24	3.5	4.6	0.3	15	4	24	4.6	3.5	0.3	2	1.217	0.001	L	15	4.6	929.454	932.108	933.325	933.327	0
1	22102406	252	Low	10.0	Precise	1	12	15	16	3.7	4.6	1.4	15	16	12	4.6	1.4	3.7	1	1.584	0.000	R	12	3.7	933.830	936.068	937.653	937.655	0
1	22102406	253	Low	10.0	Vague	2	12	17	21	3.7	20.4	0.6	21	17	12	0.6	20.4	3.7	2	0.770	0.001	D	17	20.4	938.159	938.675	939.445	939.447	0
1	22102406	254	Low	10.0	Precise	1	4	17	6	3.5	20.4	0.9	4	17	6	3.5	20.4	0.9	2	0.651	0.000	D	17	20.4	939.950	942.586	943.237	943.239	0
1	22102406	255	Low	10.0	Vague	2	12	15	35	3.7	4.6	1.7	35	12	15	1.7	3.7	4.6	1	1.259	0.000	D	12	3.7	943.743	945.649	946.909	946.911	0
1	22102406	256	Low	10.0	Precise	1	18	17	7	10.3	20.4	0.2	18	7	17	10.3	0.2	20.4	2	0.996	0.000	R	17	20.4	947.414	948.873	949.869	949.871	0
1	22102406	257	Low	10.0	Precise	1	15	17	1	4.6	20.4	0.9	15	17	1	4.6	20.4	0.9	2	0.747	0.000	D	17	20.4	950.374	952.066	952.813	952.815	0
1	22102406	258	Low	10.0	Precise	1	4	15	11	3.5	4.6	2.1	15	11	4	4.6	2.1	3.5	2	1.155	0.000	L	15	4.6	953.318	954.810	955.965	955.967	0
1	22102406	259	Low	10.0	Precise	1	10	18	7	6.0	10.3	0.2	10	7	18	6.0	0.2	10.3	2	0.819	0.000	R	18	10.3	956.470	957.266	958.085	958.087	0
1	22102406	260	Low	10.0	Vague	2	12	18	22	3.7	10.3	0.9	12	18	22	3.7	10.3	0.9	2	0.829	0.000	D	18	10.3	958.590	961.464	962.293	962.295	0
1	22102406	261	Low	10.0	Vague	2	12	10	20	3.7	6.0	0.0	10	20	12	6.0	0.0	3.7	1	1.050	0.000	R	12	3.7	962.798	963.586	964.637	964.639	0
1	22102406	262	Low	10.0	Vague	2	4	18	31	3.5	10.3	2.2	4	18	31	3.5	10.3	2.2	2	0.823	0.001	D	18	10.3	965.142	967.166	967.989	967.991	0
1	22102406	263	Low	10.0	Vague	2	4	18	20	3.5	10.3	0.0	18	20	4	10.3	0.0	3.5	2	0.665	0.000	L	18	10.3	968.494	970.636	971.301	971.304	0
1	22102406	264	Low	10.0	Vague	2	4	17	35	3.5	20.4	1.7	17	4	35	20.4	3.5	1.7	2	0.847	0.000	L	17	20.4	971.807	973.734	974.581	974.583	0
1	22102406	265	Low	10.0	Precise	1	18	17	8	10.3	20.4	1.7	18	17	8	10.3	20.4	1.7	2	1.052	0.001	D	17	20.4	975.086	977.953	979.005	979.007	0
1	22102406	266	Low	10.0	Vague	2	10	17	24	6.0	20.4	0.3	24	17	10	0.3	20.4	6.0	2	0.644	0.000	D	17	20.4	979.511	982.281	982.925	982.927	0
1	22102406	267	Low	10.0	Precise	1	10	17	16	6.0	20.4	1.4	10	17	16	6.0	20.4	1.4	2	0.592	0.001	D	17	20.4	983.430	985.733	986.325	986.328	0
1	22102406	268	Low	10.0	Precise	1	15	17	16	4.6	20.4	1.4	16	15	17	1.4	4.6	20.4	2	0.740	0.000	R	17	20.4	986.831	988.001	988.741	988.743	0
1	22102406	269	Low	10.0	Precise	1	12	10	8	3.7	6.0	1.7	8	12	10	1.7	3.7	6.0	1	1.637	0.000	D	12	3.7	989.246	990.503	992.141	992.143	0
1	22102406	270	Low	10.0	Precise	1	4	18	6	3.5	10.3	0.9	18	4	6	10.3	3.5	0.9	2	0.788	0.000	L	18	10.3	992.646	993.569	994.357	994.359	0
1	22102406	271	Low	10.0	Precise	1	12	15	6	3.7	4.6	0.9	12	6	15	3.7	0.9	4.6	1	1.599	0.001	L	12	3.7	994.862	995.454	997.053	997.056	0
1	22102406	272	Low	10.0	Precise	1	15	18	7	4.6	10.3	0.2	15	18	7	4.6	10.3	0.2	2	1.141	0.001	D	18	10.3	997.558	998.296	999.437	999.439	0
1	22102406	273	Low	10.0	Precise	1	15	10	6	4.6	6.0	0.9	15	10	6	4.6	6.0	0.9	1	1.343	0.000	L	15	4.6	999.943	1001.670	1003.013	1003.015	0
1	22102406	274	Low	10.0	Vague	2	4	17	31	3.5	20.4	2.2	4	31	17	3.5	2.2	20.4	2	1.015	0.000	R	17	20.4	1003.517	1004.165	1005.181	1005.183	0
1	22102406	275	Low	10.0	Precise	1	12	17	8	3.7	20.4	1.7	12	8	17	3.7	1.7	20.4	2	0.660	0.001	R	17	20.4	1005.686	1006.433	1007.093	1007.095	0
1	22102406	276	Low	10.0	Vague	2	4	12	20	3.5	3.7	0.0	12	20	4	3.7	0.0	3.5	2	0.926	0.001	L	12	3.7	1007.598	1009.543	1010.469	1010.471	0
1	22102406	277	Low	10.0	Vague	2	15	18	24	4.6	10.3	0.3	18	15	24	10.3	4.6	0.3	2	0.730	0.000	L	18	10.3	1010.974	1013.307	1014.037	1014.039	0
1	22102406	278	Low	10.0	Precise	1	15	18	6	4.6	10.3	0.9	6	15	18	0.9	4.6	10.3	2	0.722	0.001	R	18	10.3	1014.543	1017.523	1018.245	1018.247	0
1	22102406	279	Low	10.0	Precise	1	4	17	11	3.5	20.4	2.1	11	17	4	2.1	20.4	3.5	2	1.124	0.000	D	17	20.4	1018.751	1021.641	1022.765	1022.767	0
1	22102406	280	Low	10.0	Precise	1	4	17	1	3.5	20.4	0.9	1	17	4	0.9	20.4	3.5	2	0.634	0.001	D	17	20.4	1023.270	1024.611	1025.245	1025.248	0
1	22102406	281	Low	10.0	Precise	1	10	18	6	6.0	10.3	0.9	18	6	10	10.3	0.9	6.0	2	0.669	0.000	L	18	10.3	1025.751	1027.257	1027.925	1027.927	0
1	22102406	282	Low	10.0	Vague	2	15	10	20	4.6	6.0	0.0	15	10	20	4.6	6.0	0.0	1	0.816	0.001	L	15	4.6	1028.430	1029.557	1030.373	1030.375	0
1	22102406	283	Low	10.0	Precise	1	15	17	6	4.6	20.4	0.9	17	6	15	20.4	0.9	4.6	2	0.649	0.000	L	17	20.4	1030.878	1032.645	1033.293	1033.295	0
1	22102406	284	Low	10.0	Vague	2	4	10	31	3.5	6.0	2.2	31	4	10	2.2	3.5	6.0	3	1.561	0.000	L	31	2.2	1033.799	1035.668	1037.229	1037.231	0
1	22102406	285	Low	10.0	Precise	1	10	18	8	6.0	10.3	1.7	10	18	8	6.0	10.3	1.7	2	0.993	0.001	D	18	10.3	1037.734	1038.468	1039.461	1039.464	0
1	22102406	286	Low	10.0	Vague	2	12	17	24	3.7	20.4	0.3	12	24	17	3.7	0.3	20.4	2	0.804	0.000	R	17	20.4	1039.967	1042.265	1043.069	1043.071	0
1	22102406	287	Low	10.0	Vague	2	4	10	20	3.5	6.0	0.0	4	10	20	3.5	6.0	0.0	1	1.640	0.000	L	4	3.5	1043.574	1045.005	1046.645	1046.647	0
1	22102406	288	Low	10.0	Precise	1	4	15	1	3.5	4.6	0.9	15	4	1	4.6	3.5	0.9	2	1.435	0.000	L	15	4.6	1047.150	1048.402	1049.837	1049.839	0
1	22102406	289	Low	10.0	Vague	2	4	15	31	3.5	4.6	2.2	15	31	4	4.6	2.2	3.5	2	1.435	0.001	L	15	4.6	1050.342	1051.522	1052.957	1052.960	0
1	22102406	290	Low	10.0	Vague	2	12	17	35	3.7	20.4	1.7	12	35	17	3.7	1.7	20.4	2	0.746	0.000	R	17	20.4	1053.462	1054.323	1055.069	1055.071	0
1	22102406	291	Low	10.0	Precise	1	4	18	1	3.5	10.3	0.9	18	1	4	10.3	0.9	3.5	2	1.254	0.000	L	18	10.3	1055.574	1056.543	1057.797	1057.799	0
1	22102406	292	Low	10.0	Vague	2	18	17	24	10.3	20.4	0.3	17	24	18	20.4	0.3	10.3	2	0.604	0.000	L	17	20.4	1058.302	1060.297	1060.901	1060.903	0
1	22102406	293	Low	10.0	Precise	1	15	10	7	4.6	6.0	0.2	15	10	7	4.6	6.0	0.2	1	1.352	0.000	L	15	4.6	1061.406	1062.893	1064.245	1064.247	0
1	22102406	294	Low	10.0	Vague	2	10	17	21	6.0	20.4	0.6	10	21	17	6.0	0.6	20.4	2	0.731	0.000	R	17	20.4	1064.750	1066.650	1067.381	1067.383	0
1	22102406	295	Low	10.0	Vague	2	4	10	35	3.5	6.0	1.7	4	35	10	3.5	1.7	6.0	1	1.692	0.000	L	4	3.5	1067.887	1069.305	1070.997	1070.999	0
1	22102406	296	Low	10.0	Precise	1	4	18	11	3.5	10.3	2.1	18	4	11	10.3	3.5	2.1	2	1.305	0.000	L	18	10.3	1071.502	1072.636	1073.941	1073.943	0
1	22102406	297	Low	10.0	Precise	1	12	17	6	3.7	20.4	0.9	17	6	12	20.4	0.9	3.7	2	0.570	0.001	L	17	20.4	1074.447	1077.243	1077.813	1077.816	0
1	22102406	298	Low	10.0	Precise	1	4	10	8	3.5	6.0	1.7	10	4	8	6.0	3.5	1.7	1	1.088	0.001	D	4	3.5	1078.319	1081.157	1082.245	1082.248	0
1	22102406	299	Low	10.0	Precise	1	4	17	16	3.5	20.4	1.4	4	17	16	3.5	20.4	1.4	2	0.857	0.000	D	17	20.4	1082.751	1083.652	1084.509	1084.511	0
1	22102406	300	Low	10.0	Vague	2	12	15	31	3.7	4.6	2.2	12	31	15	3.7	2.2	4.6	1	1.427	0.001	L	12	3.7	1085.014	1085.514	1086.941	1086.943	0
1	22102406	301	Low	10.0	Precise	1	4	10	11	3.5	6.0	2.1	11	4	10	2.1	3.5	6.0	1	1.492	0.000	D	4	3.5	1104.733	1105.969	1107.461	1107.463	0
1	22102406	302	Low	10.0	Vague	2	12	15	20	3.7	4.6	0.0	12	20	15	3.7	0.0	4.6	1	0.985	0.001	L	12	3.7	1107.967	1108.668	1109.653	1109.655	0
1	22102406	303	Low	10.0	Vague	2	12	18	21	3.7	10.3	0.6	21	18	12	0.6	10.3	3.7	2	0.783	0.000	D	18	10.3	1110.159	1112.958	1113.741	1113.743	0
1	22102406	304	Low	10.0	Precise	1	4	10	16	3.5	6.0	1.4	16	4	10	1.4	3.5	6.0	1	1.685	0.001	D	4	3.5	1114.247	1116.785	1118.469	1118.472	0
1	22102406	305	Low	10.0	Vague	2	4	10	21	3.5	6.0	0.6	21	4	10	0.6	3.5	6.0	1	1.112	0.000	D	4	3.5	1118.975	1120.805	1121.917	1121.919	0
1	22102406	306	Low	10.0	Precise	1	4	12	16	3.5	3.7	1.4	4	12	16	3.5	3.7	1.4	2	1.492	0.000	D	12	3.7	1122.423	1122.961	1124.453	1124.455	0
1	22102406	307	Low	10.0	Vague	2	15	18	31	4.6	10.3	2.2	31	18	15	2.2	10.3	4.6	2	0.922	0.000	D	18	10.3	1124.958	1125.899	1126.821	1126.824	0
1	22102406	308	Low	10.0	Vague	2	12	10	24	3.7	6.0	0.3	10	12	24	6.0	3.7	0.3	1	0.912	0.000	D	12	3.7	1127.326	1127.909	1128.821	1128.823	0
1	22102406	309	Low	10.0	Precise	1	15	18	8	4.6	10.3	1.7	15	8	18	4.6	1.7	10.3	2	1.111	0.000	R	18	10.3	1129.326	1132.270	1133.381	1133.383	0
1	22102406	310	Low	10.0	Precise	1	10	17	6	6.0	20.4	0.9	6	10	17	0.9	6.0	20.4	2	0.765	0.000	R	17	20.4	1133.886	1135.001	1135.765	1135.767	0
1	22102406	311	Low	10.0	Vague	2	12	18	20	3.7	10.3	0.0	12	18	20	3.7	10.3	0.0	2	0.734	0.000	D	18	10.3	1136.270	1138.839	1139.573	1139.575	0
1	22102406	312	Low	10.0	Vague	2	15	10	31	4.6	6.0	2.2	31	15	10	2.2	4.6	6.0	1	2.137	0.001	D	15	4.6	1140.079	1142.300	1144.437	1144.440	0
1	22102406	313	Low	10.0	Vague	2	15	17	20	4.6	20.4	0.0	17	20	15	20.4	0.0	4.6	2	0.652	0.001	L	17	20.4	1144.942	1146.257	1146.909	1146.912	0
1	22102406	314	Low	10.0	Precise	1	12	17	7	3.7	20.4	0.2	12	17	7	3.7	20.4	0.2	2	0.657	0.000	D	17	20.4	1147.414	1149.516	1150.173	1150.175	0
1	22102406	315	Low	10.0	Precise	1	12	18	7	3.7	10.3	0.2	18	12	7	10.3	3.7	0.2	2	1.027	0.001	L	18	10.3	1150.679	1151.698	1152.725	1152.728	0
1	22102406	316	Low	10.0	Precise	1	15	18	1	4.6	10.3	0.9	15	1	18	4.6	0.9	10.3	2	0.711	0.001	R	18	10.3	1153.231	1154.606	1155.317	1155.320	0
1	22102406	317	Low	10.0	Vague	2	10	18	22	6.0	10.3	0.9	22	10	18	0.9	6.0	10.3	2	0.757	0.000	R	18	10.3	1155.823	1157.032	1157.789	1157.791	0
1	22102406	318	Low	10.0	Precise	1	12	15	7	3.7	4.6	0.2	7	12	15	0.2	3.7	4.6	1	1.816	0.000	D	12	3.7	1158.295	1161.021	1162.837	1162.840	0
1	22102406	319	Low	10.0	Precise	1	15	10	1	4.6	6.0	0.9	1	15	10	0.9	4.6	6.0	1	0.978	0.001	D	15	4.6	1163.343	1164.508	1165.485	1165.488	0
1	22102406	320	Low	10.0	Vague	2	12	10	21	3.7	6.0	0.6	12	10	21	3.7	6.0	0.6	1	1.023	0.000	L	12	3.7	1165.991	1168.950	1169.973	1169.975	0
1	22102406	321	Low	10.0	Vague	2	4	10	22	3.5	6.0	0.9	10	4	22	6.0	3.5	0.9	1	1.450	0.000	D	4	3.5	1170.478	1172.620	1174.069	1174.072	0
1	22102406	322	Low	10.0	Precise	1	12	17	1	3.7	20.4	0.9	12	17	1	3.7	20.4	0.9	2	0.823	0.001	D	17	20.4	1174.575	1176.463	1177.285	1177.288	0
1	22102406	323	Low	10.0	Vague	2	12	18	24	3.7	10.3	0.3	24	18	12	0.3	10.3	3.7	2	0.791	0.000	D	18	10.3	1177.790	1178.798	1179.589	1179.592	0
1	22102406	324	Low	10.0	Precise	1	12	15	8	3.7	4.6	1.7	15	8	12	4.6	1.7	3.7	1	1.369	0.001	R	12	3.7	1180.094	1180.604	1181.973	1181.976	0
1	22102406	325	Low	10.0	Precise	1	4	17	7	3.5	20.4	0.2	4	17	7	3.5	20.4	0.2	2	0.662	0.000	D	17	20.4	1182.479	1184.199	1184.861	1184.863	0
1	22102406	326	Low	10.0	Precise	1	10	17	8	6.0	20.4	1.7	10	17	8	6.0	20.4	1.7	2	0.602	0.000	D	17	20.4	1185.366	1187.811	1188.413	1188.416	0
1	22102406	327	Low	10.0	Precise	1	15	18	11	4.6	10.3	2.1	11	18	15	2.1	10.3	4.6	2	0.975	0.000	D	18	10.3	1188.919	1189.830	1190.805	1190.808	0
1	22102406	328	Low	10.0	Vague	2	10	17	31	6.0	20.4	2.2	10	17	31	6.0	20.4	2.2	2	0.669	0.001	D	17	20.4	1191.311	1192.257	1192.925	1192.928	0
1	22102406	329	Low	10.0	Vague	2	15	18	22	4.6	10.3	0.9	22	18	15	0.9	10.3	4.6	2	0.748	0.001	D	18	10.3	1193.430	1194.473	1195.221	1195.224	0
1	22102406	330	Low	10.0	Precise	1	12	18	8	3.7	10.3	1.7	12	18	8	3.7	10.3	1.7	2	0.742	0.000	D	18	10.3	1195.727	1196.647	1197.389	1197.392	0
1	22102406	331	Low	10.0	Precise	1	18	17	1	10.3	20.4	0.9	17	18	1	20.4	10.3	0.9	2	0.909	0.001	L	17	20.4	1197.894	1199.825	1200.733	1200.736	0
1	22102406	332	Low	10.0	Vague	2	18	17	22	10.3	20.4	0.9	22	18	17	0.9	10.3	20.4	2	0.757	0.000	R	17	20.4	1201.238	1201.832	1202.589	1202.591	0
1	22102406	333	Low	10.0	Precise	1	12	15	11	3.7	4.6	2.1	11	15	12	2.1	4.6	3.7	1	1.485	0.000	R	12	3.7	1203.095	1205.464	1206.949	1206.952	0
1	22102406	334	Low	10.0	Vague	2	4	15	35	3.5	4.6	1.7	35	15	4	1.7	4.6	3.5	2	1.199	0.001	D	15	4.6	1207.455	1209.566	1210.765	1210.768	0
1	22102406	335	Low	10.0	Vague	2	10	18	35	6.0	10.3	1.7	35	18	10	1.7	10.3	6.0	2	0.875	0.000	D	18	10.3	1211.271	1212.370	1213.245	1213.248	0
1	22102406	336	Low	10.0	Precise	1	4	18	8	3.5	10.3	1.7	4	8	18	3.5	1.7	10.3	2	0.742	0.000	R	18	10.3	1213.750	1215.295	1216.037	1216.039	0
1	22102406	337	Low	10.0	Vague	2	4	18	22	3.5	10.3	0.9	4	22	18	3.5	0.9	10.3	2	0.827	0.001	R	18	10.3	1216.543	1217.459	1218.285	1218.288	0
1	22102406	338	Low	10.0	Precise	1	4	12	1	3.5	3.7	0.9	4	1	12	3.5	0.9	3.7	2	0.935	0.000	R	12	3.7	1218.791	1219.734	1220.669	1220.671	0
1	22102406	339	Low	10.0	Precise	1	4	10	7	3.5	6.0	0.2	7	10	4	0.2	6.0	3.5	1	1.498	0.001	R	4	3.5	1221.174	1222.100	1223.597	1223.600	0
1	22102406	340	Low	10.0	Precise	1	15	10	8	4.6	6.0	1.7	8	15	10	1.7	4.6	6.0	1	2.229	0.000	D	15	4.6	1224.102	1226.192	1228.421	1228.424	0
1	22102406	341	Low	10.0	Vague	2	15	17	21	4.6	20.4	0.6	15	21	17	4.6	0.6	20.4	2	0.688	0.001	R	17	20.4	1228.927	1230.462	1231.149	1231.152	0
1	22102406	342	Low	10.0	Vague	2	4	15	20	3.5	4.6	0.0	20	4	15	0.0	3.5	4.6	2	1.245	0.000	R	15	4.6	1231.655	1232.192	1233.437	1233.440	0
1	22102406	343	Low	10.0	Precise	1	10	17	11	6.0	20.4	2.1	11	17	10	2.1	20.4	6.0	2	0.825	0.000	D	17	20.4	1233.943	1234.756	1235.581	1235.584	0
1	22102406	344	Low	10.0	Vague	2	10	17	35	6.0	20.4	1.7	10	17	35	6.0	20.4	1.7	2	0.588	0.000	D	17	20.4	1236.087	1238.745	1239.333	1239.335	0
1	22102406	345	Low	10.0	Precise	1	15	18	16	4.6	10.3	1.4	18	15	16	10.3	4.6	1.4	2	0.924	0.000	L	18	10.3	1239.838	1242.057	1242.981	1242.983	0
1	22102406	346	Low	10.0	Vague	2	10	18	21	6.0	10.3	0.6	18	10	21	10.3	6.0	0.6	2	0.697	0.001	L	18	10.3	1243.487	1244.380	1245.077	1245.080	0
1	22102406	347	Low	10.0	Vague	2	18	17	35	10.3	20.4	1.7	35	18	17	1.7	10.3	20.4	2	0.589	0.000	R	17	20.4	1245.583	1248.144	1248.733	1248.735	0
1	22102406	348	Low	10.0	Vague	2	15	17	31	4.6	20.4	2.2	31	17	15	2.2	20.4	4.6	2	0.654	0.000	D	17	20.4	1249.238	1251.048	1251.701	1251.704	0
1	22102406	349	Low	10.0	Precise	1	12	17	11	3.7	20.4	2.1	12	11	17	3.7	2.1	20.4	2	0.551	0.001	R	17	20.4	1252.207	1253.950	1254.501	1254.504	0
1	22102406	350	Low	10.0	Precise	1	15	17	8	4.6	20.4	1.7	15	17	8	4.6	20.4	1.7	2	0.612	0.001	D	17	20.4	1255.006	1257.266	1257.877	1257.880	0
1	22102406	351	Low	10.0	Vague	2	15	18	21	4.6	10.3	0.6	21	15	18	0.6	4.6	10.3	2	0.720	0.001	R	18	10.3	1258.384	1259.325	1260.045	1260.048	0
1	22102406	352	Low	10.0	Vague	2	4	18	24	3.5	10.3	0.3	18	24	4	10.3	0.3	3.5	2	0.833	0.000	L	18	10.3	1260.551	1261.724	1262.557	1262.559	0
1	22102406	353	Low	10.0	Precise	1	4	15	16	3.5	4.6	1.4	15	4	16	4.6	3.5	1.4	2	1.442	0.001	L	15	4.6	1263.062	1265.091	1266.533	1266.536	0
1	22102406	354	Low	10.0	Vague	2	12	18	35	3.7	10.3	1.7	18	35	12	10.3	1.7	3.7	2	0.767	0.000	L	18	10.3	1267.039	1269.278	1270.045	1270.047	0
1	22102406	355	Low	10.0	Precise	1	4	15	8	3.5	4.6	1.7	4	15	8	3.5	4.6	1.7	2	2.202	0.000	D	15	4.6	1270.550	1273.515	1275.717	1275.720	0
1	22102406	356	Low	10.0	Precise	1	12	10	7	3.7	6.0	0.2	12	10	7	3.7	6.0	0.2	1	1.498	0.001	L	12	3.7	1276.223	1278.700	1280.197	1280.200	0
1	22102406	357	Low	10.0	Vague	2	18	17	20	10.3	20.4	0.0	20	17	18	0.0	20.4	10.3	2	0.778	0.000	D	17	20.4	1280.702	1283.515	1284.293	1284.296	0
1	22102406	358	Low	10.0	Vague	2	4	18	21	3.5	10.3	0.6	18	21	4	10.3	0.6	3.5	2	0.714	0.000	L	18	10.3	1284.799	1286.987	1287.701	1287.704	0
1	22102406	359	Low	10.0	Precise	1	4	12	6	3.5	3.7	0.9	6	12	4	0.9	3.7	3.5	2	0.962	0.001	D	12	3.7	1288.206	1290.139	1291.101	1291.104	0
1	22102406	360	Low	10.0	Vague	2	12	10	22	3.7	6.0	0.9	12	22	10	3.7	0.9	6.0	1	1.231	0.000	L	12	3.7	1291.607	1294.574	1295.805	1295.808	0
