Group	subID	trial	TimePressure	TimeConstraint	Vagueness	Vaguenesscode	ID1	ID2	ID3	V1	V2	V3	ID_left	ID_middle	ID_right	Bid_left	Bid_middle	Bid_right	chosenItem	RT	RTvariance	chosenPosition	chosenID	chosenValue	fixation_time	option_time	choice_time	feedback_time	timeout
1	22072001	1	Low	10.0	Vague	2	18	8	36	0.8	2.5	0.4	36	8	18	0.4	2.5	0.8	2	2.608	0.000	D	8	2.5	7.280	9.805	12.414	12.417	0
1	22072001	2	Low	10.0	Precise	1	3	15	6	0.8	1.4	0.2	15	3	6	1.4	0.8	0.2	1	2.775	0.000	D	3	0.8	12.921	14.550	17.326	17.329	0
1	22072001	3	Low	10.0	Precise	1	1	11	7	2.1	3.9	0.4	1	7	11	2.1	0.4	3.9	1	1.884	0.000	L	1	2.1	17.833	18.385	20.269	20.272	0
1	22072001	4	Low	10.0	Vague	2	1	8	19	2.1	2.5	0.4	19	8	1	0.4	2.5	2.1	2	2.281	0.001	D	8	2.5	20.777	23.333	25.614	25.617	0
1	22072001	5	Low	10.0	Vague	2	3	1	19	0.8	2.1	0.4	1	19	3	2.1	0.4	0.8	2	1.696	0.000	L	1	2.1	26.120	28.477	30.173	30.178	0
1	22072001	6	Low	10.0	Precise	1	18	15	10	0.8	1.4	0.5	10	15	18	0.5	1.4	0.8	1	4.267	0.001	R	18	0.8	30.689	32.323	36.590	36.593	0
1	22072001	7	Low	10.0	Precise	1	3	11	16	0.8	3.9	0.8	16	11	3	0.8	3.9	0.8	3	2.316	0.000	L	16	0.8	37.095	39.345	41.662	41.664	0
1	22072001	8	Low	10.0	Precise	1	3	15	12	0.8	1.4	0.5	12	15	3	0.5	1.4	0.8	1	2.411	0.000	R	3	0.8	42.167	44.851	47.262	47.264	0
1	22072001	9	Low	10.0	Precise	1	8	11	12	2.5	3.9	0.5	12	8	11	0.5	2.5	3.9	2	2.972	0.000	R	11	3.9	47.767	50.482	53.454	53.456	0
1	22072001	10	Low	10.0	Vague	2	15	11	36	1.4	3.9	0.4	15	11	36	1.4	3.9	0.4	2	1.787	0.000	D	11	3.9	53.959	56.130	57.917	57.920	0
1	22072001	11	Low	10.0	Precise	1	1	8	6	2.1	2.5	0.2	8	6	1	2.5	0.2	2.1	1	2.466	0.000	R	1	2.1	58.423	59.884	62.350	62.352	0
1	22072001	12	Low	10.0	Precise	1	18	3	10	0.8	0.8	0.5	18	10	3	0.8	0.5	0.8	3	2.030	0.000	D	10	0.5	62.855	64.432	66.462	66.464	0
1	22072001	13	Low	10.0	Vague	2	18	3	20	0.8	0.8	0.5	3	20	18	0.8	0.5	0.8	3	2.502	0.000	D	20	0.5	66.967	69.400	71.902	71.904	0
1	22072001	14	Low	10.0	Precise	1	18	1	6	0.8	2.1	0.2	1	18	6	2.1	0.8	0.2	1	2.139	0.001	D	18	0.8	72.407	75.075	77.214	77.216	0
1	22072001	15	Low	10.0	Vague	2	18	15	35	0.8	1.4	0.3	35	15	18	0.3	1.4	0.8	1	2.536	0.001	R	18	0.8	77.719	79.558	82.094	82.096	0
1	22072001	16	Low	10.0	Vague	2	3	8	28	0.8	2.5	0.7	3	28	8	0.8	0.7	2.5	2	1.358	0.001	R	8	2.5	82.599	85.328	86.686	86.688	0
1	22072001	17	Low	10.0	Precise	1	15	8	6	1.4	2.5	0.2	15	6	8	1.4	0.2	2.5	2	1.598	0.000	R	8	2.5	87.190	88.352	89.950	89.952	0
1	22072001	18	Low	10.0	Vague	2	3	1	20	0.8	2.1	0.5	3	1	20	0.8	2.1	0.5	3	1.582	0.000	R	20	0.5	90.455	92.399	93.981	93.984	0
1	22072001	19	Low	10.0	Vague	2	18	1	28	0.8	2.1	0.7	18	28	1	0.8	0.7	2.1	1	2.070	0.000	L	18	0.8	94.487	96.839	98.909	98.912	0
1	22072001	20	Low	10.0	Vague	2	18	15	20	0.8	1.4	0.5	15	18	20	1.4	0.8	0.5	3	2.071	0.001	R	20	0.5	99.415	101.735	103.806	103.808	0
1	22072001	21	Low	10.0	Vague	2	3	11	36	0.8	3.9	0.4	3	11	36	0.8	3.9	0.4	2	1.909	0.000	D	11	3.9	104.311	105.193	107.102	107.104	0
1	22072001	22	Low	10.0	Precise	1	3	11	7	0.8	3.9	0.4	7	3	11	0.4	0.8	3.9	2	1.864	0.000	R	11	3.9	107.606	109.413	111.277	111.280	0
1	22072001	23	Low	10.0	Precise	1	1	8	7	2.1	2.5	0.4	7	8	1	0.4	2.5	2.1	2	1.618	0.001	D	8	2.5	111.782	113.643	115.262	115.264	0
1	22072001	24	Low	10.0	Precise	1	18	3	7	0.8	0.8	0.4	18	3	7	0.8	0.8	0.4	1	1.632	0.000	L	18	0.8	115.767	117.533	119.165	119.168	0
1	22072001	25	Low	10.0	Vague	2	18	1	19	0.8	2.1	0.4	19	18	1	0.4	0.8	2.1	1	2.333	0.000	D	18	0.8	119.671	120.688	123.022	123.024	0
1	22072001	26	Low	10.0	Precise	1	18	15	16	0.8	1.4	0.8	16	15	18	0.8	1.4	0.8	3	1.600	0.000	L	16	0.8	123.527	125.149	126.749	126.752	0
1	22072001	27	Low	10.0	Precise	1	18	15	6	0.8	1.4	0.2	15	18	6	1.4	0.8	0.2	1	1.557	0.000	D	18	0.8	127.254	127.801	129.357	129.360	0
1	22072001	28	Low	10.0	Precise	1	18	8	6	0.8	2.5	0.2	8	6	18	2.5	0.2	0.8	2	1.761	0.000	L	8	2.5	129.863	132.045	133.806	133.808	0
1	22072001	29	Low	10.0	Precise	1	15	11	7	1.4	3.9	0.4	15	11	7	1.4	3.9	0.4	2	1.676	0.000	D	11	3.9	134.310	136.434	138.110	138.112	0
1	22072001	30	Low	10.0	Vague	2	1	11	19	2.1	3.9	0.4	19	11	1	0.4	3.9	2.1	2	1.619	0.000	D	11	3.9	138.615	140.474	142.094	142.097	0
1	22072001	31	Low	10.0	Precise	1	18	1	16	0.8	2.1	0.8	1	16	18	2.1	0.8	0.8	3	1.463	0.000	D	16	0.8	142.600	145.175	146.638	146.640	0
1	22072001	32	Low	10.0	Precise	1	1	11	2	2.1	3.9	0.4	2	11	1	0.4	3.9	2.1	1	2.083	0.000	R	1	2.1	147.143	150.075	152.158	152.160	0
1	22072001	33	Low	10.0	Precise	1	8	11	16	2.5	3.9	0.8	8	11	16	2.5	3.9	0.8	3	1.953	0.000	R	16	0.8	152.663	154.524	156.477	156.481	0
1	22072001	34	Low	10.0	Vague	2	8	11	35	2.5	3.9	0.3	8	11	35	2.5	3.9	0.3	1	1.569	0.000	L	8	2.5	156.984	159.149	160.718	160.720	0
1	22072001	35	Low	10.0	Precise	1	3	8	7	0.8	2.5	0.4	8	7	3	2.5	0.4	0.8	2	1.667	0.000	L	8	2.5	161.223	163.434	165.102	165.104	0
1	22072001	36	Low	10.0	Precise	1	18	11	7	0.8	3.9	0.4	11	18	7	3.9	0.8	0.4	1	2.740	0.000	D	18	0.8	165.607	166.186	168.926	168.928	0
1	22072001	37	Low	10.0	Precise	1	15	8	12	1.4	2.5	0.5	8	12	15	2.5	0.5	1.4	2	1.335	0.000	L	8	2.5	169.431	171.782	173.117	173.120	0
1	22072001	38	Low	10.0	Vague	2	3	1	26	0.8	2.1	0.6	26	1	3	0.6	2.1	0.8	2	1.770	0.000	D	1	2.1	173.623	174.148	175.918	175.920	0
1	22072001	39	Low	10.0	Precise	1	18	11	12	0.8	3.9	0.5	18	11	12	0.8	3.9	0.5	1	1.665	0.000	L	18	0.8	176.423	179.372	181.037	181.040	0
1	22072001	40	Low	10.0	Precise	1	18	15	2	0.8	1.4	0.4	15	18	2	1.4	0.8	0.4	1	1.131	0.001	D	18	0.8	181.542	182.771	183.902	183.904	0
1	22072001	41	Low	10.0	Precise	1	15	8	10	1.4	2.5	0.5	10	8	15	0.5	2.5	1.4	3	1.255	0.000	L	10	0.5	184.407	185.927	187.182	187.184	0
1	22072001	42	Low	10.0	Vague	2	1	11	36	2.1	3.9	0.4	11	1	36	3.9	2.1	0.4	2	1.897	0.000	L	11	3.9	187.687	189.844	191.741	191.744	0
1	22072001	43	Low	10.0	Vague	2	15	11	26	1.4	3.9	0.6	11	15	26	3.9	1.4	0.6	2	1.512	0.000	L	11	3.9	192.247	194.966	196.478	196.480	0
1	22072001	44	Low	10.0	Precise	1	18	1	10	0.8	2.1	0.5	18	1	10	0.8	2.1	0.5	3	1.602	0.000	R	10	0.5	196.983	199.899	201.502	201.504	0
1	22072001	45	Low	10.0	Vague	2	3	8	35	0.8	2.5	0.3	3	8	35	0.8	2.5	0.3	2	2.485	0.000	D	8	2.5	202.007	202.729	205.214	205.216	0
1	22072001	46	Low	10.0	Precise	1	18	8	16	0.8	2.5	0.8	18	16	8	0.8	0.8	2.5	3	1.679	0.000	D	16	0.8	205.719	207.839	209.517	209.520	0
1	22072001	47	Low	10.0	Vague	2	8	11	36	2.5	3.9	0.4	8	36	11	2.5	0.4	3.9	1	1.234	0.000	L	8	2.5	210.023	210.748	211.981	211.984	0
1	22072001	48	Low	10.0	Precise	1	1	11	6	2.1	3.9	0.2	11	1	6	3.9	2.1	0.2	2	1.499	0.000	L	11	3.9	212.487	214.931	216.430	216.432	0
1	22072001	49	Low	10.0	Vague	2	18	8	19	0.8	2.5	0.4	8	18	19	2.5	0.8	0.4	1	1.795	0.000	D	18	0.8	216.935	217.850	219.645	219.648	0
1	22072001	50	Low	10.0	Precise	1	8	11	6	2.5	3.9	0.2	11	8	6	3.9	2.5	0.2	2	2.980	0.000	L	11	3.9	220.150	221.690	224.670	224.672	0
1	22072001	51	Low	10.0	Vague	2	18	8	26	0.8	2.5	0.6	26	18	8	0.6	0.8	2.5	1	1.391	0.000	D	18	0.8	225.175	227.535	228.925	228.928	0
1	22072001	52	Low	10.0	Vague	2	18	11	20	0.8	3.9	0.5	20	11	18	0.5	3.9	0.8	3	1.396	0.000	L	20	0.5	229.430	230.234	231.630	231.632	0
1	22072001	53	Low	10.0	Vague	2	18	11	26	0.8	3.9	0.6	18	11	26	0.8	3.9	0.6	1	2.079	0.001	L	18	0.8	232.135	234.159	236.238	236.240	0
1	22072001	54	Low	10.0	Precise	1	1	11	16	2.1	3.9	0.8	1	16	11	2.1	0.8	3.9	3	1.230	0.001	D	16	0.8	236.743	239.280	240.510	240.512	0
1	22072001	55	Low	10.0	Vague	2	15	1	19	1.4	2.1	0.4	1	19	15	2.1	0.4	1.4	2	1.769	0.000	L	1	2.1	241.016	243.748	245.517	245.520	0
1	22072001	56	Low	10.0	Vague	2	18	1	20	0.8	2.1	0.5	20	1	18	0.5	2.1	0.8	3	1.031	0.000	L	20	0.5	246.022	248.455	249.486	249.488	0
1	22072001	57	Low	10.0	Precise	1	3	15	7	0.8	1.4	0.4	7	15	3	0.4	1.4	0.8	2	1.346	0.000	D	15	1.4	249.991	251.644	252.990	252.992	0
1	22072001	58	Low	10.0	Precise	1	8	11	2	2.5	3.9	0.4	2	8	11	0.4	2.5	3.9	2	1.413	0.000	R	11	3.9	253.494	254.793	256.205	256.208	0
1	22072001	59	Low	10.0	Precise	1	3	15	10	0.8	1.4	0.5	10	3	15	0.5	0.8	1.4	3	0.987	0.001	L	10	0.5	256.711	257.619	258.606	258.608	0
1	22072001	60	Low	10.0	Vague	2	15	1	36	1.4	2.1	0.4	1	15	36	2.1	1.4	0.4	2	1.373	0.000	L	1	2.1	259.111	261.521	262.894	262.896	0
1	22072001	61	Low	10.0	Vague	2	1	8	20	2.1	2.5	0.5	1	20	8	2.1	0.5	2.5	3	2.086	0.000	D	20	0.5	271.467	273.384	275.470	275.472	0
1	22072001	62	Low	10.0	Vague	2	15	1	20	1.4	2.1	0.5	20	1	15	0.5	2.1	1.4	3	1.595	0.001	L	20	0.5	275.975	277.474	279.070	279.072	0
1	22072001	63	Low	10.0	Precise	1	18	8	7	0.8	2.5	0.4	7	18	8	0.4	0.8	2.5	2	2.427	0.000	R	8	2.5	279.575	282.434	284.862	284.865	0
1	22072001	64	Low	10.0	Precise	1	8	11	10	2.5	3.9	0.5	10	11	8	0.5	3.9	2.5	3	2.166	0.000	L	10	0.5	285.367	286.615	288.781	288.784	0
1	22072001	65	Low	10.0	Vague	2	1	8	35	2.1	2.5	0.3	1	8	35	2.1	2.5	0.3	2	1.560	0.000	D	8	2.5	289.287	291.877	293.438	293.440	0
1	22072001	66	Low	10.0	Vague	2	18	3	19	0.8	0.8	0.4	19	18	3	0.4	0.8	0.8	1	1.365	0.000	D	18	0.8	293.943	295.561	296.926	296.928	0
1	22072001	67	Low	10.0	Vague	2	15	8	36	1.4	2.5	0.4	36	15	8	0.4	1.4	2.5	2	1.453	0.000	R	8	2.5	297.431	298.737	300.189	300.192	0
1	22072001	68	Low	10.0	Precise	1	15	1	10	1.4	2.1	0.5	15	1	10	1.4	2.1	0.5	3	1.264	0.000	R	10	0.5	300.694	301.949	303.213	303.216	0
1	22072001	69	Low	10.0	Precise	1	15	1	2	1.4	2.1	0.4	15	2	1	1.4	0.4	2.1	2	2.466	0.000	R	1	2.1	303.719	305.180	307.646	307.648	0
1	22072001	70	Low	10.0	Vague	2	3	11	20	0.8	3.9	0.5	11	20	3	3.9	0.5	0.8	2	1.364	0.000	L	11	3.9	308.151	309.466	310.830	310.832	0
1	22072001	71	Low	10.0	Precise	1	3	8	12	0.8	2.5	0.5	3	8	12	0.8	2.5	0.5	2	1.400	0.001	D	8	2.5	311.334	313.350	314.750	314.753	0
1	22072001	72	Low	10.0	Vague	2	18	8	35	0.8	2.5	0.3	18	35	8	0.8	0.3	2.5	2	0.859	0.000	R	8	2.5	315.255	317.427	318.286	318.288	0
1	22072001	73	Low	10.0	Precise	1	1	8	2	2.1	2.5	0.4	1	2	8	2.1	0.4	2.5	1	1.512	0.000	L	1	2.1	318.791	321.061	322.573	322.576	0
1	22072001	74	Low	10.0	Vague	2	18	11	28	0.8	3.9	0.7	11	18	28	3.9	0.8	0.7	1	2.235	0.000	D	18	0.8	323.079	324.435	326.670	326.672	0
1	22072001	75	Low	10.0	Vague	2	15	8	28	1.4	2.5	0.7	28	15	8	0.7	1.4	2.5	2	1.564	0.000	R	8	2.5	327.175	330.130	331.693	331.696	0
1	22072001	76	Low	10.0	Precise	1	3	11	6	0.8	3.9	0.2	3	11	6	0.8	3.9	0.2	2	1.555	0.001	D	11	3.9	332.198	333.498	335.054	335.056	0
1	22072001	77	Low	10.0	Vague	2	18	1	36	0.8	2.1	0.4	18	36	1	0.8	0.4	2.1	1	1.331	0.000	L	18	0.8	335.559	337.275	338.606	338.608	0
1	22072001	78	Low	10.0	Precise	1	18	1	7	0.8	2.1	0.4	18	7	1	0.8	0.4	2.1	1	1.780	0.001	L	18	0.8	339.111	342.058	343.838	343.840	0
1	22072001	79	Low	10.0	Precise	1	18	1	12	0.8	2.1	0.5	18	12	1	0.8	0.5	2.1	2	2.159	0.001	R	1	2.1	344.343	345.566	347.726	347.728	0
1	22072001	80	Low	10.0	Vague	2	3	1	28	0.8	2.1	0.7	28	3	1	0.7	0.8	2.1	2	1.228	0.000	R	1	2.1	348.231	349.762	350.990	350.992	0
1	22072001	81	Low	10.0	Precise	1	1	11	10	2.1	3.9	0.5	10	11	1	0.5	3.9	2.1	3	0.835	0.001	L	10	0.5	351.494	352.970	353.806	353.809	0
1	22072001	82	Low	10.0	Precise	1	3	11	12	0.8	3.9	0.5	3	12	11	0.8	0.5	3.9	2	1.598	0.000	R	11	3.9	354.312	356.960	358.558	358.560	0
1	22072001	83	Low	10.0	Vague	2	8	11	19	2.5	3.9	0.4	19	11	8	0.4	3.9	2.5	2	1.664	0.000	D	11	3.9	359.063	361.741	363.406	363.408	0
1	22072001	84	Low	10.0	Vague	2	8	11	26	2.5	3.9	0.6	11	26	8	3.9	0.6	2.5	1	1.677	0.000	R	8	2.5	363.911	365.345	367.022	367.024	0
1	22072001	85	Low	10.0	Vague	2	3	15	26	0.8	1.4	0.6	3	26	15	0.8	0.6	1.4	1	2.617	0.000	L	3	0.8	367.526	368.757	371.374	371.376	0
1	22072001	86	Low	10.0	Vague	2	15	8	19	1.4	2.5	0.4	8	19	15	2.5	0.4	1.4	2	1.978	0.000	L	8	2.5	371.879	373.235	375.213	375.216	0
1	22072001	87	Low	10.0	Vague	2	1	11	26	2.1	3.9	0.6	11	26	1	3.9	0.6	2.1	2	1.587	0.000	L	11	3.9	375.719	378.379	379.966	379.968	0
1	22072001	88	Low	10.0	Vague	2	18	3	28	0.8	0.8	0.7	18	3	28	0.8	0.8	0.7	1	1.431	0.000	L	18	0.8	380.471	382.855	384.286	384.288	0
1	22072001	89	Low	10.0	Precise	1	15	11	2	1.4	3.9	0.4	15	11	2	1.4	3.9	0.4	2	1.138	0.000	D	11	3.9	384.791	385.435	386.573	386.576	0
1	22072001	90	Low	10.0	Precise	1	3	8	6	0.8	2.5	0.2	3	6	8	0.8	0.2	2.5	2	1.180	0.001	R	8	2.5	387.079	389.618	390.798	390.800	0
1	22072001	91	Low	10.0	Precise	1	15	11	6	1.4	3.9	0.2	15	11	6	1.4	3.9	0.2	2	1.604	0.000	D	11	3.9	391.303	393.657	395.261	395.264	0
1	22072001	92	Low	10.0	Precise	1	3	1	16	0.8	2.1	0.8	16	3	1	0.8	0.8	2.1	3	1.133	0.001	L	16	0.8	395.767	398.353	399.486	399.488	0
1	22072001	93	Low	10.0	Precise	1	15	1	6	1.4	2.1	0.2	6	15	1	0.2	1.4	2.1	3	2.457	0.001	L	6	0.2	399.991	400.933	403.390	403.392	0
1	22072001	94	Low	10.0	Vague	2	3	8	26	0.8	2.5	0.6	26	8	3	0.6	2.5	0.8	2	1.562	0.001	D	8	2.5	403.894	404.804	406.366	406.368	0
1	22072001	95	Low	10.0	Precise	1	18	15	12	0.8	1.4	0.5	18	15	12	0.8	1.4	0.5	1	1.539	0.000	L	18	0.8	406.871	408.555	410.093	410.096	0
1	22072001	96	Low	10.0	Precise	1	15	11	16	1.4	3.9	0.8	16	11	15	0.8	3.9	1.4	3	0.869	0.001	L	16	0.8	410.598	411.321	412.190	412.192	0
1	22072001	97	Low	10.0	Precise	1	3	11	10	0.8	3.9	0.5	10	11	3	0.5	3.9	0.8	3	0.927	0.000	L	10	0.5	412.695	415.103	416.030	416.032	0
1	22072001	98	Low	10.0	Precise	1	15	8	16	1.4	2.5	0.8	16	8	15	0.8	2.5	1.4	3	1.475	0.001	L	16	0.8	416.534	418.427	419.902	419.904	0
1	22072001	99	Low	10.0	Precise	1	3	15	16	0.8	1.4	0.8	15	3	16	1.4	0.8	0.8	3	1.313	0.000	R	16	0.8	420.407	422.268	423.581	423.585	0
1	22072001	100	Low	10.0	Vague	2	18	8	20	0.8	2.5	0.5	8	18	20	2.5	0.8	0.5	3	1.975	0.000	R	20	0.5	424.087	425.079	427.054	427.056	0
1	22072001	101	Low	10.0	Vague	2	3	8	19	0.8	2.5	0.4	8	3	19	2.5	0.8	0.4	2	1.482	0.000	L	8	2.5	427.559	430.387	431.869	431.872	0
1	22072001	102	Low	10.0	Precise	1	15	8	7	1.4	2.5	0.4	7	8	15	0.4	2.5	1.4	2	1.495	0.000	D	8	2.5	432.374	433.014	434.509	434.512	0
1	22072001	103	Low	10.0	Vague	2	18	1	26	0.8	2.1	0.6	18	1	26	0.8	2.1	0.6	1	1.950	0.000	L	18	0.8	435.015	437.184	439.134	439.136	0
1	22072001	104	Low	10.0	Vague	2	3	1	36	0.8	2.1	0.4	1	36	3	2.1	0.4	0.8	2	2.147	0.000	L	1	2.1	439.639	440.266	442.414	442.416	0
1	22072001	105	Low	10.0	Vague	2	18	15	28	0.8	1.4	0.7	28	18	15	0.7	0.8	1.4	1	1.125	0.000	D	18	0.8	442.919	445.017	446.142	446.144	0
1	22072001	106	Low	10.0	Vague	2	8	11	28	2.5	3.9	0.7	8	11	28	2.5	3.9	0.7	1	1.355	0.000	L	8	2.5	446.647	448.690	450.046	450.048	0
1	22072001	107	Low	10.0	Vague	2	3	1	35	0.8	2.1	0.3	3	1	35	0.8	2.1	0.3	2	2.131	0.000	D	1	2.1	450.551	451.083	453.214	453.216	0
1	22072001	108	Low	10.0	Vague	2	1	11	20	2.1	3.9	0.5	11	1	20	3.9	2.1	0.5	3	1.326	0.001	R	20	0.5	453.719	455.952	457.278	457.280	0
1	22072001	109	Low	10.0	Precise	1	3	1	10	0.8	2.1	0.5	10	1	3	0.5	2.1	0.8	3	1.041	0.000	L	10	0.5	457.783	459.117	460.158	460.160	0
1	22072001	110	Low	10.0	Vague	2	1	11	28	2.1	3.9	0.7	1	28	11	2.1	0.7	3.9	1	0.941	0.000	L	1	2.1	460.664	462.704	463.646	463.648	0
1	22072001	111	Low	10.0	Vague	2	15	11	35	1.4	3.9	0.3	35	11	15	0.3	3.9	1.4	2	1.546	0.000	D	11	3.9	464.151	465.571	467.118	467.120	0
1	22072001	112	Low	10.0	Precise	1	18	1	2	0.8	2.1	0.4	2	1	18	0.4	2.1	0.8	1	2.110	0.001	R	18	0.8	467.623	470.176	472.286	472.288	0
1	22072001	113	Low	10.0	Precise	1	3	8	10	0.8	2.5	0.5	3	10	8	0.8	0.5	2.5	2	1.075	0.000	R	8	2.5	472.791	474.107	475.182	475.184	0
1	22072001	114	Low	10.0	Vague	2	1	8	36	2.1	2.5	0.4	36	8	1	0.4	2.5	2.1	2	2.583	0.000	D	8	2.5	475.686	476.775	479.358	479.360	0
1	22072001	115	Low	10.0	Precise	1	3	15	2	0.8	1.4	0.4	15	3	2	1.4	0.8	0.4	1	3.326	0.000	D	3	0.8	479.863	481.904	485.230	485.232	0
1	22072001	116	Low	10.0	Vague	2	3	8	36	0.8	2.5	0.4	3	8	36	0.8	2.5	0.4	2	1.177	0.000	D	8	2.5	485.735	487.812	488.989	488.992	0
1	22072001	117	Low	10.0	Vague	2	15	1	35	1.4	2.1	0.3	35	15	1	0.3	1.4	2.1	2	1.422	0.001	R	1	2.1	489.494	491.888	493.310	493.313	0
1	22072001	118	Low	10.0	Vague	2	1	8	28	2.1	2.5	0.7	8	28	1	2.5	0.7	2.1	2	2.120	0.000	L	8	2.5	493.815	496.102	498.221	498.224	0
1	22072001	119	Low	10.0	Vague	2	18	11	36	0.8	3.9	0.4	36	11	18	0.4	3.9	0.8	2	2.055	0.000	D	11	3.9	498.726	500.070	502.126	502.128	0
1	22072001	120	Low	10.0	Vague	2	18	11	35	0.8	3.9	0.3	11	18	35	3.9	0.8	0.3	3	2.181	0.001	R	35	0.3	502.631	504.361	506.542	506.544	0
1	22072001	121	Low	10.0	Precise	1	18	11	2	0.8	3.9	0.4	2	11	18	0.4	3.9	0.8	1	2.065	0.000	R	18	0.8	512.101	512.925	514.990	514.992	0
1	22072001	122	Low	10.0	Precise	1	18	11	16	0.8	3.9	0.8	16	18	11	0.8	0.8	3.9	2	2.014	0.000	R	11	3.9	515.495	517.184	519.198	519.200	0
1	22072001	123	Low	10.0	Precise	1	18	8	10	0.8	2.5	0.5	8	18	10	2.5	0.8	0.5	2	1.886	0.000	L	8	2.5	519.703	521.120	523.006	523.008	0
1	22072001	124	Low	10.0	Vague	2	1	8	26	2.1	2.5	0.6	26	1	8	0.6	2.1	2.5	2	1.656	0.000	R	8	2.5	523.511	526.086	527.742	527.744	0
1	22072001	125	Low	10.0	Precise	1	1	8	12	2.1	2.5	0.5	1	12	8	2.1	0.5	2.5	2	1.452	0.000	R	8	2.5	528.246	530.161	531.613	531.616	0
1	22072001	126	Low	10.0	Vague	2	18	1	35	0.8	2.1	0.3	1	35	18	2.1	0.3	0.8	1	1.467	0.000	R	18	0.8	532.119	533.234	534.701	534.704	0
1	22072001	127	Low	10.0	Precise	1	18	11	10	0.8	3.9	0.5	18	10	11	0.8	0.5	3.9	1	1.160	0.000	L	18	0.8	535.207	537.638	538.798	538.800	0
1	22072001	128	Low	10.0	Precise	1	1	8	16	2.1	2.5	0.8	16	1	8	0.8	2.1	2.5	3	1.481	0.000	L	16	0.8	539.303	540.692	542.174	542.176	0
1	22072001	129	Low	10.0	Precise	1	18	15	7	0.8	1.4	0.4	15	7	18	1.4	0.4	0.8	1	1.708	0.000	R	18	0.8	542.678	545.009	546.717	546.720	0
1	22072001	130	Low	10.0	Vague	2	15	1	26	1.4	2.1	0.6	26	1	15	0.6	2.1	1.4	2	1.657	0.000	D	1	2.1	547.223	548.132	549.789	549.792	0
1	22072001	131	Low	10.0	Precise	1	1	8	10	2.1	2.5	0.5	1	8	10	2.1	2.5	0.5	3	1.942	0.001	R	10	0.5	550.295	551.912	553.854	553.856	0
1	22072001	132	Low	10.0	Vague	2	15	8	20	1.4	2.5	0.5	20	15	8	0.5	1.4	2.5	2	2.866	0.000	R	8	2.5	554.359	556.956	559.822	559.824	0
1	22072001	133	Low	10.0	Vague	2	15	11	20	1.4	3.9	0.5	11	20	15	3.9	0.5	1.4	2	2.064	0.000	L	11	3.9	560.327	561.806	563.870	563.872	0
1	22072001	134	Low	10.0	Precise	1	3	8	2	0.8	2.5	0.4	3	2	8	0.8	0.4	2.5	2	2.210	0.000	R	8	2.5	564.375	566.043	568.253	568.256	0
1	22072001	135	Low	10.0	Precise	1	3	1	7	0.8	2.1	0.4	3	7	1	0.8	0.4	2.1	2	1.848	0.000	R	1	2.1	568.759	570.565	572.413	572.416	0
1	22072001	136	Low	10.0	Precise	1	1	11	12	2.1	3.9	0.5	1	11	12	2.1	3.9	0.5	2	1.731	0.001	D	11	3.9	572.918	575.003	576.734	576.736	0
1	22072001	137	Low	10.0	Precise	1	3	11	2	0.8	3.9	0.4	11	2	3	3.9	0.4	0.8	2	1.618	0.001	L	11	3.9	577.239	579.148	580.766	580.768	0
1	22072001	138	Low	10.0	Precise	1	18	11	6	0.8	3.9	0.2	18	6	11	0.8	0.2	3.9	1	1.471	0.000	L	18	0.8	581.272	583.694	585.165	585.169	0
1	22072001	139	Low	10.0	Precise	1	18	3	6	0.8	0.8	0.2	3	6	18	0.8	0.2	0.8	1	1.906	0.000	R	18	0.8	585.671	588.108	590.014	590.016	0
1	22072001	140	Low	10.0	Precise	1	15	11	10	1.4	3.9	0.5	11	15	10	3.9	1.4	0.5	3	1.469	0.000	R	10	0.5	590.519	593.152	594.622	594.624	0
1	22072001	141	Low	10.0	Vague	2	18	15	26	0.8	1.4	0.6	18	26	15	0.8	0.6	1.4	1	1.842	0.001	L	18	0.8	595.126	596.829	598.670	598.673	0
1	22072001	142	Low	10.0	Precise	1	8	11	7	2.5	3.9	0.4	8	7	11	2.5	0.4	3.9	1	0.995	0.001	L	8	2.5	599.175	600.299	601.294	601.296	0
1	22072001	143	Low	10.0	Precise	1	15	1	16	1.4	2.1	0.8	1	15	16	2.1	1.4	0.8	3	1.416	0.000	R	16	0.8	601.799	602.934	604.349	604.353	0
1	22072001	144	Low	10.0	Vague	2	18	3	35	0.8	0.8	0.3	35	3	18	0.3	0.8	0.8	1	1.501	0.000	R	18	0.8	604.856	605.728	607.229	607.232	0
1	22072001	145	Low	10.0	Precise	1	18	3	16	0.8	0.8	0.8	18	16	3	0.8	0.8	0.8	3	2.786	0.000	D	16	0.8	607.735	610.012	612.798	612.800	0
1	22072001	146	Low	10.0	Vague	2	3	15	19	0.8	1.4	0.4	3	19	15	0.8	0.4	1.4	1	2.843	0.000	L	3	0.8	613.303	615.459	618.302	618.304	0
1	22072001	147	Low	10.0	Vague	2	18	15	36	0.8	1.4	0.4	15	18	36	1.4	0.8	0.4	1	1.671	0.000	D	18	0.8	618.807	620.199	621.870	621.872	0
1	22072001	148	Low	10.0	Vague	2	15	8	26	1.4	2.5	0.6	8	15	26	2.5	1.4	0.6	2	1.431	0.000	L	8	2.5	622.375	623.558	624.990	624.992	0
1	22072001	149	Low	10.0	Vague	2	15	8	35	1.4	2.5	0.3	15	35	8	1.4	0.3	2.5	2	1.476	0.000	R	8	2.5	625.495	627.178	628.653	628.656	0
1	22072001	150	Low	10.0	Vague	2	3	11	35	0.8	3.9	0.3	3	35	11	0.8	0.3	3.9	2	1.581	0.000	R	11	3.9	629.158	630.481	632.061	632.064	0
1	22072001	151	Low	10.0	Precise	1	3	8	16	0.8	2.5	0.8	3	8	16	0.8	2.5	0.8	3	2.041	0.001	R	16	0.8	632.566	633.221	635.262	635.265	0
1	22072001	152	Low	10.0	Precise	1	15	1	12	1.4	2.1	0.5	12	1	15	0.5	2.1	1.4	2	1.589	0.001	D	1	2.1	635.767	636.873	638.462	638.464	0
1	22072001	153	Low	10.0	Vague	2	1	11	35	2.1	3.9	0.3	35	11	1	0.3	3.9	2.1	2	1.652	0.001	D	11	3.9	638.967	639.802	641.454	641.456	0
1	22072001	154	Low	10.0	Vague	2	15	11	28	1.4	3.9	0.7	28	11	15	0.7	3.9	1.4	2	1.362	0.000	D	11	3.9	641.959	643.788	645.150	645.152	0
1	22072001	155	Low	10.0	Vague	2	3	11	28	0.8	3.9	0.7	3	11	28	0.8	3.9	0.7	2	1.511	0.000	D	11	3.9	645.655	646.535	648.046	648.048	0
1	22072001	156	Low	10.0	Vague	2	3	15	28	0.8	1.4	0.7	28	15	3	0.7	1.4	0.8	1	2.217	0.000	R	3	0.8	648.551	650.996	653.214	653.216	0
1	22072001	157	Low	10.0	Precise	1	3	1	6	0.8	2.1	0.2	6	3	1	0.2	0.8	2.1	2	2.077	0.000	R	1	2.1	653.718	655.024	657.101	657.105	0
1	22072001	158	Low	10.0	Vague	2	3	11	19	0.8	3.9	0.4	11	19	3	3.9	0.4	0.8	2	1.264	0.000	L	11	3.9	657.607	658.941	660.205	660.208	0
1	22072001	159	Low	10.0	Vague	2	3	8	20	0.8	2.5	0.5	20	3	8	0.5	0.8	2.5	3	0.832	0.000	L	20	0.5	660.711	662.286	663.118	663.120	0
1	22072001	160	Low	10.0	Vague	2	18	11	19	0.8	3.9	0.4	19	11	18	0.4	3.9	0.8	2	1.560	0.000	D	11	3.9	663.623	664.118	665.678	665.680	0
1	22072001	161	Low	10.0	Precise	1	15	8	2	1.4	2.5	0.4	8	15	2	2.5	1.4	0.4	2	1.421	0.000	L	8	2.5	666.182	666.848	668.269	668.272	0
1	22072001	162	Low	10.0	Precise	1	18	3	12	0.8	0.8	0.5	12	18	3	0.5	0.8	0.8	1	2.039	0.000	D	18	0.8	668.775	670.743	672.782	672.784	0
1	22072001	163	Low	10.0	Vague	2	3	15	20	0.8	1.4	0.5	3	20	15	0.8	0.5	1.4	3	1.562	0.000	D	20	0.5	673.287	676.099	677.661	677.664	0
1	22072001	164	Low	10.0	Vague	2	18	3	26	0.8	0.8	0.6	3	26	18	0.8	0.6	0.8	1	2.245	0.001	R	18	0.8	678.167	679.881	682.126	682.128	0
1	22072001	165	Low	10.0	Precise	1	3	1	2	0.8	2.1	0.4	2	1	3	0.4	2.1	0.8	2	2.202	0.000	D	1	2.1	682.631	684.179	686.382	686.384	0
1	22072001	166	Low	10.0	Vague	2	18	3	36	0.8	0.8	0.4	18	36	3	0.8	0.4	0.8	1	3.259	0.000	L	18	0.8	686.887	688.979	692.238	692.240	0
1	22072001	167	Low	10.0	Vague	2	15	11	19	1.4	3.9	0.4	19	15	11	0.4	1.4	3.9	2	1.579	0.000	R	11	3.9	692.742	693.635	695.214	695.216	0
1	22072001	168	Low	10.0	Vague	2	18	15	19	0.8	1.4	0.4	18	19	15	0.8	0.4	1.4	1	0.926	0.000	L	18	0.8	695.719	696.480	697.406	697.408	0
1	22072001	169	Low	10.0	Precise	1	15	11	12	1.4	3.9	0.5	15	12	11	1.4	0.5	3.9	2	1.473	0.001	R	11	3.9	697.911	698.525	699.998	700.000	0
1	22072001	170	Low	10.0	Precise	1	18	8	12	0.8	2.5	0.5	8	18	12	2.5	0.8	0.5	2	0.894	0.001	L	8	2.5	700.503	702.768	703.662	703.664	0
1	22072001	171	Low	10.0	Vague	2	3	15	35	0.8	1.4	0.3	15	3	35	1.4	0.8	0.3	1	2.153	0.001	D	3	0.8	704.167	705.301	707.454	707.456	0
1	22072001	172	Low	10.0	Vague	2	3	15	36	0.8	1.4	0.4	36	15	3	0.4	1.4	0.8	1	3.209	0.000	R	3	0.8	707.959	709.285	712.494	712.496	0
1	22072001	173	Low	10.0	Vague	2	18	8	28	0.8	2.5	0.7	28	18	8	0.7	0.8	2.5	2	1.124	0.000	R	8	2.5	712.999	713.978	715.101	715.104	0
1	22072001	174	Low	10.0	Precise	1	18	3	2	0.8	0.8	0.4	18	2	3	0.8	0.4	0.8	1	2.137	0.000	L	18	0.8	715.607	716.597	718.734	718.736	0
1	22072001	175	Low	10.0	Precise	1	3	1	12	0.8	2.1	0.5	12	1	3	0.5	2.1	0.8	2	2.739	0.001	D	1	2.1	719.239	720.042	722.782	722.784	0
1	22072001	176	Low	10.0	Vague	2	3	11	26	0.8	3.9	0.6	3	26	11	0.8	0.6	3.9	2	1.492	0.000	R	11	3.9	723.287	725.593	727.085	727.088	0
1	22072001	177	Low	10.0	Precise	1	15	1	7	1.4	2.1	0.4	1	7	15	2.1	0.4	1.4	2	2.274	0.000	L	1	2.1	727.591	728.428	730.702	730.704	0
1	22072001	178	Low	10.0	Vague	2	15	1	28	1.4	2.1	0.7	15	28	1	1.4	0.7	2.1	2	1.104	0.000	R	1	2.1	731.207	733.389	734.494	734.496	0
1	22072001	179	Low	10.0	Vague	2	8	11	20	2.5	3.9	0.5	20	11	8	0.5	3.9	2.5	3	1.037	0.001	L	20	0.5	734.998	735.505	736.542	736.544	0
1	22072001	180	Low	10.0	Precise	1	18	8	2	0.8	2.5	0.4	8	18	2	2.5	0.8	0.4	2	0.834	0.000	L	8	2.5	737.047	739.084	739.918	739.920	0
1	22072001	181	High	1.5	Vague	2	18	11	21	0.8	3.9	0.4	21	11	18	0.4	3.9	0.8	1	1.382	0.000	R	18	0.8	750.824	752.392	753.774	753.776	0
1	22072001	182	High	1.5	Precise	1	18	1	4	0.8	2.1	0.4	18	4	1	0.8	0.4	2.1	1	0.968	0.000	L	18	0.8	754.279	756.502	757.470	757.472	0
1	22072001	183	High	1.5	Vague	2	3	8	27	0.8	2.5	0.4	8	27	3	2.5	0.4	0.8	2	0.806	0.000	L	8	2.5	757.975	760.616	761.422	761.424	0
1	22072001	184	High	1.5	Vague	2	1	11	24	2.1	3.9	0.6	1	24	11	2.1	0.6	3.9	1	0.928	0.000	L	1	2.1	761.927	762.462	763.390	763.392	0
1	22072001	185	High	1.5	Precise	1	1	8	5	2.1	2.5	0.2	8	1	5	2.5	2.1	0.2	2	0.904	0.000	L	8	2.5	763.894	766.037	766.941	766.944	0
1	22072001	186	High	1.5	Vague	2	1	8	31	2.1	2.5	0.5	8	31	1	2.5	0.5	2.1	2	1.164	0.001	L	8	2.5	767.447	769.538	770.702	770.704	0
1	22072001	187	High	1.5	Vague	2	3	11	27	0.8	3.9	0.4	3	11	27	0.8	3.9	0.4	3	1.050	0.000	R	27	0.4	771.207	771.908	772.957	772.960	0
1	22072001	188	High	1.5	Precise	1	18	8	5	0.8	2.5	0.2	18	5	8	0.8	0.2	2.5	2	0.891	0.000	R	8	2.5	773.463	775.411	776.302	776.304	0
1	22072001	189	High	1.5	Vague	2	3	15	27	0.8	1.4	0.4	15	3	27	1.4	0.8	0.4	3	0.650	0.000	R	27	0.4	776.806	778.628	779.278	779.280	0
1	22072001	190	High	1.5	Precise	1	3	1	5	0.8	2.1	0.2	3	5	1	0.8	0.2	2.1	2	1.233	0.001	R	1	2.1	779.783	781.981	783.214	783.216	0
1	22072001	191	High	1.5	Precise	1	15	8	4	1.4	2.5	0.4	4	8	15	0.4	2.5	1.4	2	1.226	0.000	D	8	2.5	783.719	785.764	786.990	786.992	0
1	22072001	192	High	1.5	Precise	1	18	15	13	0.8	1.4	0.5	15	18	13	1.4	0.8	0.5	1	1.286	0.001	D	18	0.8	787.495	788.808	790.094	790.096	0
1	22072001	193	High	1.5	Precise	1	3	11	17	0.8	3.9	0.4	11	3	17	3.9	0.8	0.4	2	1.480	0.000	L	11	3.9	790.599	792.934	794.414	794.416	0
1	22072001	194	High	1.5	Precise	1	8	11	4	2.5	3.9	0.4	11	4	8	3.9	0.4	2.5	2	0.623	0.001	L	11	3.9	794.920	796.863	797.486	797.488	0
1	22072001	195	High	1.5	Vague	2	3	1	23	0.8	2.1	0.3	23	3	1	0.3	0.8	2.1	2	0.703	0.000	R	1	2.1	797.991	800.686	801.390	801.392	0
1	22072001	196	High	1.5	Precise	1	15	11	14	1.4	3.9	0.7	15	11	14	1.4	3.9	0.7	2	1.146	0.000	D	11	3.9	801.896	804.291	805.438	805.440	0
1	22072001	197	High	1.5	Vague	2	18	11	30	0.8	3.9	0.7	30	11	18	0.7	3.9	0.8	2	0.682	0.000	D	11	3.9	805.944	808.580	809.262	809.264	0
1	22072001	198	High	1.5	Vague	2	3	1	27	0.8	2.1	0.4	3	1	27	0.8	2.1	0.4	3	0.687	0.000	R	27	0.4	809.767	811.023	811.710	811.712	0
1	22072001	199	High	1.5	Vague	2	8	11	23	2.5	3.9	0.3	23	8	11	0.3	2.5	3.9	2	0.783	0.000	R	11	3.9	812.215	815.039	815.821	815.824	0
1	22072001	200	High	1.5	Precise	1	1	8	9	2.1	2.5	0.3	9	1	8	0.3	2.1	2.5	2	0.848	0.000	R	8	2.5	816.327	818.893	819.742	819.744	0
1	22072001	201	High	1.5	Vague	2	18	8	30	0.8	2.5	0.7	8	18	30	2.5	0.8	0.7	2	1.177	0.000	L	8	2.5	820.247	821.845	823.022	823.024	0
1	22072001	202	High	1.5	Vague	2	3	8	21	0.8	2.5	0.4	8	21	3	2.5	0.4	0.8	2	1.105	0.000	L	8	2.5	823.527	826.221	827.326	827.328	0
1	22072001	203	High	1.5	Precise	1	18	3	9	0.8	0.8	0.3	18	3	9	0.8	0.8	0.3	1	0.837	0.000	L	18	0.8	827.831	830.296	831.133	831.136	0
1	22072001	204	High	1.5	Precise	1	3	15	5	0.8	1.4	0.2	15	3	5	1.4	0.8	0.2	1	1.385	0.000	D	3	0.8	831.639	832.597	833.982	833.984	0
1	22072001	205	High	1.5	Precise	1	8	11	9	2.5	3.9	0.3	9	11	8	0.3	3.9	2.5	1	0.657	0.000	R	8	2.5	834.487	836.093	836.750	836.752	0
1	22072001	206	High	1.5	Vague	2	1	11	30	2.1	3.9	0.7	11	30	1	3.9	0.7	2.1	2	1.101	0.000	L	11	3.9	837.255	840.017	841.117	841.120	0
1	22072001	207	High	1.5	Precise	1	15	1	5	1.4	2.1	0.2	15	5	1	1.4	0.2	2.1	2	1.080	0.000	R	1	2.1	841.623	843.605	844.686	844.688	0
1	22072001	208	High	1.5	Precise	1	3	8	9	0.8	2.5	0.3	8	9	3	2.5	0.3	0.8	2	0.747	0.001	L	8	2.5	845.190	846.803	847.550	847.552	0
1	22072001	209	High	1.5	Vague	2	3	15	31	0.8	1.4	0.5	3	31	15	0.8	0.5	1.4	NaN	NaN	NaN	NaN	NaN	NaN	848.055	848.674	NaN	850.164	1
1	22072001	210	High	1.5	Vague	2	18	3	30	0.8	0.8	0.7	30	3	18	0.7	0.8	0.8	3	1.068	0.001	L	30	0.7	852.171	854.897	855.966	855.970	0
1	22072001	211	High	1.5	Precise	1	18	8	17	0.8	2.5	0.4	8	17	18	2.5	0.4	0.8	2	0.716	0.000	L	8	2.5	856.472	858.242	858.958	858.960	0
1	22072001	212	High	1.5	Vague	2	18	11	31	0.8	3.9	0.5	31	11	18	0.5	3.9	0.8	NaN	NaN	NaN	NaN	NaN	NaN	859.463	861.298	NaN	862.784	1
1	22072001	213	High	1.5	Vague	2	18	15	27	0.8	1.4	0.4	15	27	18	1.4	0.4	0.8	3	1.063	0.000	D	27	0.4	864.787	867.399	868.462	868.464	0
1	22072001	214	High	1.5	Vague	2	18	15	23	0.8	1.4	0.3	15	18	23	1.4	0.8	0.3	1	0.966	0.001	D	18	0.8	868.968	871.864	872.830	872.832	0
1	22072001	215	High	1.5	Precise	1	3	1	13	0.8	2.1	0.5	3	13	1	0.8	0.5	2.1	2	1.295	0.001	R	1	2.1	873.336	875.247	876.542	876.544	0
1	22072001	216	High	1.5	Vague	2	3	11	30	0.8	3.9	0.7	30	11	3	0.7	3.9	0.8	3	0.720	0.000	L	30	0.7	877.048	879.981	880.702	880.704	0
1	22072001	217	High	1.5	Vague	2	3	8	30	0.8	2.5	0.7	8	3	30	2.5	0.8	0.7	2	0.877	0.000	L	8	2.5	881.208	882.737	883.613	883.617	0
1	22072001	218	High	1.5	Vague	2	18	1	23	0.8	2.1	0.3	1	18	23	2.1	0.8	0.3	1	0.860	0.001	D	18	0.8	884.120	886.034	886.894	886.897	0
1	22072001	219	High	1.5	Vague	2	18	1	24	0.8	2.1	0.6	1	18	24	2.1	0.8	0.6	1	0.584	0.001	D	18	0.8	887.400	888.774	889.358	889.360	0
1	22072001	220	High	1.5	Precise	1	18	8	4	0.8	2.5	0.4	4	18	8	0.4	0.8	2.5	2	0.848	0.000	R	8	2.5	889.862	892.014	892.862	892.864	0
1	22072001	221	High	1.5	Precise	1	18	15	5	0.8	1.4	0.2	15	5	18	1.4	0.2	0.8	1	1.150	0.000	R	18	0.8	893.368	895.104	896.254	896.256	0
1	22072001	222	High	1.5	Precise	1	18	3	5	0.8	0.8	0.2	5	3	18	0.2	0.8	0.8	1	0.603	0.001	R	18	0.8	896.759	897.555	898.158	898.160	0
1	22072001	223	High	1.5	Vague	2	15	8	30	1.4	2.5	0.7	8	30	15	2.5	0.7	1.4	2	0.670	0.000	L	8	2.5	898.663	900.976	901.646	901.648	0
1	22072001	224	High	1.5	Precise	1	18	3	4	0.8	0.8	0.4	3	18	4	0.8	0.8	0.4	1	0.982	0.000	D	18	0.8	902.151	904.728	905.710	905.712	0
1	22072001	225	High	1.5	Precise	1	3	8	5	0.8	2.5	0.2	3	5	8	0.8	0.2	2.5	2	1.244	0.000	R	8	2.5	906.215	907.025	908.270	908.272	0
1	22072001	226	High	1.5	Vague	2	15	11	21	1.4	3.9	0.4	11	15	21	3.9	1.4	0.4	2	0.776	0.001	L	11	3.9	908.774	909.654	910.430	910.432	0
1	22072001	227	High	1.5	Precise	1	18	3	14	0.8	0.8	0.7	18	3	14	0.8	0.8	0.7	1	0.823	0.000	L	18	0.8	910.935	912.535	913.358	913.360	0
1	22072001	228	High	1.5	Vague	2	18	11	24	0.8	3.9	0.6	24	18	11	0.6	0.8	3.9	2	1.315	0.000	R	11	3.9	913.863	914.443	915.758	915.760	0
1	22072001	229	High	1.5	Vague	2	3	15	24	0.8	1.4	0.6	24	15	3	0.6	1.4	0.8	1	0.754	0.000	R	3	0.8	916.263	917.803	918.558	918.560	0
1	22072001	230	High	1.5	Precise	1	8	11	13	2.5	3.9	0.5	11	8	13	3.9	2.5	0.5	2	0.658	0.000	L	11	3.9	919.063	920.043	920.702	920.704	0
1	22072001	231	High	1.5	Vague	2	1	11	27	2.1	3.9	0.4	11	27	1	3.9	0.4	2.1	2	0.688	0.001	L	11	3.9	921.207	922.030	922.718	922.721	0
1	22072001	232	High	1.5	Precise	1	18	1	17	0.8	2.1	0.4	17	1	18	0.4	2.1	0.8	2	1.173	0.000	D	1	2.1	923.223	924.088	925.262	925.264	0
1	22072001	233	High	1.5	Precise	1	3	11	14	0.8	3.9	0.7	14	11	3	0.7	3.9	0.8	2	0.970	0.000	D	11	3.9	925.766	927.876	928.846	928.848	0
1	22072001	234	High	1.5	Precise	1	3	1	14	0.8	2.1	0.7	1	3	14	2.1	0.8	0.7	2	1.341	0.000	L	1	2.1	929.350	930.913	932.254	932.256	0
1	22072001	235	High	1.5	Precise	1	18	11	17	0.8	3.9	0.4	11	17	18	3.9	0.4	0.8	2	0.661	0.000	L	11	3.9	932.759	933.592	934.254	934.256	0
1	22072001	236	High	1.5	Precise	1	15	11	5	1.4	3.9	0.2	5	11	15	0.2	3.9	1.4	2	0.803	0.000	D	11	3.9	934.759	937.643	938.446	938.448	0
1	22072001	237	High	1.5	Vague	2	3	8	31	0.8	2.5	0.5	31	8	3	0.5	2.5	0.8	2	0.987	0.000	D	8	2.5	938.951	940.163	941.150	941.152	0
1	22072001	238	High	1.5	Vague	2	18	1	21	0.8	2.1	0.4	18	1	21	0.8	2.1	0.4	1	1.090	0.001	L	18	0.8	941.655	944.124	945.214	945.216	0
1	22072001	239	High	1.5	Vague	2	18	8	27	0.8	2.5	0.4	27	18	8	0.4	0.8	2.5	3	0.704	0.000	L	27	0.4	945.720	948.269	948.974	948.976	0
1	22072001	240	High	1.5	Vague	2	18	3	31	0.8	0.8	0.5	3	31	18	0.8	0.5	0.8	NaN	NaN	NaN	NaN	NaN	NaN	949.478	950.732	NaN	952.218	1
1	22072001	241	High	1.5	Vague	2	18	1	31	0.8	2.1	0.5	18	31	1	0.8	0.5	2.1	2	0.834	0.000	R	1	2.1	963.399	965.499	966.333	966.336	0
1	22072001	242	High	1.5	Vague	2	18	3	21	0.8	0.8	0.4	18	21	3	0.8	0.4	0.8	1	0.539	0.000	L	18	0.8	966.839	967.763	968.301	968.304	0
1	22072001	243	High	1.5	Precise	1	1	8	4	2.1	2.5	0.4	1	4	8	2.1	0.4	2.5	2	0.884	0.000	R	8	2.5	968.806	971.209	972.094	972.096	0
1	22072001	244	High	1.5	Precise	1	18	1	9	0.8	2.1	0.3	9	18	1	0.3	0.8	2.1	2	0.707	0.000	R	1	2.1	972.599	975.499	976.206	976.209	0
1	22072001	245	High	1.5	Vague	2	3	11	23	0.8	3.9	0.3	11	3	23	3.9	0.8	0.3	2	0.780	0.000	L	11	3.9	976.712	978.658	979.438	979.440	0
1	22072001	246	High	1.5	Precise	1	15	11	17	1.4	3.9	0.4	15	17	11	1.4	0.4	3.9	2	0.716	0.000	R	11	3.9	979.943	982.546	983.262	983.264	0
1	22072001	247	High	1.5	Vague	2	1	8	24	2.1	2.5	0.6	8	1	24	2.5	2.1	0.6	2	0.655	0.000	L	8	2.5	983.767	986.383	987.038	987.040	0
1	22072001	248	High	1.5	Precise	1	3	15	9	0.8	1.4	0.3	15	9	3	1.4	0.3	0.8	3	0.750	0.001	D	9	0.3	987.543	989.232	989.982	989.984	0
1	22072001	249	High	1.5	Precise	1	8	11	14	2.5	3.9	0.7	14	11	8	0.7	3.9	2.5	2	1.008	0.000	D	11	3.9	990.487	992.110	993.118	993.120	0
1	22072001	250	High	1.5	Precise	1	1	11	9	2.1	3.9	0.3	9	1	11	0.3	2.1	3.9	3	1.329	0.000	L	9	0.3	993.623	996.173	997.502	997.504	0
1	22072001	251	High	1.5	Vague	2	8	11	27	2.5	3.9	0.4	27	8	11	0.4	2.5	3.9	3	0.808	0.000	L	27	0.4	998.007	1000.070	1000.877	1000.880	0
1	22072001	252	High	1.5	Vague	2	15	1	30	1.4	2.1	0.7	30	1	15	0.7	2.1	1.4	2	1.141	0.000	D	1	2.1	1001.382	1002.441	1003.582	1003.584	0
1	22072001	253	High	1.5	Vague	2	18	8	24	0.8	2.5	0.6	18	24	8	0.8	0.6	2.5	1	0.864	0.000	L	18	0.8	1004.087	1005.982	1006.846	1006.848	0
1	22072001	254	High	1.5	Precise	1	3	11	5	0.8	3.9	0.2	5	11	3	0.2	3.9	0.8	NaN	NaN	NaN	NaN	NaN	NaN	1007.351	1009.778	NaN	1011.267	1
1	22072001	255	High	1.5	Vague	2	18	8	23	0.8	2.5	0.3	8	23	18	2.5	0.3	0.8	2	0.959	0.001	L	8	2.5	1013.270	1016.255	1017.214	1017.216	0
1	22072001	256	High	1.5	Vague	2	18	15	31	0.8	1.4	0.5	18	31	15	0.8	0.5	1.4	1	0.752	0.000	L	18	0.8	1017.719	1018.925	1019.678	1019.680	0
1	22072001	257	High	1.5	Vague	2	1	8	21	2.1	2.5	0.4	8	1	21	2.5	2.1	0.4	2	0.730	0.000	L	8	2.5	1020.183	1022.931	1023.662	1023.664	0
1	22072001	258	High	1.5	Precise	1	18	8	9	0.8	2.5	0.3	8	18	9	2.5	0.8	0.3	2	0.540	0.000	L	8	2.5	1024.167	1026.226	1026.766	1026.768	0
1	22072001	259	High	1.5	Precise	1	15	8	13	1.4	2.5	0.5	15	13	8	1.4	0.5	2.5	2	0.682	0.001	R	8	2.5	1027.271	1028.805	1029.486	1029.489	0
1	22072001	260	High	1.5	Precise	1	3	8	14	0.8	2.5	0.7	3	8	14	0.8	2.5	0.7	2	1.165	0.001	D	8	2.5	1029.992	1032.688	1033.854	1033.856	0
1	22072001	261	High	1.5	Vague	2	3	8	23	0.8	2.5	0.3	23	3	8	0.3	0.8	2.5	2	1.084	0.000	R	8	2.5	1034.359	1035.010	1036.094	1036.096	0
1	22072001	262	High	1.5	Vague	2	1	11	31	2.1	3.9	0.5	1	11	31	2.1	3.9	0.5	1	0.642	0.000	L	1	2.1	1036.599	1039.339	1039.982	1039.984	0
1	22072001	263	High	1.5	Vague	2	3	15	23	0.8	1.4	0.3	3	15	23	0.8	1.4	0.3	NaN	NaN	NaN	NaN	NaN	NaN	1040.487	1041.104	NaN	1042.591	1
1	22072001	264	High	1.5	Precise	1	3	15	17	0.8	1.4	0.4	3	17	15	0.8	0.4	1.4	2	1.258	0.000	R	15	1.4	1044.595	1047.460	1048.718	1048.720	0
1	22072001	265	High	1.5	Precise	1	3	8	13	0.8	2.5	0.5	13	8	3	0.5	2.5	0.8	2	1.284	0.000	D	8	2.5	1049.223	1049.786	1051.070	1051.072	0
1	22072001	266	High	1.5	Vague	2	3	1	21	0.8	2.1	0.4	21	3	1	0.4	0.8	2.1	3	1.298	0.000	L	21	0.4	1051.575	1054.092	1055.390	1055.392	0
1	22072001	267	High	1.5	Precise	1	18	11	13	0.8	3.9	0.5	11	13	18	3.9	0.5	0.8	1	0.928	0.000	R	18	0.8	1055.895	1057.469	1058.398	1058.400	0
1	22072001	268	High	1.5	Precise	1	15	11	13	1.4	3.9	0.5	13	15	11	0.5	1.4	3.9	2	0.859	0.000	R	11	3.9	1058.903	1061.187	1062.046	1062.048	0
1	22072001	269	High	1.5	Precise	1	1	11	14	2.1	3.9	0.7	11	1	14	3.9	2.1	0.7	2	0.695	0.001	L	11	3.9	1062.551	1064.615	1065.310	1065.312	0
1	22072001	270	High	1.5	Precise	1	1	11	13	2.1	3.9	0.5	1	13	11	2.1	0.5	3.9	3	0.815	0.001	D	13	0.5	1065.815	1068.543	1069.358	1069.360	0
1	22072001	271	High	1.5	Vague	2	18	11	27	0.8	3.9	0.4	27	18	11	0.4	0.8	3.9	2	0.569	0.000	R	11	3.9	1069.863	1072.644	1073.214	1073.216	0
1	22072001	272	High	1.5	Precise	1	1	8	17	2.1	2.5	0.4	1	8	17	2.1	2.5	0.4	1	0.769	0.000	L	1	2.1	1073.719	1075.549	1076.318	1076.320	0
1	22072001	273	High	1.5	Precise	1	8	11	5	2.5	3.9	0.2	8	11	5	2.5	3.9	0.2	1	1.042	0.000	L	8	2.5	1076.823	1077.739	1078.782	1078.784	0
1	22072001	274	High	1.5	Vague	2	1	8	30	2.1	2.5	0.7	1	8	30	2.1	2.5	0.7	2	1.417	0.001	D	8	2.5	1079.287	1079.845	1081.262	1081.265	0
1	22072001	275	High	1.5	Vague	2	18	15	30	0.8	1.4	0.7	15	30	18	1.4	0.7	0.8	1	1.163	0.000	R	18	0.8	1081.767	1084.147	1085.310	1085.312	0
1	22072001	276	High	1.5	Vague	2	18	8	21	0.8	2.5	0.4	18	21	8	0.8	0.4	2.5	2	0.796	0.001	R	8	2.5	1085.815	1087.090	1087.886	1087.888	0
1	22072001	277	High	1.5	Precise	1	18	8	13	0.8	2.5	0.5	13	18	8	0.5	0.8	2.5	2	1.230	0.000	R	8	2.5	1088.391	1089.279	1090.510	1090.512	0
1	22072001	278	High	1.5	Precise	1	15	11	4	1.4	3.9	0.4	4	15	11	0.4	1.4	3.9	2	1.141	0.000	R	11	3.9	1091.015	1091.705	1092.846	1092.849	0
1	22072001	279	High	1.5	Vague	2	3	15	30	0.8	1.4	0.7	30	3	15	0.7	0.8	1.4	1	1.251	0.001	D	3	0.8	1093.351	1094.187	1095.438	1095.440	0
1	22072001	280	High	1.5	Precise	1	18	11	14	0.8	3.9	0.7	11	14	18	3.9	0.7	0.8	2	0.784	0.000	L	11	3.9	1095.943	1096.638	1097.422	1097.424	0
1	22072001	281	High	1.5	Precise	1	1	11	17	2.1	3.9	0.4	1	11	17	2.1	3.9	0.4	1	0.608	0.000	L	1	2.1	1097.927	1099.854	1100.462	1100.464	0
1	22072001	282	High	1.5	Vague	2	18	15	24	0.8	1.4	0.6	18	15	24	0.8	1.4	0.6	1	0.916	0.000	L	18	0.8	1100.967	1102.362	1103.278	1103.280	0
1	22072001	283	High	1.5	Precise	1	18	1	14	0.8	2.1	0.7	1	14	18	2.1	0.7	0.8	2	0.699	0.000	L	1	2.1	1103.783	1105.378	1106.078	1106.081	0
1	22072001	284	High	1.5	Vague	2	8	11	24	2.5	3.9	0.6	24	11	8	0.6	3.9	2.5	1	0.623	0.000	R	8	2.5	1106.583	1108.367	1108.990	1108.992	0
1	22072001	285	High	1.5	Precise	1	18	1	13	0.8	2.1	0.5	13	18	1	0.5	0.8	2.1	1	0.753	0.000	D	18	0.8	1109.495	1111.517	1112.270	1112.272	0
1	22072001	286	High	1.5	Vague	2	18	3	24	0.8	0.8	0.6	24	3	18	0.6	0.8	0.8	1	0.698	0.000	R	18	0.8	1112.775	1115.028	1115.726	1115.728	0
1	22072001	287	High	1.5	Precise	1	18	15	14	0.8	1.4	0.7	18	15	14	0.8	1.4	0.7	1	0.627	0.000	L	18	0.8	1116.230	1117.067	1117.694	1117.696	0
1	22072001	288	High	1.5	Precise	1	3	15	4	0.8	1.4	0.4	4	3	15	0.4	0.8	1.4	1	0.714	0.000	D	3	0.8	1118.199	1119.060	1119.774	1119.776	0
1	22072001	289	High	1.5	Vague	2	18	8	31	0.8	2.5	0.5	31	18	8	0.5	0.8	2.5	2	0.697	0.001	R	8	2.5	1120.279	1122.917	1123.614	1123.616	0
1	22072001	290	High	1.5	Precise	1	18	15	17	0.8	1.4	0.4	18	17	15	0.8	0.4	1.4	1	0.760	0.000	L	18	0.8	1124.118	1124.726	1125.486	1125.488	0
1	22072001	291	High	1.5	Vague	2	1	8	27	2.1	2.5	0.4	27	1	8	0.4	2.1	2.5	3	0.642	0.000	L	27	0.4	1125.991	1128.252	1128.894	1128.896	0
1	22072001	292	High	1.5	Vague	2	8	11	31	2.5	3.9	0.5	31	11	8	0.5	3.9	2.5	3	0.920	0.000	L	31	0.5	1129.398	1130.118	1131.038	1131.040	0
1	22072001	293	High	1.5	Vague	2	15	11	24	1.4	3.9	0.6	15	11	24	1.4	3.9	0.6	2	1.321	0.001	D	11	3.9	1131.543	1133.317	1134.638	1134.640	0
1	22072001	294	High	1.5	Vague	2	18	1	27	0.8	2.1	0.4	27	18	1	0.4	0.8	2.1	3	0.682	0.000	L	27	0.4	1135.143	1137.876	1138.558	1138.560	0
1	22072001	295	High	1.5	Precise	1	3	1	4	0.8	2.1	0.4	4	3	1	0.4	0.8	2.1	2	0.934	0.000	R	1	2.1	1139.063	1141.512	1142.446	1142.448	0
1	22072001	296	High	1.5	Vague	2	8	11	21	2.5	3.9	0.4	21	11	8	0.4	3.9	2.5	1	0.779	0.000	R	8	2.5	1142.951	1143.875	1144.654	1144.656	0
1	22072001	297	High	1.5	Precise	1	18	8	14	0.8	2.5	0.7	8	18	14	2.5	0.8	0.7	1	0.908	0.000	D	18	0.8	1145.159	1147.938	1148.846	1148.848	0
1	22072001	298	High	1.5	Vague	2	1	11	21	2.1	3.9	0.4	11	21	1	3.9	0.4	2.1	2	0.530	0.000	L	11	3.9	1149.351	1151.452	1151.982	1151.984	0
1	22072001	299	High	1.5	Precise	1	18	11	9	0.8	3.9	0.3	9	18	11	0.3	0.8	3.9	2	0.671	0.000	R	11	3.9	1152.487	1154.414	1155.086	1155.088	0
1	22072001	300	High	1.5	Vague	2	15	11	23	1.4	3.9	0.3	15	23	11	1.4	0.3	3.9	2	0.876	0.001	R	11	3.9	1155.592	1156.386	1157.262	1157.264	0
1	22072001	301	High	1.5	Vague	2	8	11	30	2.5	3.9	0.7	11	30	8	3.9	0.7	2.5	1	0.805	0.000	R	8	2.5	1165.167	1166.920	1167.726	1167.728	0
1	22072001	302	High	1.5	Vague	2	15	8	24	1.4	2.5	0.6	8	15	24	2.5	1.4	0.6	2	0.534	0.000	L	8	2.5	1168.231	1169.496	1170.030	1170.033	0
1	22072001	303	High	1.5	Vague	2	15	8	21	1.4	2.5	0.4	15	8	21	1.4	2.5	0.4	2	1.070	0.000	D	8	2.5	1170.536	1171.632	1172.702	1172.704	0
1	22072001	304	High	1.5	Precise	1	8	11	17	2.5	3.9	0.4	11	17	8	3.9	0.4	2.5	1	0.605	0.000	R	8	2.5	1173.207	1175.456	1176.062	1176.064	0
1	22072001	305	High	1.5	Precise	1	15	1	4	1.4	2.1	0.4	1	4	15	2.1	0.4	1.4	2	1.343	0.000	L	1	2.1	1176.567	1179.343	1180.686	1180.688	0
1	22072001	306	High	1.5	Precise	1	18	3	13	0.8	0.8	0.5	3	18	13	0.8	0.8	0.5	1	1.260	0.000	D	18	0.8	1181.191	1183.410	1184.670	1184.672	0
1	22072001	307	High	1.5	Precise	1	3	15	13	0.8	1.4	0.5	15	13	3	1.4	0.5	0.8	1	1.404	0.000	R	3	0.8	1185.175	1187.777	1189.182	1189.184	0
1	22072001	308	High	1.5	Vague	2	3	15	21	0.8	1.4	0.4	21	3	15	0.4	0.8	1.4	1	1.396	0.000	D	3	0.8	1189.686	1190.810	1192.206	1192.208	0
1	22072001	309	High	1.5	Vague	2	1	8	23	2.1	2.5	0.3	8	23	1	2.5	0.3	2.1	2	0.680	0.000	L	8	2.5	1192.711	1194.294	1194.974	1194.976	0
1	22072001	310	High	1.5	Vague	2	3	11	31	0.8	3.9	0.5	3	31	11	0.8	0.5	3.9	NaN	NaN	NaN	NaN	NaN	NaN	1195.479	1197.662	NaN	1199.151	1
1	22072001	311	High	1.5	Precise	1	3	11	4	0.8	3.9	0.4	3	11	4	0.8	3.9	0.4	NaN	NaN	NaN	NaN	NaN	NaN	1201.154	1203.840	NaN	1205.327	1
1	22072001	312	High	1.5	Vague	2	15	11	30	1.4	3.9	0.7	11	30	15	3.9	0.7	1.4	2	1.096	0.000	L	11	3.9	1207.330	1209.429	1210.526	1210.528	0
1	22072001	313	High	1.5	Precise	1	18	15	9	0.8	1.4	0.3	15	18	9	1.4	0.8	0.3	3	0.926	0.001	R	9	0.3	1211.031	1213.920	1214.846	1214.849	0
1	22072001	314	High	1.5	Vague	2	18	11	23	0.8	3.9	0.3	18	11	23	0.8	3.9	0.3	1	0.909	0.000	L	18	0.8	1215.351	1216.193	1217.102	1217.104	0
1	22072001	315	High	1.5	Vague	2	18	3	27	0.8	0.8	0.4	27	3	18	0.4	0.8	0.8	1	1.117	0.001	R	18	0.8	1217.607	1220.081	1221.198	1221.201	0
1	22072001	316	High	1.5	Precise	1	15	8	5	1.4	2.5	0.2	5	8	15	0.2	2.5	1.4	3	0.504	0.000	L	5	0.2	1221.704	1223.046	1223.550	1223.552	0
1	22072001	317	High	1.5	Vague	2	15	11	31	1.4	3.9	0.5	31	15	11	0.5	1.4	3.9	3	1.052	0.000	L	31	0.5	1224.054	1226.049	1227.102	1227.104	0
1	22072001	318	High	1.5	Vague	2	18	1	30	0.8	2.1	0.7	18	30	1	0.8	0.7	2.1	1	0.847	0.000	L	18	0.8	1227.608	1228.718	1229.566	1229.568	0
1	22072001	319	High	1.5	Precise	1	15	1	9	1.4	2.1	0.3	9	15	1	0.3	1.4	2.1	3	0.716	0.000	L	9	0.3	1230.071	1232.769	1233.486	1233.488	0
1	22072001	320	High	1.5	Precise	1	15	8	14	1.4	2.5	0.7	14	15	8	0.7	1.4	2.5	2	0.907	0.000	R	8	2.5	1233.991	1235.187	1236.094	1236.096	0
1	22072001	321	High	1.5	Precise	1	15	8	17	1.4	2.5	0.4	17	15	8	0.4	1.4	2.5	2	0.728	0.000	R	8	2.5	1236.599	1237.973	1238.702	1238.704	0
1	22072001	322	High	1.5	Precise	1	15	11	9	1.4	3.9	0.3	15	11	9	1.4	3.9	0.3	3	0.843	0.000	R	9	0.3	1239.206	1241.314	1242.158	1242.160	0
1	22072001	323	High	1.5	Precise	1	18	15	4	0.8	1.4	0.4	4	15	18	0.4	1.4	0.8	1	0.716	0.000	R	18	0.8	1242.662	1244.561	1245.278	1245.280	0
1	22072001	324	High	1.5	Vague	2	3	11	24	0.8	3.9	0.6	3	24	11	0.8	0.6	3.9	2	0.746	0.000	R	11	3.9	1245.783	1248.404	1249.150	1249.152	0
1	22072001	325	High	1.5	Vague	2	1	11	23	2.1	3.9	0.3	1	11	23	2.1	3.9	0.3	2	1.012	0.000	D	11	3.9	1249.655	1250.266	1251.278	1251.280	0
1	22072001	326	High	1.5	Precise	1	3	15	14	0.8	1.4	0.7	3	15	14	0.8	1.4	0.7	1	1.474	0.000	L	3	0.8	1251.783	1253.964	1255.438	1255.440	0
1	22072001	327	High	1.5	Precise	1	18	11	4	0.8	3.9	0.4	18	11	4	0.8	3.9	0.4	1	0.724	0.000	L	18	0.8	1255.943	1258.089	1258.814	1258.817	0
1	22072001	328	High	1.5	Vague	2	15	8	31	1.4	2.5	0.5	15	31	8	1.4	0.5	2.5	2	0.740	0.001	R	8	2.5	1259.320	1261.594	1262.334	1262.336	0
1	22072001	329	High	1.5	Precise	1	3	8	4	0.8	2.5	0.4	3	4	8	0.8	0.4	2.5	1	0.806	0.000	L	3	0.8	1262.839	1264.103	1264.910	1264.912	0
1	22072001	330	High	1.5	Precise	1	1	11	5	2.1	3.9	0.2	5	11	1	0.2	3.9	2.1	3	0.793	0.000	L	5	0.2	1265.414	1268.261	1269.054	1269.056	0
1	22072001	331	High	1.5	Vague	2	3	8	24	0.8	2.5	0.6	24	3	8	0.6	0.8	2.5	2	0.702	0.000	R	8	2.5	1269.559	1272.432	1273.134	1273.136	0
1	22072001	332	High	1.5	Vague	2	15	11	27	1.4	3.9	0.4	27	15	11	0.4	1.4	3.9	3	0.733	0.001	L	27	0.4	1273.638	1275.729	1276.462	1276.464	0
1	22072001	333	High	1.5	Precise	1	15	8	9	1.4	2.5	0.3	8	9	15	2.5	0.3	1.4	2	0.740	0.000	L	8	2.5	1276.968	1279.769	1280.510	1280.512	0
1	22072001	334	High	1.5	Vague	2	18	15	21	0.8	1.4	0.4	21	15	18	0.4	1.4	0.8	1	1.419	0.000	R	18	0.8	1281.015	1281.635	1283.054	1283.056	0
1	22072001	335	High	1.5	Precise	1	1	8	14	2.1	2.5	0.7	8	1	14	2.5	2.1	0.7	1	1.136	0.000	D	1	2.1	1283.559	1284.574	1285.710	1285.712	0
1	22072001	336	High	1.5	Precise	1	18	3	17	0.8	0.8	0.4	3	17	18	0.8	0.4	0.8	1	1.457	0.000	R	18	0.8	1286.215	1288.812	1290.270	1290.272	0
1	22072001	337	High	1.5	Vague	2	15	8	23	1.4	2.5	0.3	8	23	15	2.5	0.3	1.4	2	0.642	0.000	L	8	2.5	1290.775	1293.611	1294.254	1294.256	0
1	22072001	338	High	1.5	Precise	1	3	11	13	0.8	3.9	0.5	11	13	3	3.9	0.5	0.8	2	0.895	0.000	L	11	3.9	1294.758	1297.727	1298.622	1298.624	0
1	22072001	339	High	1.5	Vague	2	3	11	21	0.8	3.9	0.4	11	21	3	3.9	0.4	0.8	2	0.721	0.000	L	11	3.9	1299.128	1300.701	1301.422	1301.424	0
1	22072001	340	High	1.5	Precise	1	1	11	4	2.1	3.9	0.4	4	11	1	0.4	3.9	2.1	2	1.275	0.000	D	11	3.9	1301.926	1304.803	1306.078	1306.080	0
1	22072001	341	High	1.5	Vague	2	15	8	27	1.4	2.5	0.4	15	8	27	1.4	2.5	0.4	3	0.708	0.000	R	27	0.4	1306.583	1307.626	1308.334	1308.336	0
1	22072001	342	High	1.5	Precise	1	18	11	5	0.8	3.9	0.2	5	11	18	0.2	3.9	0.8	2	1.025	0.001	D	11	3.9	1308.839	1311.261	1312.286	1312.288	0
1	22072001	343	High	1.5	Vague	2	15	1	23	1.4	2.1	0.3	1	23	15	2.1	0.3	1.4	1	1.030	0.001	R	15	1.4	1312.791	1314.120	1315.150	1315.152	0
1	22072001	344	High	1.5	Vague	2	3	1	30	0.8	2.1	0.7	1	30	3	2.1	0.7	0.8	2	1.261	0.001	L	1	2.1	1315.655	1318.465	1319.726	1319.729	0
1	22072001	345	High	1.5	Vague	2	15	1	27	1.4	2.1	0.4	27	15	1	0.4	1.4	2.1	3	0.610	0.000	L	27	0.4	1320.231	1322.636	1323.246	1323.248	0
1	22072001	346	High	1.5	Precise	1	3	11	9	0.8	3.9	0.3	9	11	3	0.3	3.9	0.8	3	1.026	0.000	L	9	0.3	1323.750	1324.939	1325.966	1325.968	0
1	22072001	347	High	1.5	Vague	2	15	1	24	1.4	2.1	0.6	1	24	15	2.1	0.6	1.4	2	1.446	0.000	L	1	2.1	1326.471	1329.336	1330.782	1330.785	0
1	22072001	348	High	1.5	Precise	1	3	1	9	0.8	2.1	0.3	9	1	3	0.3	2.1	0.8	3	1.024	0.001	L	9	0.3	1331.288	1332.318	1333.342	1333.344	0
1	22072001	349	High	1.5	Precise	1	1	8	13	2.1	2.5	0.5	13	8	1	0.5	2.5	2.1	2	1.155	0.001	D	8	2.5	1333.847	1335.675	1336.830	1336.833	0
1	22072001	350	High	1.5	Precise	1	18	1	5	0.8	2.1	0.2	18	1	5	0.8	2.1	0.2	1	1.109	0.000	L	18	0.8	1337.335	1338.473	1339.582	1339.584	0
1	22072001	351	High	1.5	Vague	2	15	1	31	1.4	2.1	0.5	15	1	31	1.4	2.1	0.5	2	0.997	0.000	D	1	2.1	1340.087	1341.593	1342.590	1342.592	0
1	22072001	352	High	1.5	Precise	1	15	1	17	1.4	2.1	0.4	1	17	15	2.1	0.4	1.4	1	0.663	0.001	R	15	1.4	1343.095	1345.511	1346.174	1346.176	0
1	22072001	353	High	1.5	Vague	2	15	1	21	1.4	2.1	0.4	21	15	1	0.4	1.4	2.1	1	1.380	0.000	D	15	1.4	1346.679	1348.890	1350.270	1350.272	0
1	22072001	354	High	1.5	Precise	1	15	1	13	1.4	2.1	0.5	1	13	15	2.1	0.5	1.4	1	1.137	0.001	R	15	1.4	1350.775	1351.517	1352.654	1352.656	0
1	22072001	355	High	1.5	Vague	2	3	1	31	0.8	2.1	0.5	1	3	31	2.1	0.8	0.5	3	1.243	0.001	R	31	0.5	1353.159	1354.995	1356.238	1356.241	0
1	22072001	356	High	1.5	Vague	2	3	1	24	0.8	2.1	0.6	3	1	24	0.8	2.1	0.6	2	1.469	0.000	D	1	2.1	1356.744	1359.345	1360.814	1360.816	0
1	22072001	357	High	1.5	Vague	2	18	3	23	0.8	0.8	0.3	18	23	3	0.8	0.3	0.8	2	1.038	0.000	R	3	0.8	1361.319	1363.520	1364.558	1364.560	0
1	22072001	358	High	1.5	Precise	1	3	1	17	0.8	2.1	0.4	3	17	1	0.8	0.4	2.1	1	1.193	0.000	L	3	0.8	1365.063	1367.204	1368.398	1368.400	0
1	22072001	359	High	1.5	Precise	1	15	1	14	1.4	2.1	0.7	15	1	14	1.4	2.1	0.7	NaN	NaN	NaN	NaN	NaN	NaN	1368.902	1369.424	NaN	1370.911	1
1	22072001	360	High	1.5	Precise	1	3	8	17	0.8	2.5	0.4	3	8	17	0.8	2.5	0.4	NaN	NaN	NaN	NaN	NaN	NaN	1372.914	1375.654	NaN	1377.141	1
