Group	subID	trial	TimePressure	TimeConstraint	Vagueness	Vaguenesscode	ID1	ID2	ID3	V1	V2	V3	ID_left	ID_middle	ID_right	Bid_left	Bid_middle	Bid_right	chosenItem	RT	RTvariance	chosenPosition	chosenID	chosenValue	fixation_time	option_time	choice_time	feedback_time	timeout
2	22071901	1	Low	10.0	Vague	2	30	36	2	14.7	20.0	0.2	2	30	36	0.2	14.7	20.0	2	5.593	0.000	R	36	20.0	6.482	8.886	14.479	14.483	0
2	22071901	2	Low	10.0	Precise	1	35	26	23	25.0	25.7	0.0	23	35	26	0.0	25.0	25.7	2	3.638	0.000	R	26	25.7	14.987	17.905	21.543	21.546	0
2	22071901	3	Low	10.0	Vague	2	36	33	2	20.0	26.3	0.2	33	2	36	26.3	0.2	20.0	2	3.842	0.000	L	33	26.3	22.050	22.550	26.391	26.394	0
2	22071901	4	Low	10.0	Precise	1	34	26	20	25.0	25.7	0.0	26	20	34	25.7	0.0	25.0	1	2.275	0.000	R	34	25.0	26.899	27.604	29.879	29.882	0
2	22071901	5	Low	10.0	Vague	2	30	35	4	14.7	25.0	1.0	35	30	4	25.0	14.7	1.0	2	5.714	0.001	L	35	25.0	30.388	31.573	37.287	37.292	0
2	22071901	6	Low	10.0	Precise	1	30	26	31	14.7	25.7	14.5	31	30	26	14.5	14.7	25.7	2	2.702	0.001	R	26	25.7	37.797	40.729	43.432	43.434	0
2	22071901	7	Low	10.0	Precise	1	26	33	29	25.7	26.3	7.0	29	33	26	7.0	26.3	25.7	1	3.049	0.000	R	26	25.7	43.937	45.550	48.599	48.602	0
2	22071901	8	Low	10.0	Precise	1	35	26	29	25.0	25.7	7.0	35	26	29	25.0	25.7	7.0	2	3.271	0.000	D	26	25.7	49.104	49.809	53.079	53.082	0
2	22071901	9	Low	10.0	Vague	2	36	35	5	20.0	25.0	0.7	35	36	5	25.0	20.0	0.7	2	2.685	0.000	L	35	25.0	53.585	54.986	57.671	57.674	0
2	22071901	10	Low	10.0	Vague	2	26	33	5	25.7	26.3	0.7	26	33	5	25.7	26.3	0.7	1	2.966	0.000	L	26	25.7	58.176	60.169	63.135	63.138	0
2	22071901	11	Low	10.0	Precise	1	36	33	22	20.0	26.3	1.7	22	33	36	1.7	26.3	20.0	2	2.540	0.001	D	33	26.3	63.641	64.844	67.383	67.386	0
2	22071901	12	Low	10.0	Precise	1	36	26	20	20.0	25.7	0.0	20	36	26	0.0	20.0	25.7	2	1.615	0.000	R	26	25.7	67.889	68.720	70.335	70.338	0
2	22071901	13	Low	10.0	Vague	2	34	35	5	25.0	25.0	0.7	5	34	35	0.7	25.0	25.0	2	6.635	0.000	R	35	25.0	70.841	73.780	80.415	80.418	0
2	22071901	14	Low	10.0	Precise	1	30	35	31	14.7	25.0	14.5	35	31	30	25.0	14.5	14.7	2	3.396	0.001	L	35	25.0	80.920	83.452	86.847	86.851	0
2	22071901	15	Low	10.0	Vague	2	36	34	4	20.0	25.0	1.0	4	36	34	1.0	20.0	25.0	2	1.966	0.001	R	34	25.0	87.353	88.641	90.607	90.610	0
2	22071901	16	Low	10.0	Vague	2	34	35	4	25.0	25.0	1.0	34	35	4	25.0	25.0	1.0	2	2.880	0.000	D	35	25.0	91.113	92.800	95.679	95.682	0
2	22071901	17	Low	10.0	Precise	1	35	33	29	25.0	26.3	7.0	29	33	35	7.0	26.3	25.0	1	2.581	0.000	R	35	25.0	96.185	97.139	99.719	99.722	0
2	22071901	18	Low	10.0	Precise	1	30	34	23	14.7	25.0	0.0	34	23	30	25.0	0.0	14.7	2	2.239	0.000	L	34	25.0	100.224	101.688	103.927	103.930	0
2	22071901	19	Low	10.0	Precise	1	36	35	22	20.0	25.0	1.7	36	35	22	20.0	25.0	1.7	2	1.708	0.000	D	35	25.0	104.433	107.195	108.903	108.906	0
2	22071901	20	Low	10.0	Vague	2	26	33	7	25.7	26.3	1.0	7	26	33	1.0	25.7	26.3	1	2.664	0.001	D	26	25.7	109.409	112.207	114.871	114.874	0
2	22071901	21	Low	10.0	Vague	2	34	26	4	25.0	25.7	1.0	34	26	4	25.0	25.7	1.0	2	2.272	0.000	D	26	25.7	115.377	115.967	118.239	118.242	0
2	22071901	22	Low	10.0	Precise	1	30	36	25	14.7	20.0	4.2	36	30	25	20.0	14.7	4.2	2	6.795	0.000	L	36	20.0	118.746	120.588	127.383	127.386	0
2	22071901	23	Low	10.0	Precise	1	30	35	20	14.7	25.0	0.0	30	35	20	14.7	25.0	0.0	2	1.664	0.000	D	35	25.0	127.888	128.464	130.127	130.130	0
2	22071901	24	Low	10.0	Precise	1	30	33	31	14.7	26.3	14.5	31	30	33	14.5	14.7	26.3	2	4.739	0.000	R	33	26.3	130.633	133.372	138.111	138.114	0
2	22071901	25	Low	10.0	Precise	1	36	34	20	20.0	25.0	0.0	20	34	36	0.0	25.0	20.0	2	3.565	0.001	D	34	25.0	138.617	140.770	144.335	144.338	0
2	22071901	26	Low	10.0	Precise	1	34	33	23	25.0	26.3	0.0	33	23	34	26.3	0.0	25.0	1	3.124	0.000	R	34	25.0	144.840	146.907	150.031	150.034	0
2	22071901	27	Low	10.0	Vague	2	36	33	14	20.0	26.3	6.3	33	14	36	26.3	6.3	20.0	2	3.161	0.001	L	33	26.3	150.536	151.534	154.695	154.698	0
2	22071901	28	Low	10.0	Precise	1	34	26	22	25.0	25.7	1.7	22	34	26	1.7	25.0	25.7	2	1.973	0.000	R	26	25.7	155.200	157.130	159.103	159.106	0
2	22071901	29	Low	10.0	Vague	2	36	26	7	20.0	25.7	1.0	7	26	36	1.0	25.7	20.0	2	2.594	0.000	D	26	25.7	159.608	162.437	165.031	165.034	0
2	22071901	30	Low	10.0	Vague	2	35	26	7	25.0	25.7	1.0	7	26	35	1.0	25.7	25.0	2	1.598	0.000	D	26	25.7	165.536	167.233	168.831	168.834	0
2	22071901	31	Low	10.0	Precise	1	30	36	20	14.7	20.0	0.0	36	20	30	20.0	0.0	14.7	2	3.101	0.000	L	36	20.0	169.337	171.410	174.511	174.514	0
2	22071901	32	Low	10.0	Precise	1	36	33	23	20.0	26.3	0.0	23	36	33	0.0	20.0	26.3	2	2.987	0.000	R	33	26.3	175.016	176.436	179.423	179.426	0
2	22071901	33	Low	10.0	Vague	2	30	34	8	14.7	25.0	14.8	8	34	30	14.8	25.0	14.7	2	3.153	0.000	D	34	25.0	179.928	180.814	183.967	183.969	0
2	22071901	34	Low	10.0	Vague	2	34	33	4	25.0	26.3	1.0	4	34	33	1.0	25.0	26.3	1	2.052	0.000	D	34	25.0	184.473	186.667	188.719	188.722	0
2	22071901	35	Low	10.0	Vague	2	35	33	7	25.0	26.3	1.0	33	35	7	26.3	25.0	1.0	1	2.217	0.000	D	35	25.0	189.226	191.454	193.671	193.674	0
2	22071901	36	Low	10.0	Vague	2	30	36	5	14.7	20.0	0.7	30	5	36	14.7	0.7	20.0	2	2.657	0.001	R	36	20.0	194.177	196.983	199.639	199.642	0
2	22071901	37	Low	10.0	Vague	2	36	26	2	20.0	25.7	0.2	26	2	36	25.7	0.2	20.0	2	2.115	0.001	L	26	25.7	200.145	201.021	203.135	203.138	0
2	22071901	38	Low	10.0	Vague	2	26	33	4	25.7	26.3	1.0	26	33	4	25.7	26.3	1.0	1	2.107	0.001	L	26	25.7	203.641	205.540	207.647	207.650	0
2	22071901	39	Low	10.0	Vague	2	34	35	14	25.0	25.0	6.3	14	35	34	6.3	25.0	25.0	2	2.841	0.001	D	35	25.0	208.153	210.478	213.319	213.322	0
2	22071901	40	Low	10.0	Vague	2	30	26	14	14.7	25.7	6.3	30	14	26	14.7	6.3	25.7	2	2.803	0.000	R	26	25.7	213.825	215.772	218.575	218.577	0
2	22071901	41	Low	10.0	Precise	1	36	33	20	20.0	26.3	0.0	33	36	20	26.3	20.0	0.0	2	2.055	0.000	L	33	26.3	219.081	219.672	221.727	221.729	0
2	22071901	42	Low	10.0	Vague	2	30	26	4	14.7	25.7	1.0	4	30	26	1.0	14.7	25.7	2	2.241	0.000	R	26	25.7	222.232	224.054	226.295	226.298	0
2	22071901	43	Low	10.0	Precise	1	36	33	25	20.0	26.3	4.2	33	36	25	26.3	20.0	4.2	2	2.166	0.000	L	33	26.3	226.800	228.321	230.487	230.490	0
2	22071901	44	Low	10.0	Vague	2	36	33	7	20.0	26.3	1.0	36	33	7	20.0	26.3	1.0	2	2.450	0.000	D	33	26.3	230.993	232.117	234.567	234.569	0
2	22071901	45	Low	10.0	Vague	2	35	26	14	25.0	25.7	6.3	26	35	14	25.7	25.0	6.3	1	4.371	0.000	D	35	25.0	235.072	237.668	242.039	242.042	0
2	22071901	46	Low	10.0	Precise	1	36	35	20	20.0	25.0	0.0	20	35	36	0.0	25.0	20.0	2	1.917	0.000	D	35	25.0	242.545	245.266	247.183	247.186	0
2	22071901	47	Low	10.0	Vague	2	35	26	5	25.0	25.7	0.7	35	5	26	25.0	0.7	25.7	2	3.547	0.000	R	26	25.7	247.688	249.036	252.583	252.586	0
2	22071901	48	Low	10.0	Precise	1	34	33	25	25.0	26.3	4.2	33	34	25	26.3	25.0	4.2	1	3.569	0.001	D	34	25.0	253.089	255.358	258.927	258.930	0
2	22071901	49	Low	10.0	Vague	2	36	35	2	20.0	25.0	0.2	36	35	2	20.0	25.0	0.2	2	1.691	0.000	D	35	25.0	259.433	260.716	262.407	262.409	0
2	22071901	50	Low	10.0	Precise	1	34	35	22	25.0	25.0	1.7	22	34	35	1.7	25.0	25.0	2	3.421	0.000	R	35	25.0	262.912	264.730	268.151	268.154	0
2	22071901	51	Low	10.0	Precise	1	36	33	29	20.0	26.3	7.0	36	33	29	20.0	26.3	7.0	2	2.962	0.001	D	33	26.3	268.656	269.269	272.231	272.234	0
2	22071901	52	Low	10.0	Precise	1	35	33	20	25.0	26.3	0.0	33	20	35	26.3	0.0	25.0	1	1.203	0.000	R	35	25.0	272.736	275.492	276.695	276.698	0
2	22071901	53	Low	10.0	Precise	1	30	36	23	14.7	20.0	0.0	36	30	23	20.0	14.7	0.0	2	1.949	0.000	L	36	20.0	277.201	278.002	279.951	279.953	0
2	22071901	54	Low	10.0	Vague	2	30	34	7	14.7	25.0	1.0	30	34	7	14.7	25.0	1.0	2	1.480	0.001	D	34	25.0	280.456	282.935	284.415	284.418	0
2	22071901	55	Low	10.0	Precise	1	34	26	31	25.0	25.7	14.5	26	34	31	25.7	25.0	14.5	2	5.758	0.000	L	26	25.7	284.920	287.545	293.303	293.306	0
2	22071901	56	Low	10.0	Vague	2	30	26	5	14.7	25.7	0.7	5	30	26	0.7	14.7	25.7	2	1.424	0.000	R	26	25.7	293.809	296.775	298.199	298.201	0
2	22071901	57	Low	10.0	Precise	1	36	26	23	20.0	25.7	0.0	23	26	36	0.0	25.7	20.0	2	2.140	0.000	D	26	25.7	298.705	299.979	302.119	302.122	0
2	22071901	58	Low	10.0	Vague	2	30	35	7	14.7	25.0	1.0	35	30	7	25.0	14.7	1.0	2	1.139	0.000	L	35	25.0	302.624	305.107	306.247	306.250	0
2	22071901	59	Low	10.0	Vague	2	34	33	2	25.0	26.3	0.2	2	33	34	0.2	26.3	25.0	1	1.692	0.000	R	34	25.0	306.752	309.371	311.063	311.066	0
2	22071901	60	Low	10.0	Vague	2	30	34	4	14.7	25.0	1.0	30	4	34	14.7	1.0	25.0	2	1.322	0.000	R	34	25.0	311.568	313.157	314.479	314.482	0
2	22071901	61	Low	10.0	Precise	1	30	35	23	14.7	25.0	0.0	35	23	30	25.0	0.0	14.7	2	0.963	0.000	L	35	25.0	328.226	331.124	332.087	332.090	0
2	22071901	62	Low	10.0	Precise	1	34	35	31	25.0	25.0	14.5	34	31	35	25.0	14.5	25.0	2	1.782	0.000	R	35	25.0	332.593	335.017	336.799	336.801	0
2	22071901	63	Low	10.0	Vague	2	36	35	7	20.0	25.0	1.0	36	7	35	20.0	1.0	25.0	2	1.394	0.000	R	35	25.0	337.305	338.517	339.911	339.913	0
2	22071901	64	Low	10.0	Vague	2	26	33	2	25.7	26.3	0.2	2	26	33	0.2	25.7	26.3	1	1.145	0.000	D	26	25.7	340.416	342.966	344.111	344.114	0
2	22071901	65	Low	10.0	Precise	1	35	26	25	25.0	25.7	4.2	25	35	26	4.2	25.0	25.7	2	1.637	0.000	R	26	25.7	344.616	346.322	347.959	347.961	0
2	22071901	66	Low	10.0	Vague	2	34	33	5	25.0	26.3	0.7	33	5	34	26.3	0.7	25.0	1	1.022	0.000	R	34	25.0	348.464	350.594	351.615	351.618	0
2	22071901	67	Low	10.0	Vague	2	35	33	8	25.0	26.3	14.8	35	8	33	25.0	14.8	26.3	1	1.361	0.001	L	35	25.0	352.121	353.894	355.255	355.258	0
2	22071901	68	Low	10.0	Precise	1	30	26	23	14.7	25.7	0.0	30	23	26	14.7	0.0	25.7	2	1.034	0.001	R	26	25.7	355.761	358.637	359.671	359.674	0
2	22071901	69	Low	10.0	Vague	2	35	33	5	25.0	26.3	0.7	33	5	35	26.3	0.7	25.0	1	1.048	0.000	R	35	25.0	360.176	361.712	362.759	362.762	0
2	22071901	70	Low	10.0	Vague	2	30	35	2	14.7	25.0	0.2	35	2	30	25.0	0.2	14.7	2	0.828	0.001	L	35	25.0	363.264	365.524	366.351	366.354	0
2	22071901	71	Low	10.0	Precise	1	34	35	25	25.0	25.0	4.2	35	25	34	25.0	4.2	25.0	2	2.535	0.000	L	35	25.0	366.856	369.416	371.951	371.953	0
2	22071901	72	Low	10.0	Vague	2	30	33	2	14.7	26.3	0.2	2	33	30	0.2	26.3	14.7	2	2.531	0.001	D	33	26.3	372.457	375.389	377.919	377.922	0
2	22071901	73	Low	10.0	Precise	1	30	34	29	14.7	25.0	7.0	30	34	29	14.7	25.0	7.0	2	1.194	0.000	D	34	25.0	378.424	379.165	380.359	380.362	0
2	22071901	74	Low	10.0	Precise	1	35	33	31	25.0	26.3	14.5	31	35	33	14.5	25.0	26.3	1	1.458	0.001	D	35	25.0	380.865	382.549	384.007	384.010	0
2	22071901	75	Low	10.0	Precise	1	36	34	29	20.0	25.0	7.0	34	36	29	25.0	20.0	7.0	2	1.881	0.000	L	34	25.0	384.512	386.982	388.863	388.866	0
2	22071901	76	Low	10.0	Precise	1	34	35	29	25.0	25.0	7.0	35	29	34	25.0	7.0	25.0	1	3.186	0.001	R	34	25.0	389.368	391.086	394.271	394.274	0
2	22071901	77	Low	10.0	Vague	2	30	33	7	14.7	26.3	1.0	30	7	33	14.7	1.0	26.3	2	2.584	0.000	R	33	26.3	394.776	396.943	399.527	399.530	0
2	22071901	78	Low	10.0	Vague	2	36	33	4	20.0	26.3	1.0	4	33	36	1.0	26.3	20.0	2	1.729	0.001	D	33	26.3	400.033	401.878	403.607	403.610	0
2	22071901	79	Low	10.0	Vague	2	35	26	8	25.0	25.7	14.8	8	26	35	14.8	25.7	25.0	2	2.386	0.000	D	26	25.7	404.114	406.597	408.983	408.986	0
2	22071901	80	Low	10.0	Vague	2	34	26	2	25.0	25.7	0.2	34	2	26	25.0	0.2	25.7	2	2.588	0.000	R	26	25.7	409.489	410.859	413.447	413.450	0
2	22071901	81	Low	10.0	Precise	1	26	33	20	25.7	26.3	0.0	26	33	20	25.7	26.3	0.0	1	1.652	0.001	L	26	25.7	413.953	415.395	417.047	417.050	0
2	22071901	82	Low	10.0	Precise	1	36	34	22	20.0	25.0	1.7	22	34	36	1.7	25.0	20.0	2	1.887	0.000	D	34	25.0	417.553	419.408	421.295	421.298	0
2	22071901	83	Low	10.0	Precise	1	36	35	23	20.0	25.0	0.0	23	35	36	0.0	25.0	20.0	2	1.330	0.000	D	35	25.0	421.801	423.821	425.151	425.154	0
2	22071901	84	Low	10.0	Vague	2	26	33	14	25.7	26.3	6.3	26	14	33	25.7	6.3	26.3	1	1.531	0.000	L	26	25.7	425.657	426.924	428.455	428.457	0
2	22071901	85	Low	10.0	Vague	2	36	26	4	20.0	25.7	1.0	26	4	36	25.7	1.0	20.0	2	1.349	0.000	L	26	25.7	428.961	430.058	431.407	431.409	0
2	22071901	86	Low	10.0	Precise	1	30	34	22	14.7	25.0	1.7	30	22	34	14.7	1.7	25.0	2	1.524	0.000	R	34	25.0	431.913	434.875	436.399	436.402	0
2	22071901	87	Low	10.0	Vague	2	35	26	2	25.0	25.7	0.2	2	26	35	0.2	25.7	25.0	1	1.221	0.000	R	35	25.0	436.905	439.730	440.951	440.954	0
2	22071901	88	Low	10.0	Vague	2	36	34	2	20.0	25.0	0.2	36	34	2	20.0	25.0	0.2	2	1.310	0.001	D	34	25.0	441.457	444.378	445.687	445.690	0
2	22071901	89	Low	10.0	Vague	2	36	34	5	20.0	25.0	0.7	36	34	5	20.0	25.0	0.7	2	1.290	0.001	D	34	25.0	446.192	447.293	448.583	448.586	0
2	22071901	90	Low	10.0	Precise	1	26	33	22	25.7	26.3	1.7	26	22	33	25.7	1.7	26.3	1	1.305	0.000	L	26	25.7	449.089	450.486	451.791	451.794	0
2	22071901	91	Low	10.0	Vague	2	34	35	2	25.0	25.0	0.2	35	2	34	25.0	0.2	25.0	2	2.393	0.000	L	35	25.0	452.297	455.014	457.407	457.410	0
2	22071901	92	Low	10.0	Precise	1	34	33	31	25.0	26.3	14.5	33	34	31	26.3	25.0	14.5	1	2.861	0.000	D	34	25.0	457.913	458.435	461.295	461.298	0
2	22071901	93	Low	10.0	Vague	2	34	33	14	25.0	26.3	6.3	33	34	14	26.3	25.0	6.3	1	1.572	0.000	D	34	25.0	461.800	464.571	466.143	466.146	0
2	22071901	94	Low	10.0	Vague	2	36	33	5	20.0	26.3	0.7	36	5	33	20.0	0.7	26.3	3	3.461	0.000	D	5	0.7	466.649	468.346	471.807	471.809	0
2	22071901	95	Low	10.0	Vague	2	35	33	14	25.0	26.3	6.3	14	35	33	6.3	25.0	26.3	1	2.634	0.000	D	35	25.0	472.313	473.709	476.343	476.345	0
2	22071901	96	Low	10.0	Precise	1	35	26	22	25.0	25.7	1.7	35	26	22	25.0	25.7	1.7	2	2.631	0.000	D	26	25.7	476.848	477.456	480.087	480.089	0
2	22071901	97	Low	10.0	Vague	2	30	36	4	14.7	20.0	1.0	30	4	36	14.7	1.0	20.0	2	4.290	0.001	R	36	20.0	480.592	482.630	486.919	486.922	0
2	22071901	98	Low	10.0	Precise	1	30	34	20	14.7	25.0	0.0	20	30	34	0.0	14.7	25.0	2	1.485	0.000	R	34	25.0	487.425	487.938	489.423	489.426	0
2	22071901	99	Low	10.0	Precise	1	30	33	20	14.7	26.3	0.0	30	20	33	14.7	0.0	26.3	2	1.812	0.000	R	33	26.3	489.929	491.675	493.487	493.489	0
2	22071901	100	Low	10.0	Vague	2	36	35	14	20.0	25.0	6.3	14	35	36	6.3	25.0	20.0	2	1.791	0.001	D	35	25.0	493.992	495.648	497.439	497.442	0
2	22071901	101	Low	10.0	Vague	2	30	33	8	14.7	26.3	14.8	30	8	33	14.7	14.8	26.3	2	2.634	0.000	R	33	26.3	497.945	500.525	503.159	503.162	0
2	22071901	102	Low	10.0	Vague	2	30	26	7	14.7	25.7	1.0	30	26	7	14.7	25.7	1.0	2	2.113	0.000	D	26	25.7	503.665	505.022	507.135	507.138	0
2	22071901	103	Low	10.0	Vague	2	30	35	14	14.7	25.0	6.3	35	14	30	25.0	6.3	14.7	2	1.513	0.001	L	35	25.0	507.640	509.790	511.303	511.306	0
2	22071901	104	Low	10.0	Precise	1	34	35	20	25.0	25.0	0.0	20	34	35	0.0	25.0	25.0	2	2.667	0.000	R	35	25.0	511.809	512.836	515.503	515.506	0
2	22071901	105	Low	10.0	Vague	2	30	33	14	14.7	26.3	6.3	30	33	14	14.7	26.3	6.3	2	2.116	0.001	D	33	26.3	516.008	518.851	520.967	520.970	0
2	22071901	106	Low	10.0	Precise	1	35	33	23	25.0	26.3	0.0	23	35	33	0.0	25.0	26.3	1	1.557	0.000	D	35	25.0	521.473	523.554	525.111	525.114	0
2	22071901	107	Low	10.0	Precise	1	26	33	25	25.7	26.3	4.2	33	25	26	26.3	4.2	25.7	1	1.704	0.000	R	26	25.7	525.616	528.232	529.935	529.938	0
2	22071901	108	Low	10.0	Vague	2	35	33	2	25.0	26.3	0.2	2	35	33	0.2	25.0	26.3	1	1.188	0.000	D	35	25.0	530.441	533.331	534.519	534.522	0
2	22071901	109	Low	10.0	Precise	1	30	26	25	14.7	25.7	4.2	25	26	30	4.2	25.7	14.7	2	0.881	0.000	D	26	25.7	535.024	537.942	538.823	538.825	0
2	22071901	110	Low	10.0	Vague	2	30	36	14	14.7	20.0	6.3	30	14	36	14.7	6.3	20.0	2	1.964	0.001	R	36	20.0	539.328	540.116	542.079	542.082	0
2	22071901	111	Low	10.0	Vague	2	30	33	5	14.7	26.3	0.7	30	33	5	14.7	26.3	0.7	2	1.457	0.000	D	33	26.3	542.585	544.198	545.655	545.658	0
2	22071901	112	Low	10.0	Precise	1	30	34	31	14.7	25.0	14.5	31	30	34	14.5	14.7	25.0	2	1.729	0.000	R	34	25.0	546.161	547.198	548.927	548.930	0
2	22071901	113	Low	10.0	Precise	1	35	33	25	25.0	26.3	4.2	25	33	35	4.2	26.3	25.0	1	1.594	0.001	R	35	25.0	549.433	550.485	552.079	552.082	0
2	22071901	114	Low	10.0	Precise	1	34	33	22	25.0	26.3	1.7	34	22	33	25.0	1.7	26.3	1	1.403	0.000	L	34	25.0	552.585	555.012	556.415	556.417	0
2	22071901	115	Low	10.0	Precise	1	30	35	22	14.7	25.0	1.7	35	22	30	25.0	1.7	14.7	2	1.096	0.000	L	35	25.0	556.921	557.623	558.719	558.722	0
2	22071901	116	Low	10.0	Precise	1	34	35	23	25.0	25.0	0.0	34	23	35	25.0	0.0	25.0	1	1.242	0.001	L	34	25.0	559.224	559.829	561.071	561.073	0
2	22071901	117	Low	10.0	Precise	1	36	34	23	20.0	25.0	0.0	36	23	34	20.0	0.0	25.0	2	0.974	0.000	R	34	25.0	561.576	562.905	563.879	563.882	0
2	22071901	118	Low	10.0	Vague	2	30	34	2	14.7	25.0	0.2	30	34	2	14.7	25.0	0.2	2	0.883	0.001	D	34	25.0	564.384	566.332	567.215	567.218	0
2	22071901	119	Low	10.0	Vague	2	36	35	8	20.0	25.0	14.8	35	36	8	25.0	20.0	14.8	2	1.492	0.000	L	35	25.0	567.722	570.602	572.095	572.097	0
2	22071901	120	Low	10.0	Vague	2	30	26	2	14.7	25.7	0.2	2	30	26	0.2	14.7	25.7	2	1.139	0.000	R	26	25.7	572.601	573.124	574.263	574.265	0
2	22071901	121	Low	10.0	Vague	2	30	33	4	14.7	26.3	1.0	30	33	4	14.7	26.3	1.0	2	1.146	0.000	D	33	26.3	586.715	588.181	589.327	589.329	0
2	22071901	122	Low	10.0	Vague	2	36	26	14	20.0	25.7	6.3	36	26	14	20.0	25.7	6.3	2	1.082	0.001	D	26	25.7	589.832	592.805	593.887	593.889	0
2	22071901	123	Low	10.0	Precise	1	36	35	29	20.0	25.0	7.0	35	29	36	25.0	7.0	20.0	2	1.029	0.000	L	35	25.0	594.392	595.723	596.751	596.753	0
2	22071901	124	Low	10.0	Vague	2	36	26	5	20.0	25.7	0.7	26	5	36	25.7	0.7	20.0	2	0.996	0.000	L	26	25.7	597.257	599.243	600.239	600.242	0
2	22071901	125	Low	10.0	Precise	1	36	35	25	20.0	25.0	4.2	36	35	25	20.0	25.0	4.2	2	1.040	0.001	D	35	25.0	600.745	601.584	602.623	602.626	0
2	22071901	126	Low	10.0	Precise	1	30	26	29	14.7	25.7	7.0	26	29	30	25.7	7.0	14.7	2	1.003	0.001	L	26	25.7	603.129	603.644	604.647	604.650	0
2	22071901	127	Low	10.0	Precise	1	30	33	23	14.7	26.3	0.0	33	30	23	26.3	14.7	0.0	2	1.261	0.001	L	33	26.3	605.153	607.035	608.295	608.298	0
2	22071901	128	Low	10.0	Vague	2	36	34	8	20.0	25.0	14.8	36	8	34	20.0	14.8	25.0	2	1.557	0.000	R	34	25.0	608.801	610.234	611.791	611.793	0
2	22071901	129	Low	10.0	Vague	2	34	26	7	25.0	25.7	1.0	26	7	34	25.7	1.0	25.0	2	1.028	0.000	L	26	25.7	612.296	612.819	613.847	613.849	0
2	22071901	130	Low	10.0	Vague	2	26	33	8	25.7	26.3	14.8	8	26	33	14.8	25.7	26.3	1	1.177	0.001	D	26	25.7	614.352	617.166	618.343	618.346	0
2	22071901	131	Low	10.0	Vague	2	34	26	8	25.0	25.7	14.8	8	26	34	14.8	25.7	25.0	1	1.054	0.000	R	34	25.0	618.850	621.514	622.567	622.570	0
2	22071901	132	Low	10.0	Vague	2	36	34	14	20.0	25.0	6.3	34	36	14	25.0	20.0	6.3	2	2.002	0.001	L	34	25.0	623.072	624.005	626.007	626.009	0
2	22071901	133	Low	10.0	Precise	1	35	26	31	25.0	25.7	14.5	35	26	31	25.0	25.7	14.5	2	1.377	0.001	D	26	25.7	626.513	629.102	630.479	630.481	0
2	22071901	134	Low	10.0	Precise	1	34	26	23	25.0	25.7	0.0	23	34	26	0.0	25.0	25.7	1	1.083	0.001	D	34	25.0	630.984	633.932	635.015	635.018	0
2	22071901	135	Low	10.0	Vague	2	34	35	8	25.0	25.0	14.8	8	34	35	14.8	25.0	25.0	2	1.798	0.000	R	35	25.0	635.521	637.609	639.407	639.409	0
2	22071901	136	Low	10.0	Precise	1	34	33	29	25.0	26.3	7.0	29	34	33	7.0	25.0	26.3	1	1.481	0.000	D	34	25.0	639.912	642.607	644.087	644.090	0
2	22071901	137	Low	10.0	Precise	1	30	35	25	14.7	25.0	4.2	35	30	25	25.0	14.7	4.2	2	0.928	0.000	L	35	25.0	644.593	645.336	646.263	646.265	0
2	22071901	138	Low	10.0	Precise	1	30	33	22	14.7	26.3	1.7	30	33	22	14.7	26.3	1.7	2	1.325	0.000	D	33	26.3	646.769	649.050	650.375	650.377	0
2	22071901	139	Low	10.0	Precise	1	26	33	23	25.7	26.3	0.0	23	26	33	0.0	25.7	26.3	1	0.935	0.000	D	26	25.7	650.880	652.200	653.135	653.137	0
2	22071901	140	Low	10.0	Vague	2	30	34	5	14.7	25.0	0.7	34	30	5	25.0	14.7	0.7	2	1.093	0.000	L	34	25.0	653.641	654.402	655.495	655.497	0
2	22071901	141	Low	10.0	Precise	1	36	26	29	20.0	25.7	7.0	36	26	29	20.0	25.7	7.0	2	0.937	0.001	D	26	25.7	656.001	656.951	657.887	657.890	0
2	22071901	142	Low	10.0	Precise	1	35	33	22	25.0	26.3	1.7	33	22	35	26.3	1.7	25.0	1	0.958	0.000	R	35	25.0	658.393	661.353	662.311	662.313	0
2	22071901	143	Low	10.0	Vague	2	35	33	4	25.0	26.3	1.0	35	4	33	25.0	1.0	26.3	1	1.292	0.000	L	35	25.0	662.816	664.803	666.095	666.097	0
2	22071901	144	Low	10.0	Precise	1	30	33	25	14.7	26.3	4.2	25	30	33	4.2	14.7	26.3	2	1.662	0.000	R	33	26.3	666.601	668.825	670.487	670.489	0
2	22071901	145	Low	10.0	Vague	2	36	34	7	20.0	25.0	1.0	36	7	34	20.0	1.0	25.0	2	1.529	0.001	R	34	25.0	670.993	672.711	674.239	674.242	0
2	22071901	146	Low	10.0	Vague	2	34	33	7	25.0	26.3	1.0	34	7	33	25.0	1.0	26.3	1	1.035	0.001	L	34	25.0	674.745	676.524	677.559	677.562	0
2	22071901	147	Low	10.0	Vague	2	36	26	8	20.0	25.7	14.8	36	26	8	20.0	25.7	14.8	2	1.339	0.000	D	26	25.7	678.065	680.387	681.727	681.729	0
2	22071901	148	Low	10.0	Precise	1	34	26	25	25.0	25.7	4.2	25	26	34	4.2	25.7	25.0	1	0.752	0.000	R	34	25.0	682.231	683.711	684.463	684.465	0
2	22071901	149	Low	10.0	Precise	1	30	36	29	14.7	20.0	7.0	30	36	29	14.7	20.0	7.0	2	1.668	0.000	D	36	20.0	684.968	686.107	687.775	687.777	0
2	22071901	150	Low	10.0	Precise	1	30	36	22	14.7	20.0	1.7	36	30	22	20.0	14.7	1.7	2	1.648	0.001	L	36	20.0	688.280	688.983	690.631	690.635	0
2	22071901	151	Low	10.0	Vague	2	36	35	4	20.0	25.0	1.0	36	35	4	20.0	25.0	1.0	2	0.915	0.000	D	35	25.0	691.137	692.972	693.887	693.889	0
2	22071901	152	Low	10.0	Vague	2	30	26	8	14.7	25.7	14.8	26	30	8	25.7	14.7	14.8	2	1.265	0.000	L	26	25.7	694.392	696.438	697.703	697.705	0
2	22071901	153	Low	10.0	Precise	1	36	26	22	20.0	25.7	1.7	36	26	22	20.0	25.7	1.7	2	1.139	0.000	D	26	25.7	698.208	699.116	700.255	700.258	0
2	22071901	154	Low	10.0	Precise	1	36	33	31	20.0	26.3	14.5	36	31	33	20.0	14.5	26.3	1	1.436	0.000	L	36	20.0	700.760	701.851	703.287	703.289	0
2	22071901	155	Low	10.0	Vague	2	35	26	4	25.0	25.7	1.0	26	35	4	25.7	25.0	1.0	2	1.686	0.000	L	26	25.7	703.792	705.105	706.791	706.793	0
2	22071901	156	Low	10.0	Precise	1	30	33	29	14.7	26.3	7.0	30	29	33	14.7	7.0	26.3	2	1.749	0.000	R	33	26.3	707.296	709.562	711.311	711.314	0
2	22071901	157	Low	10.0	Vague	2	34	33	8	25.0	26.3	14.8	33	34	8	26.3	25.0	14.8	1	1.285	0.001	D	34	25.0	711.816	712.946	714.231	714.234	0
2	22071901	158	Low	10.0	Precise	1	36	34	25	20.0	25.0	4.2	25	34	36	4.2	25.0	20.0	2	1.003	0.001	D	34	25.0	714.737	715.709	716.711	716.714	0
2	22071901	159	Low	10.0	Vague	2	30	35	8	14.7	25.0	14.8	35	30	8	25.0	14.7	14.8	2	1.051	0.000	L	35	25.0	717.217	719.108	720.159	720.161	0
2	22071901	160	Low	10.0	Precise	1	30	35	29	14.7	25.0	7.0	35	30	29	25.0	14.7	7.0	2	1.105	0.000	L	35	25.0	720.664	721.799	722.903	722.905	0
2	22071901	161	Low	10.0	Vague	2	34	26	14	25.0	25.7	6.3	34	14	26	25.0	6.3	25.7	2	1.131	0.000	R	26	25.7	723.409	725.795	726.927	726.929	0
2	22071901	162	Low	10.0	Precise	1	36	26	31	20.0	25.7	14.5	31	26	36	14.5	25.7	20.0	2	2.071	0.000	D	26	25.7	727.432	728.384	730.455	730.458	0
2	22071901	163	Low	10.0	Precise	1	30	36	31	14.7	20.0	14.5	36	30	31	20.0	14.7	14.5	2	1.780	0.001	L	36	20.0	730.961	733.371	735.151	735.154	0
2	22071901	164	Low	10.0	Vague	2	30	36	8	14.7	20.0	14.8	8	36	30	14.8	20.0	14.7	3	2.488	0.001	L	8	14.8	735.656	737.463	739.951	739.954	0
2	22071901	165	Low	10.0	Vague	2	34	26	5	25.0	25.7	0.7	5	26	34	0.7	25.7	25.0	1	1.042	0.000	R	34	25.0	740.456	743.285	744.327	744.329	0
2	22071901	166	Low	10.0	Vague	2	34	35	7	25.0	25.0	1.0	35	7	34	25.0	1.0	25.0	2	1.481	0.000	L	35	25.0	744.832	746.830	748.311	748.313	0
2	22071901	167	Low	10.0	Precise	1	36	34	31	20.0	25.0	14.5	31	36	34	14.5	20.0	25.0	2	1.102	0.000	R	34	25.0	748.816	750.152	751.255	751.257	0
2	22071901	168	Low	10.0	Precise	1	30	26	20	14.7	25.7	0.0	30	20	26	14.7	0.0	25.7	2	1.072	0.000	R	26	25.7	751.760	753.767	754.839	754.841	0
2	22071901	169	Low	10.0	Precise	1	35	26	20	25.0	25.7	0.0	20	35	26	0.0	25.0	25.7	2	1.830	0.001	R	26	25.7	755.345	757.569	759.399	759.401	0
2	22071901	170	Low	10.0	Precise	1	36	35	31	20.0	25.0	14.5	36	31	35	20.0	14.5	25.0	2	1.365	0.001	R	35	25.0	759.904	762.074	763.439	763.442	0
2	22071901	171	Low	10.0	Precise	1	34	26	29	25.0	25.7	7.0	26	34	29	25.7	25.0	7.0	2	1.458	0.000	L	26	25.7	763.945	766.541	767.999	768.001	0
2	22071901	172	Low	10.0	Precise	1	34	33	20	25.0	26.3	0.0	34	33	20	25.0	26.3	0.0	1	1.203	0.000	L	34	25.0	768.504	769.268	770.471	770.473	0
2	22071901	173	Low	10.0	Precise	1	30	26	22	14.7	25.7	1.7	22	26	30	1.7	25.7	14.7	2	1.144	0.000	D	26	25.7	770.975	773.031	774.175	774.178	0
2	22071901	174	Low	10.0	Precise	1	30	34	25	14.7	25.0	4.2	25	34	30	4.2	25.0	14.7	2	0.785	0.000	D	34	25.0	774.680	776.349	777.135	777.138	0
2	22071901	175	Low	10.0	Vague	2	30	34	14	14.7	25.0	6.3	30	34	14	14.7	25.0	6.3	2	0.910	0.001	D	34	25.0	777.640	779.921	780.831	780.834	0
2	22071901	176	Low	10.0	Vague	2	36	33	8	20.0	26.3	14.8	33	36	8	26.3	20.0	14.8	2	2.039	0.001	L	33	26.3	781.337	782.752	784.791	784.794	0
2	22071901	177	Low	10.0	Precise	1	36	26	25	20.0	25.7	4.2	26	25	36	25.7	4.2	20.0	2	0.934	0.000	L	26	25.7	785.296	787.697	788.631	788.633	0
2	22071901	178	Low	10.0	Precise	1	26	33	31	25.7	26.3	14.5	33	31	26	26.3	14.5	25.7	1	1.378	0.000	R	26	25.7	789.135	791.277	792.655	792.657	0
2	22071901	179	Low	10.0	Vague	2	30	36	7	14.7	20.0	1.0	36	30	7	20.0	14.7	1.0	2	1.773	0.001	L	36	20.0	793.161	794.482	796.255	796.257	0
2	22071901	180	Low	10.0	Vague	2	30	35	5	14.7	25.0	0.7	5	35	30	0.7	25.0	14.7	2	1.170	0.001	D	35	25.0	796.760	798.605	799.775	799.777	0
2	22071901	181	High	1.5	Precise	1	34	33	28	25.0	26.3	2.2	33	28	34	26.3	2.2	25.0	1	0.533	0.000	R	34	25.0	819.560	821.186	821.719	821.721	0
2	22071901	182	High	1.5	Precise	1	36	26	24	20.0	25.7	1.3	24	36	26	1.3	20.0	25.7	2	0.933	0.000	R	26	25.7	822.223	823.298	824.231	824.234	0
2	22071901	183	High	1.5	Vague	2	30	26	11	14.7	25.7	1.0	26	30	11	25.7	14.7	1.0	2	0.791	0.000	L	26	25.7	824.736	825.255	826.047	826.049	0
2	22071901	184	High	1.5	Precise	1	30	34	19	14.7	25.0	0.0	34	19	30	25.0	0.0	14.7	2	0.605	0.001	L	34	25.0	826.553	828.506	829.111	829.113	0
2	22071901	185	High	1.5	Precise	1	30	35	19	14.7	25.0	0.0	30	19	35	14.7	0.0	25.0	2	0.668	0.000	R	35	25.0	829.617	831.035	831.703	831.705	0
2	22071901	186	High	1.5	Precise	1	36	26	28	20.0	25.7	2.2	28	26	36	2.2	25.7	20.0	1	0.848	0.000	R	36	20.0	832.209	835.039	835.887	835.889	0
2	22071901	187	High	1.5	Vague	2	35	33	3	25.0	26.3	0.7	33	3	35	26.3	0.7	25.0	1	1.048	0.001	R	35	25.0	836.393	837.135	838.183	838.185	0
2	22071901	188	High	1.5	Precise	1	34	26	24	25.0	25.7	1.3	34	24	26	25.0	1.3	25.7	2	1.030	0.001	R	26	25.7	838.689	840.913	841.943	841.946	0
2	22071901	189	High	1.5	Precise	1	36	33	27	20.0	26.3	8.3	27	33	36	8.3	26.3	20.0	1	1.285	0.000	R	36	20.0	842.449	843.818	845.103	845.105	0
2	22071901	190	High	1.5	Precise	1	30	36	27	14.7	20.0	8.3	30	27	36	14.7	8.3	20.0	2	1.280	0.001	R	36	20.0	845.607	848.495	849.775	849.778	0
2	22071901	191	High	1.5	Vague	2	30	33	6	14.7	26.3	1.1	6	30	33	1.1	14.7	26.3	2	0.997	0.000	R	33	26.3	850.281	852.001	852.999	853.001	0
2	22071901	192	High	1.5	Vague	2	34	33	1	25.0	26.3	1.0	1	34	33	1.0	25.0	26.3	1	1.130	0.001	D	34	25.0	853.504	855.542	856.671	856.674	0
2	22071901	193	High	1.5	Vague	2	36	33	10	20.0	26.3	13.9	33	10	36	26.3	13.9	20.0	NaN	NaN	NaN	NaN	NaN	NaN	857.176	859.738	NaN	861.228	1
2	22071901	194	High	1.5	Vague	2	34	26	11	25.0	25.7	1.0	11	26	34	1.0	25.7	25.0	1	0.616	0.001	R	34	25.0	863.234	865.728	866.343	866.347	0
2	22071901	195	High	1.5	Precise	1	35	26	21	25.0	25.7	0.0	21	35	26	0.0	25.0	25.7	1	1.177	0.000	D	35	25.0	866.850	868.462	869.639	869.641	0
2	22071901	196	High	1.5	Precise	1	34	33	24	25.0	26.3	1.3	33	24	34	26.3	1.3	25.0	1	0.792	0.000	R	34	25.0	870.145	870.639	871.431	871.433	0
2	22071901	197	High	1.5	Vague	2	34	33	9	25.0	26.3	0.0	34	9	33	25.0	0.0	26.3	1	0.995	0.000	L	34	25.0	871.937	874.172	875.167	875.169	0
2	22071901	198	High	1.5	Vague	2	34	35	6	25.0	25.0	1.1	6	34	35	1.1	25.0	25.0	2	0.785	0.001	R	35	25.0	875.672	877.630	878.415	878.418	0
2	22071901	199	High	1.5	Precise	1	35	26	32	25.0	25.7	5.7	35	32	26	25.0	5.7	25.7	2	0.896	0.000	R	26	25.7	878.920	881.598	882.495	882.497	0
2	22071901	200	High	1.5	Vague	2	36	34	3	20.0	25.0	0.7	3	36	34	0.7	20.0	25.0	2	0.606	0.000	R	34	25.0	883.001	884.401	885.007	885.009	0
2	22071901	201	High	1.5	Vague	2	34	35	10	25.0	25.0	13.9	10	34	35	13.9	25.0	25.0	2	0.832	0.000	R	35	25.0	885.511	888.271	889.103	889.105	0
2	22071901	202	High	1.5	Vague	2	35	33	1	25.0	26.3	1.0	35	33	1	25.0	26.3	1.0	1	0.986	0.000	L	35	25.0	889.609	891.101	892.087	892.089	0
2	22071901	203	High	1.5	Precise	1	35	26	28	25.0	25.7	2.2	28	26	35	2.2	25.7	25.0	1	0.806	0.000	R	35	25.0	892.592	895.336	896.143	896.145	0
2	22071901	204	High	1.5	Precise	1	35	33	21	25.0	26.3	0.0	21	33	35	0.0	26.3	25.0	1	0.824	0.000	R	35	25.0	896.648	897.936	898.759	898.762	0
2	22071901	205	High	1.5	Precise	1	36	35	27	20.0	25.0	8.3	36	35	27	20.0	25.0	8.3	2	0.904	0.000	D	35	25.0	899.265	901.543	902.447	902.449	0
2	22071901	206	High	1.5	Precise	1	35	26	27	25.0	25.7	8.3	27	35	26	8.3	25.0	25.7	1	0.913	0.001	D	35	25.0	902.952	905.654	906.567	906.570	0
2	22071901	207	High	1.5	Vague	2	36	34	1	20.0	25.0	1.0	36	34	1	20.0	25.0	1.0	2	0.866	0.001	D	34	25.0	907.072	909.541	910.407	910.409	0
2	22071901	208	High	1.5	Vague	2	35	33	11	25.0	26.3	1.0	33	11	35	26.3	1.0	25.0	1	0.846	0.000	R	35	25.0	910.913	913.289	914.135	914.137	0
2	22071901	209	High	1.5	Vague	2	26	33	11	25.7	26.3	1.0	33	26	11	26.3	25.7	1.0	1	0.789	0.001	D	26	25.7	914.641	917.202	917.991	917.993	0
2	22071901	210	High	1.5	Precise	1	36	35	32	20.0	25.0	5.7	32	36	35	5.7	20.0	25.0	2	1.142	0.000	R	35	25.0	918.497	920.497	921.639	921.641	0
2	22071901	211	High	1.5	Vague	2	30	35	9	14.7	25.0	0.0	30	9	35	14.7	0.0	25.0	2	0.892	0.001	R	35	25.0	922.144	923.339	924.231	924.233	0
2	22071901	212	High	1.5	Vague	2	26	33	9	25.7	26.3	0.0	33	9	26	26.3	0.0	25.7	1	0.752	0.000	R	26	25.7	924.736	926.919	927.671	927.673	0
2	22071901	213	High	1.5	Precise	1	36	35	19	20.0	25.0	0.0	35	19	36	25.0	0.0	20.0	2	0.898	0.001	L	35	25.0	928.176	929.205	930.103	930.106	0
2	22071901	214	High	1.5	Precise	1	30	26	19	14.7	25.7	0.0	30	19	26	14.7	0.0	25.7	2	0.753	0.000	R	26	25.7	930.608	931.630	932.383	932.385	0
2	22071901	215	High	1.5	Vague	2	30	26	6	14.7	25.7	1.1	26	6	30	25.7	1.1	14.7	2	0.653	0.000	L	26	25.7	932.889	935.682	936.335	936.337	0
2	22071901	216	High	1.5	Vague	2	30	35	6	14.7	25.0	1.1	6	35	30	1.1	25.0	14.7	2	0.757	0.000	D	35	25.0	936.839	937.458	938.215	938.217	0
2	22071901	217	High	1.5	Precise	1	30	34	28	14.7	25.0	2.2	30	34	28	14.7	25.0	2.2	2	0.854	0.000	D	34	25.0	938.720	941.561	942.415	942.418	0
2	22071901	218	High	1.5	Vague	2	36	33	6	20.0	26.3	1.1	6	36	33	1.1	20.0	26.3	2	1.328	0.001	R	33	26.3	942.920	944.031	945.359	945.361	0
2	22071901	219	High	1.5	Vague	2	36	35	9	20.0	25.0	0.0	36	9	35	20.0	0.0	25.0	2	1.197	0.000	R	35	25.0	945.865	948.273	949.471	949.473	0
2	22071901	220	High	1.5	Precise	1	30	34	24	14.7	25.0	1.3	24	34	30	1.3	25.0	14.7	2	0.688	0.000	D	34	25.0	949.976	951.775	952.463	952.465	0
2	22071901	221	High	1.5	Vague	2	30	33	3	14.7	26.3	0.7	30	3	33	14.7	0.7	26.3	2	1.312	0.000	R	33	26.3	952.968	955.639	956.951	956.953	0
2	22071901	222	High	1.5	Precise	1	34	33	19	25.0	26.3	0.0	33	19	34	26.3	0.0	25.0	1	0.777	0.001	R	34	25.0	957.456	959.446	960.223	960.225	0
2	22071901	223	High	1.5	Precise	1	35	33	27	25.0	26.3	8.3	35	27	33	25.0	8.3	26.3	1	0.643	0.000	L	35	25.0	960.729	962.452	963.095	963.097	0
2	22071901	224	High	1.5	Vague	2	36	35	3	20.0	25.0	0.7	3	36	35	0.7	20.0	25.0	2	0.758	0.001	R	35	25.0	963.600	964.121	964.879	964.881	0
2	22071901	225	High	1.5	Vague	2	36	34	11	20.0	25.0	1.0	36	11	34	20.0	1.0	25.0	2	0.950	0.000	R	34	25.0	965.384	966.473	967.423	967.425	0
2	22071901	226	High	1.5	Vague	2	30	33	1	14.7	26.3	1.0	1	30	33	1.0	14.7	26.3	2	1.097	0.001	R	33	26.3	967.927	968.894	969.991	969.993	0
2	22071901	227	High	1.5	Vague	2	34	35	9	25.0	25.0	0.0	9	34	35	0.0	25.0	25.0	2	1.107	0.001	R	35	25.0	970.497	972.660	973.767	973.769	0
2	22071901	228	High	1.5	Precise	1	34	33	32	25.0	26.3	5.7	32	33	34	5.7	26.3	25.0	1	0.632	0.001	R	34	25.0	974.272	974.983	975.615	975.617	0
2	22071901	229	High	1.5	Vague	2	36	26	3	20.0	25.7	0.7	36	26	3	20.0	25.7	0.7	2	1.438	0.000	D	26	25.7	976.121	978.072	979.511	979.513	0
2	22071901	230	High	1.5	Vague	2	30	36	11	14.7	20.0	1.0	11	36	30	1.0	20.0	14.7	2	1.367	0.001	D	36	20.0	980.016	981.256	982.623	982.625	0
2	22071901	231	High	1.5	Vague	2	34	26	10	25.0	25.7	13.9	10	26	34	13.9	25.7	25.0	1	0.875	0.001	R	34	25.0	983.128	985.548	986.423	986.425	0
2	22071901	232	High	1.5	Vague	2	35	26	6	25.0	25.7	1.1	26	6	35	25.7	1.1	25.0	1	1.125	0.000	R	35	25.0	986.929	989.146	990.271	990.273	0
2	22071901	233	High	1.5	Precise	1	36	34	32	20.0	25.0	5.7	36	32	34	20.0	5.7	25.0	2	0.920	0.000	R	34	25.0	990.776	991.847	992.767	992.769	0
2	22071901	234	High	1.5	Precise	1	34	35	28	25.0	25.0	2.2	35	28	34	25.0	2.2	25.0	2	0.830	0.000	L	35	25.0	993.271	995.488	996.319	996.321	0
2	22071901	235	High	1.5	Vague	2	30	36	3	14.7	20.0	0.7	30	36	3	14.7	20.0	0.7	2	0.942	0.000	D	36	20.0	996.825	999.129	1000.071	1000.073	0
2	22071901	236	High	1.5	Precise	1	30	26	32	14.7	25.7	5.7	26	30	32	25.7	14.7	5.7	2	0.916	0.000	L	26	25.7	1000.577	1002.067	1002.983	1002.985	0
2	22071901	237	High	1.5	Vague	2	35	33	9	25.0	26.3	0.0	35	9	33	25.0	0.0	26.3	1	0.852	0.000	L	35	25.0	1003.488	1004.475	1005.327	1005.329	0
2	22071901	238	High	1.5	Precise	1	30	26	21	14.7	25.7	0.0	21	26	30	0.0	25.7	14.7	2	0.668	0.001	D	26	25.7	1005.831	1008.211	1008.879	1008.882	0
2	22071901	239	High	1.5	Precise	1	30	33	32	14.7	26.3	5.7	33	32	30	26.3	5.7	14.7	2	1.292	0.000	L	33	26.3	1009.386	1011.347	1012.639	1012.641	0
2	22071901	240	High	1.5	Vague	2	36	33	3	20.0	26.3	0.7	36	33	3	20.0	26.3	0.7	2	1.288	0.001	D	33	26.3	1013.144	1016.055	1017.343	1017.345	0
2	22071901	241	High	1.5	Precise	1	30	36	28	14.7	20.0	2.2	28	36	30	2.2	20.0	14.7	2	0.919	0.001	D	36	20.0	1028.061	1029.760	1030.679	1030.681	0
2	22071901	242	High	1.5	Precise	1	36	34	19	20.0	25.0	0.0	36	34	19	20.0	25.0	0.0	2	0.905	0.001	D	34	25.0	1031.185	1032.367	1033.271	1033.273	0
2	22071901	243	High	1.5	Vague	2	30	34	1	14.7	25.0	1.0	30	34	1	14.7	25.0	1.0	2	0.622	0.001	D	34	25.0	1033.777	1036.657	1037.279	1037.282	0
2	22071901	244	High	1.5	Vague	2	30	34	3	14.7	25.0	0.7	34	3	30	25.0	0.7	14.7	2	0.635	0.000	L	34	25.0	1037.785	1040.411	1041.047	1041.049	0
2	22071901	245	High	1.5	Precise	1	34	33	27	25.0	26.3	8.3	34	33	27	25.0	26.3	8.3	1	0.964	0.001	L	34	25.0	1041.552	1044.339	1045.303	1045.305	0
2	22071901	246	High	1.5	Vague	2	26	33	3	25.7	26.3	0.7	26	33	3	25.7	26.3	0.7	1	1.042	0.000	L	26	25.7	1045.809	1048.653	1049.695	1049.697	0
2	22071901	247	High	1.5	Vague	2	34	26	9	25.0	25.7	0.0	34	9	26	25.0	0.0	25.7	2	1.115	0.000	R	26	25.7	1050.200	1050.859	1051.975	1051.977	0
2	22071901	248	High	1.5	Vague	2	36	33	11	20.0	26.3	1.0	33	11	36	26.3	1.0	20.0	2	1.457	0.001	L	33	26.3	1052.479	1054.438	1055.895	1055.897	0
2	22071901	249	High	1.5	Precise	1	30	36	21	14.7	20.0	0.0	36	30	21	20.0	14.7	0.0	2	0.990	0.000	L	36	20.0	1056.401	1059.025	1060.015	1060.017	0
2	22071901	250	High	1.5	Vague	2	36	33	1	20.0	26.3	1.0	36	1	33	20.0	1.0	26.3	2	0.945	0.000	R	33	26.3	1060.521	1062.989	1063.934	1063.937	0
2	22071901	251	High	1.5	Precise	1	34	26	28	25.0	25.7	2.2	26	34	28	25.7	25.0	2.2	1	0.816	0.000	D	34	25.0	1064.441	1066.559	1067.375	1067.377	0
2	22071901	252	High	1.5	Vague	2	36	26	1	20.0	25.7	1.0	26	1	36	25.7	1.0	20.0	2	0.833	0.001	L	26	25.7	1067.880	1069.902	1070.735	1070.737	0
2	22071901	253	High	1.5	Vague	2	26	33	6	25.7	26.3	1.1	6	26	33	1.1	25.7	26.3	1	0.777	0.000	D	26	25.7	1071.240	1072.238	1073.015	1073.017	0
2	22071901	254	High	1.5	Vague	2	34	33	3	25.0	26.3	0.7	34	33	3	25.0	26.3	0.7	1	0.841	0.000	L	34	25.0	1073.520	1075.757	1076.599	1076.601	0
2	22071901	255	High	1.5	Vague	2	30	36	10	14.7	20.0	13.9	36	30	10	20.0	14.7	13.9	2	1.256	0.001	L	36	20.0	1077.105	1078.839	1080.095	1080.097	0
2	22071901	256	High	1.5	Precise	1	34	26	27	25.0	25.7	8.3	27	26	34	8.3	25.7	25.0	1	1.046	0.000	R	34	25.0	1080.600	1081.865	1082.911	1082.913	0
2	22071901	257	High	1.5	Vague	2	30	34	9	14.7	25.0	0.0	9	30	34	0.0	14.7	25.0	2	0.936	0.000	R	34	25.0	1083.416	1086.399	1087.335	1087.337	0
2	22071901	258	High	1.5	Precise	1	36	35	21	20.0	25.0	0.0	35	21	36	25.0	0.0	20.0	1	1.000	0.000	R	36	20.0	1087.841	1089.527	1090.527	1090.529	0
2	22071901	259	High	1.5	Precise	1	30	33	27	14.7	26.3	8.3	27	30	33	8.3	14.7	26.3	2	1.006	0.001	R	33	26.3	1091.032	1091.936	1092.943	1092.946	0
2	22071901	260	High	1.5	Precise	1	30	33	21	14.7	26.3	0.0	21	30	33	0.0	14.7	26.3	2	1.314	0.000	R	33	26.3	1093.448	1094.877	1096.191	1096.193	0
2	22071901	261	High	1.5	Vague	2	36	35	1	20.0	25.0	1.0	35	36	1	25.0	20.0	1.0	2	0.788	0.001	L	35	25.0	1096.696	1098.802	1099.591	1099.593	0
2	22071901	262	High	1.5	Precise	1	36	26	32	20.0	25.7	5.7	36	32	26	20.0	5.7	25.7	2	0.847	0.000	R	26	25.7	1100.096	1102.223	1103.071	1103.073	0
2	22071901	263	High	1.5	Precise	1	30	36	19	14.7	20.0	0.0	30	36	19	14.7	20.0	0.0	2	0.962	0.001	D	36	20.0	1103.575	1105.301	1106.263	1106.265	0
2	22071901	264	High	1.5	Precise	1	26	33	21	25.7	26.3	0.0	26	21	33	25.7	0.0	26.3	1	0.826	0.000	L	26	25.7	1106.768	1108.581	1109.407	1109.409	0
2	22071901	265	High	1.5	Vague	2	30	33	10	14.7	26.3	13.9	30	10	33	14.7	13.9	26.3	NaN	NaN	NaN	NaN	NaN	NaN	1109.912	1110.985	NaN	1112.474	1
2	22071901	266	High	1.5	Vague	2	35	33	10	25.0	26.3	13.9	10	33	35	13.9	26.3	25.0	1	0.568	0.000	R	35	25.0	1114.476	1117.366	1117.935	1117.937	0
2	22071901	267	High	1.5	Vague	2	30	35	11	14.7	25.0	1.0	30	35	11	14.7	25.0	1.0	2	0.689	0.000	D	35	25.0	1118.440	1119.726	1120.415	1120.417	0
2	22071901	268	High	1.5	Precise	1	30	36	32	14.7	20.0	5.7	36	32	30	20.0	5.7	14.7	2	0.850	0.001	L	36	20.0	1120.920	1122.805	1123.655	1123.657	0
2	22071901	269	High	1.5	Precise	1	30	35	27	14.7	25.0	8.3	35	30	27	25.0	14.7	8.3	2	0.630	0.000	L	35	25.0	1124.160	1125.872	1126.503	1126.505	0
2	22071901	270	High	1.5	Vague	2	34	35	11	25.0	25.0	1.0	11	34	35	1.0	25.0	25.0	2	0.514	0.001	R	35	25.0	1127.009	1129.956	1130.471	1130.473	0
2	22071901	271	High	1.5	Vague	2	30	26	9	14.7	25.7	0.0	30	26	9	14.7	25.7	0.0	3	0.912	0.001	R	9	0.0	1130.976	1131.847	1132.759	1132.761	0
2	22071901	272	High	1.5	Vague	2	36	33	9	20.0	26.3	0.0	9	33	36	0.0	26.3	20.0	1	0.891	0.001	R	36	20.0	1133.264	1134.796	1135.687	1135.689	0
2	22071901	273	High	1.5	Precise	1	26	33	27	25.7	26.3	8.3	33	26	27	26.3	25.7	8.3	1	0.671	0.001	D	26	25.7	1136.192	1138.856	1139.527	1139.529	0
2	22071901	274	High	1.5	Vague	2	30	36	9	14.7	20.0	0.0	36	30	9	20.0	14.7	0.0	2	0.841	0.000	L	36	20.0	1140.032	1142.189	1143.030	1143.033	0
2	22071901	275	High	1.5	Precise	1	36	35	28	20.0	25.0	2.2	28	36	35	2.2	20.0	25.0	2	0.697	0.000	R	35	25.0	1143.536	1145.398	1146.095	1146.097	0
2	22071901	276	High	1.5	Vague	2	36	35	11	20.0	25.0	1.0	35	11	36	25.0	1.0	20.0	2	0.693	0.000	L	35	25.0	1146.600	1147.529	1148.222	1148.225	0
2	22071901	277	High	1.5	Vague	2	26	33	1	25.7	26.3	1.0	1	26	33	1.0	25.7	26.3	1	1.091	0.000	D	26	25.7	1148.728	1151.707	1152.799	1152.801	0
2	22071901	278	High	1.5	Precise	1	34	35	24	25.0	25.0	1.3	35	34	24	25.0	25.0	1.3	2	1.008	0.000	L	35	25.0	1153.303	1155.111	1156.119	1156.121	0
2	22071901	279	High	1.5	Precise	1	36	35	24	20.0	25.0	1.3	36	24	35	20.0	1.3	25.0	2	0.696	0.000	R	35	25.0	1156.624	1158.439	1159.135	1159.137	0
2	22071901	280	High	1.5	Precise	1	34	35	21	25.0	25.0	0.0	34	21	35	25.0	0.0	25.0	2	0.635	0.001	R	35	25.0	1159.640	1162.100	1162.735	1162.737	0
2	22071901	281	High	1.5	Vague	2	34	33	11	25.0	26.3	1.0	11	33	34	1.0	26.3	25.0	1	0.602	0.000	R	34	25.0	1163.240	1166.157	1166.759	1166.761	0
2	22071901	282	High	1.5	Precise	1	36	26	21	20.0	25.7	0.0	26	36	21	25.7	20.0	0.0	2	0.968	0.000	L	26	25.7	1167.264	1168.559	1169.527	1169.529	0
2	22071901	283	High	1.5	Vague	2	35	26	9	25.0	25.7	0.0	26	9	35	25.7	0.0	25.0	2	0.793	0.000	L	26	25.7	1170.032	1172.278	1173.071	1173.073	0
2	22071901	284	High	1.5	Vague	2	30	26	1	14.7	25.7	1.0	1	30	26	1.0	14.7	25.7	2	0.729	0.001	R	26	25.7	1173.576	1175.798	1176.527	1176.529	0
2	22071901	285	High	1.5	Vague	2	30	35	1	14.7	25.0	1.0	1	35	30	1.0	25.0	14.7	2	0.619	0.001	D	35	25.0	1177.032	1179.940	1180.559	1180.561	0
2	22071901	286	High	1.5	Precise	1	35	26	19	25.0	25.7	0.0	26	35	19	25.7	25.0	0.0	1	0.461	0.000	D	35	25.0	1181.064	1183.290	1183.751	1183.753	0
2	22071901	287	High	1.5	Precise	1	26	33	19	25.7	26.3	0.0	19	26	33	0.0	25.7	26.3	1	0.725	0.000	D	26	25.7	1184.256	1186.922	1187.647	1187.649	0
2	22071901	288	High	1.5	Precise	1	30	35	21	14.7	25.0	0.0	35	30	21	25.0	14.7	0.0	2	0.747	0.000	L	35	25.0	1188.152	1189.836	1190.583	1190.585	0
2	22071901	289	High	1.5	Vague	2	35	26	1	25.0	25.7	1.0	35	26	1	25.0	25.7	1.0	2	0.841	0.000	D	26	25.7	1191.090	1193.334	1194.175	1194.177	0
2	22071901	290	High	1.5	Vague	2	36	34	6	20.0	25.0	1.1	34	36	6	25.0	20.0	1.1	2	0.824	0.000	L	34	25.0	1194.679	1197.142	1197.967	1197.969	0
2	22071901	291	High	1.5	Precise	1	36	26	27	20.0	25.7	8.3	26	36	27	25.7	20.0	8.3	2	0.745	0.000	L	26	25.7	1198.472	1200.246	1200.991	1200.993	0
2	22071901	292	High	1.5	Vague	2	36	34	9	20.0	25.0	0.0	9	36	34	0.0	20.0	25.0	2	0.808	0.000	R	34	25.0	1201.496	1203.623	1204.431	1204.433	0
2	22071901	293	High	1.5	Precise	1	26	33	24	25.7	26.3	1.3	33	24	26	26.3	1.3	25.7	1	0.755	0.000	R	26	25.7	1204.936	1205.515	1206.271	1206.273	0
2	22071901	294	High	1.5	Vague	2	26	33	10	25.7	26.3	13.9	26	10	33	25.7	13.9	26.3	1	0.781	0.001	L	26	25.7	1206.776	1208.938	1209.719	1209.722	0
2	22071901	295	High	1.5	Vague	2	34	26	1	25.0	25.7	1.0	26	1	34	25.7	1.0	25.0	2	0.677	0.000	L	26	25.7	1210.225	1212.033	1212.710	1212.713	0
2	22071901	296	High	1.5	Vague	2	36	26	10	20.0	25.7	13.9	26	10	36	25.7	13.9	20.0	2	0.911	0.000	L	26	25.7	1213.216	1214.888	1215.798	1215.801	0
2	22071901	297	High	1.5	Precise	1	35	33	24	25.0	26.3	1.3	33	35	24	26.3	25.0	1.3	1	0.784	0.000	D	35	25.0	1216.304	1218.198	1218.982	1218.985	0
2	22071901	298	High	1.5	Precise	1	30	36	24	14.7	20.0	1.3	30	36	24	14.7	20.0	1.3	2	0.998	0.000	D	36	20.0	1219.488	1220.809	1221.807	1221.809	0
2	22071901	299	High	1.5	Precise	1	30	33	28	14.7	26.3	2.2	28	30	33	2.2	14.7	26.3	2	1.245	0.000	R	33	26.3	1222.312	1223.042	1224.287	1224.290	0
2	22071901	300	High	1.5	Vague	2	30	35	3	14.7	25.0	0.7	35	30	3	25.0	14.7	0.7	2	0.671	0.000	L	35	25.0	1224.793	1227.023	1227.694	1227.697	0
2	22071901	301	High	1.5	Vague	2	34	35	3	25.0	25.0	0.7	35	3	34	25.0	0.7	25.0	2	0.719	0.000	L	35	25.0	1240.771	1241.448	1242.167	1242.169	0
2	22071901	302	High	1.5	Precise	1	36	33	19	20.0	26.3	0.0	36	33	19	20.0	26.3	0.0	1	0.833	0.000	L	36	20.0	1242.672	1245.070	1245.903	1245.905	0
2	22071901	303	High	1.5	Vague	2	36	26	11	20.0	25.7	1.0	26	11	36	25.7	1.0	20.0	2	0.685	0.001	L	26	25.7	1246.407	1249.185	1249.871	1249.873	0
2	22071901	304	High	1.5	Precise	1	36	33	21	20.0	26.3	0.0	21	33	36	0.0	26.3	20.0	1	0.757	0.000	R	36	20.0	1250.376	1252.890	1253.646	1253.649	0
2	22071901	305	High	1.5	Precise	1	34	26	19	25.0	25.7	0.0	26	34	19	25.7	25.0	0.0	2	0.839	0.001	L	26	25.7	1254.152	1254.904	1255.743	1255.745	0
2	22071901	306	High	1.5	Precise	1	30	34	32	14.7	25.0	5.7	34	32	30	25.0	5.7	14.7	2	0.878	0.000	L	34	25.0	1256.249	1257.376	1258.254	1258.257	0
2	22071901	307	High	1.5	Precise	1	30	34	21	14.7	25.0	0.0	30	34	21	14.7	25.0	0.0	2	0.687	0.000	D	34	25.0	1258.760	1259.536	1260.223	1260.225	0
2	22071901	308	High	1.5	Vague	2	30	33	9	14.7	26.3	0.0	30	9	33	14.7	0.0	26.3	1	0.980	0.000	L	30	14.7	1260.728	1262.219	1263.198	1263.201	0
2	22071901	309	High	1.5	Precise	1	30	35	24	14.7	25.0	1.3	35	24	30	25.0	1.3	14.7	2	0.798	0.001	L	35	25.0	1263.703	1264.849	1265.647	1265.649	0
2	22071901	310	High	1.5	Vague	2	30	26	3	14.7	25.7	0.7	26	30	3	25.7	14.7	0.7	2	0.788	0.000	L	26	25.7	1266.153	1269.011	1269.798	1269.801	0
2	22071901	311	High	1.5	Precise	1	30	26	24	14.7	25.7	1.3	24	30	26	1.3	14.7	25.7	2	0.742	0.001	R	26	25.7	1270.304	1271.450	1272.191	1272.194	0
2	22071901	312	High	1.5	Precise	1	34	35	27	25.0	25.0	8.3	35	34	27	25.0	25.0	8.3	1	1.121	0.000	D	34	25.0	1272.696	1273.254	1274.375	1274.377	0
2	22071901	313	High	1.5	Vague	2	34	35	1	25.0	25.0	1.0	1	34	35	1.0	25.0	25.0	2	0.629	0.000	R	35	25.0	1274.880	1276.969	1277.598	1277.601	0
2	22071901	314	High	1.5	Precise	1	30	26	28	14.7	25.7	2.2	28	30	26	2.2	14.7	25.7	2	0.919	0.001	R	26	25.7	1278.104	1278.864	1279.783	1279.785	0
2	22071901	315	High	1.5	Vague	2	35	26	3	25.0	25.7	0.7	3	26	35	0.7	25.7	25.0	2	1.150	0.000	D	26	25.7	1280.288	1281.984	1283.135	1283.137	0
2	22071901	316	High	1.5	Precise	1	36	34	28	20.0	25.0	2.2	34	28	36	25.0	2.2	20.0	2	0.937	0.000	L	34	25.0	1283.640	1284.646	1285.582	1285.585	0
2	22071901	317	High	1.5	Precise	1	34	26	32	25.0	25.7	5.7	26	34	32	25.7	25.0	5.7	2	0.760	0.001	L	26	25.7	1286.088	1288.415	1289.175	1289.177	0
2	22071901	318	High	1.5	Precise	1	35	33	28	25.0	26.3	2.2	28	35	33	2.2	25.0	26.3	1	0.793	0.000	D	35	25.0	1289.680	1290.829	1291.622	1291.626	0
2	22071901	319	High	1.5	Vague	2	36	34	10	20.0	25.0	13.9	10	36	34	13.9	20.0	25.0	2	0.903	0.000	R	34	25.0	1292.128	1293.560	1294.462	1294.465	0
2	22071901	320	High	1.5	Precise	1	30	33	24	14.7	26.3	1.3	24	30	33	1.3	14.7	26.3	2	0.993	0.000	R	33	26.3	1294.967	1296.430	1297.422	1297.425	0
2	22071901	321	High	1.5	Vague	2	30	26	10	14.7	25.7	13.9	30	10	26	14.7	13.9	25.7	2	0.856	0.000	R	26	25.7	1297.927	1299.190	1300.046	1300.049	0
2	22071901	322	High	1.5	Precise	1	34	35	32	25.0	25.0	5.7	32	34	35	5.7	25.0	25.0	2	0.687	0.000	R	35	25.0	1300.552	1303.320	1304.007	1304.009	0
2	22071901	323	High	1.5	Precise	1	35	33	32	25.0	26.3	5.7	35	33	32	25.0	26.3	5.7	1	0.734	0.000	L	35	25.0	1304.512	1305.097	1305.831	1305.833	0
2	22071901	324	High	1.5	Precise	1	36	34	24	20.0	25.0	1.3	36	24	34	20.0	1.3	25.0	2	0.787	0.000	R	34	25.0	1306.336	1307.500	1308.287	1308.289	0
2	22071901	325	High	1.5	Vague	2	34	26	3	25.0	25.7	0.7	3	34	26	0.7	25.0	25.7	2	0.882	0.001	R	26	25.7	1308.792	1309.829	1310.711	1310.713	0
2	22071901	326	High	1.5	Precise	1	34	33	21	25.0	26.3	0.0	34	21	33	25.0	0.0	26.3	1	0.607	0.001	L	34	25.0	1311.216	1314.040	1314.647	1314.649	0
2	22071901	327	High	1.5	Vague	2	35	26	11	25.0	25.7	1.0	35	11	26	25.0	1.0	25.7	2	0.916	0.000	R	26	25.7	1315.152	1317.835	1318.751	1318.754	0
2	22071901	328	High	1.5	Precise	1	26	33	32	25.7	26.3	5.7	32	26	33	5.7	25.7	26.3	1	0.683	0.000	D	26	25.7	1319.257	1319.940	1320.623	1320.625	0
2	22071901	329	High	1.5	Vague	2	30	33	11	14.7	26.3	1.0	11	33	30	1.0	26.3	14.7	1	1.126	0.001	R	30	14.7	1321.129	1323.497	1324.623	1324.625	0
2	22071901	330	High	1.5	Precise	1	30	26	27	14.7	25.7	8.3	27	26	30	8.3	25.7	14.7	2	0.763	0.001	D	26	25.7	1325.129	1327.020	1327.783	1327.786	0
2	22071901	331	High	1.5	Precise	1	36	33	32	20.0	26.3	5.7	36	32	33	20.0	5.7	26.3	3	0.951	0.000	D	32	5.7	1328.289	1330.840	1331.791	1331.793	0
2	22071901	332	High	1.5	Vague	2	34	33	6	25.0	26.3	1.1	34	33	6	25.0	26.3	1.1	1	0.728	0.000	L	34	25.0	1332.296	1333.631	1334.359	1334.361	0
2	22071901	333	High	1.5	Vague	2	30	34	10	14.7	25.0	13.9	30	10	34	14.7	13.9	25.0	2	0.889	0.000	R	34	25.0	1334.864	1335.757	1336.646	1336.649	0
2	22071901	334	High	1.5	Precise	1	34	35	19	25.0	25.0	0.0	19	34	35	0.0	25.0	25.0	2	0.688	0.000	R	35	25.0	1337.152	1339.303	1339.991	1339.993	0
2	22071901	335	High	1.5	Precise	1	35	33	19	25.0	26.3	0.0	33	19	35	26.3	0.0	25.0	1	0.711	0.000	R	35	25.0	1340.497	1342.919	1343.631	1343.633	0
2	22071901	336	High	1.5	Vague	2	36	35	10	20.0	25.0	13.9	35	10	36	25.0	13.9	20.0	2	0.757	0.000	L	35	25.0	1344.136	1346.418	1347.175	1347.177	0
2	22071901	337	High	1.5	Vague	2	34	33	10	25.0	26.3	13.9	10	34	33	13.9	25.0	26.3	1	1.007	0.001	D	34	25.0	1347.679	1349.727	1350.735	1350.737	0
2	22071901	338	High	1.5	Precise	1	36	33	28	20.0	26.3	2.2	28	33	36	2.2	26.3	20.0	2	1.345	0.000	D	33	26.3	1351.240	1353.958	1355.303	1355.305	0
2	22071901	339	High	1.5	Precise	1	36	26	19	20.0	25.7	0.0	36	19	26	20.0	0.0	25.7	2	0.912	0.000	R	26	25.7	1355.808	1357.975	1358.887	1358.889	0
2	22071901	340	High	1.5	Vague	2	35	33	6	25.0	26.3	1.1	6	35	33	1.1	25.0	26.3	1	0.729	0.000	D	35	25.0	1359.392	1361.230	1361.959	1361.961	0
2	22071901	341	High	1.5	Vague	2	30	36	1	14.7	20.0	1.0	30	1	36	14.7	1.0	20.0	2	0.896	0.001	R	36	20.0	1362.464	1364.655	1365.551	1365.553	0
2	22071901	342	High	1.5	Precise	1	30	35	32	14.7	25.0	5.7	30	35	32	14.7	25.0	5.7	2	1.054	0.000	D	35	25.0	1366.057	1366.873	1367.927	1367.929	0
2	22071901	343	High	1.5	Vague	2	36	35	6	20.0	25.0	1.1	6	35	36	1.1	25.0	20.0	2	0.993	0.000	D	35	25.0	1368.432	1370.149	1371.143	1371.145	0
2	22071901	344	High	1.5	Vague	2	34	26	6	25.0	25.7	1.1	34	6	26	25.0	1.1	25.7	2	0.741	0.000	R	26	25.7	1371.648	1373.937	1374.679	1374.681	0
2	22071901	345	High	1.5	Precise	1	30	35	28	14.7	25.0	2.2	35	30	28	25.0	14.7	2.2	2	0.816	0.000	L	35	25.0	1375.184	1377.399	1378.215	1378.217	0
2	22071901	346	High	1.5	Precise	1	26	33	28	25.7	26.3	2.2	28	26	33	2.2	25.7	26.3	1	0.751	0.000	D	26	25.7	1378.720	1379.327	1380.079	1380.081	0
2	22071901	347	High	1.5	Vague	2	30	36	6	14.7	20.0	1.1	36	6	30	20.0	1.1	14.7	2	1.177	0.000	L	36	20.0	1380.583	1381.438	1382.615	1382.617	0
2	22071901	348	High	1.5	Vague	2	30	34	6	14.7	25.0	1.1	6	34	30	1.1	25.0	14.7	2	0.652	0.000	D	34	25.0	1383.120	1384.811	1385.463	1385.465	0
2	22071901	349	High	1.5	Vague	2	30	35	10	14.7	25.0	13.9	30	35	10	14.7	25.0	13.9	2	1.024	0.001	D	35	25.0	1385.968	1386.479	1387.503	1387.505	0
2	22071901	350	High	1.5	Precise	1	30	34	27	14.7	25.0	8.3	30	34	27	14.7	25.0	8.3	2	0.759	0.000	D	34	25.0	1388.008	1390.592	1391.351	1391.353	0
2	22071901	351	High	1.5	Vague	2	36	26	6	20.0	25.7	1.1	36	26	6	20.0	25.7	1.1	2	0.729	0.001	D	26	25.7	1391.856	1394.158	1394.887	1394.889	0
2	22071901	352	High	1.5	Vague	2	36	26	9	20.0	25.7	0.0	9	26	36	0.0	25.7	20.0	2	0.777	0.000	D	26	25.7	1395.393	1396.765	1397.542	1397.545	0
2	22071901	353	High	1.5	Precise	1	36	33	24	20.0	26.3	1.3	33	24	36	26.3	1.3	20.0	2	1.340	0.001	L	33	26.3	1398.048	1399.819	1401.159	1401.161	0
2	22071901	354	High	1.5	Precise	1	30	33	19	14.7	26.3	0.0	30	33	19	14.7	26.3	0.0	2	1.078	0.000	D	33	26.3	1401.664	1402.953	1404.031	1404.033	0
2	22071901	355	High	1.5	Vague	2	30	34	11	14.7	25.0	1.0	30	34	11	14.7	25.0	1.0	2	0.785	0.001	D	34	25.0	1404.537	1405.781	1406.567	1406.569	0
2	22071901	356	High	1.5	Precise	1	36	34	21	20.0	25.0	0.0	21	36	34	0.0	20.0	25.0	2	0.891	0.000	R	34	25.0	1407.071	1409.860	1410.750	1410.753	0
2	22071901	357	High	1.5	Precise	1	36	34	27	20.0	25.0	8.3	34	27	36	25.0	8.3	20.0	2	0.805	0.000	L	34	25.0	1411.255	1412.121	1412.926	1412.929	0
2	22071901	358	High	1.5	Precise	1	35	26	24	25.0	25.7	1.3	26	35	24	25.7	25.0	1.3	1	0.840	0.001	D	35	25.0	1413.433	1415.655	1416.495	1416.497	0
2	22071901	359	High	1.5	Vague	2	35	26	10	25.0	25.7	13.9	35	26	10	25.0	25.7	13.9	2	0.906	0.000	D	26	25.7	1417.000	1419.564	1420.471	1420.473	0
2	22071901	360	High	1.5	Precise	1	34	26	21	25.0	25.7	0.0	34	26	21	25.0	25.7	0.0	2	1.240	0.001	D	26	25.7	1420.976	1422.207	1423.447	1423.449	0
