Group	subID	trial	TimePressure	TimeConstraint	Vagueness	Vaguenesscode	ID1	ID2	ID3	V1	V2	V3	ID_left	ID_middle	ID_right	Bid_left	Bid_middle	Bid_right	chosenItem	RT	RTvariance	chosenPosition	chosenID	chosenValue	fixation_time	option_time	choice_time	feedback_time	timeout
2	22071913	1	Low	10.0	Vague	2	29	20	13	0.1	0.1	0.0	13	29	20	0.0	0.1	0.1	1	1.765	0.000	D	29	0.1	7.671	10.464	12.229	12.248	0
2	22071913	2	Low	10.0	Precise	1	29	20	28	0.1	0.1	0.0	28	20	29	0.0	0.1	0.1	1	2.034	0.000	R	29	0.1	12.753	14.043	16.077	16.080	0
2	22071913	3	Low	10.0	Precise	1	35	20	32	0.0	0.1	0.0	35	20	32	0.0	0.1	0.0	1	1.309	0.000	L	35	0.0	16.630	17.401	18.709	18.712	0
2	22071913	4	Low	10.0	Precise	1	36	20	28	0.0	0.1	0.0	36	28	20	0.0	0.0	0.1	1	1.878	0.000	L	36	0.0	19.218	21.359	23.237	23.240	0
2	22071913	5	Low	10.0	Precise	1	34	29	22	0.0	0.1	0.0	29	22	34	0.1	0.0	0.0	2	1.322	0.001	L	29	0.1	23.744	26.411	27.733	27.738	0
2	22071913	6	Low	10.0	Vague	2	34	20	13	0.0	0.1	0.0	20	34	13	0.1	0.0	0.0	1	0.958	0.001	D	34	0.0	28.243	28.823	29.782	29.784	0
2	22071913	7	Low	10.0	Vague	2	34	29	10	0.0	0.1	0.0	29	34	10	0.1	0.0	0.0	2	1.400	0.001	L	29	0.1	30.287	31.486	32.885	32.888	0
2	22071913	8	Low	10.0	Precise	1	35	36	22	0.0	0.0	0.0	36	22	35	0.0	0.0	0.0	1	1.319	0.000	R	35	0.0	33.390	34.126	35.445	35.448	0
2	22071913	9	Low	10.0	Vague	2	36	20	1	0.0	0.1	0.0	1	36	20	0.0	0.0	0.1	1	1.310	0.000	D	36	0.0	35.951	37.887	39.197	39.200	0
2	22071913	10	Low	10.0	Vague	2	35	29	1	0.0	0.1	0.0	35	1	29	0.0	0.0	0.1	1	0.952	0.001	L	35	0.0	39.703	40.621	41.573	41.576	0
2	22071913	11	Low	10.0	Vague	2	35	36	3	0.0	0.0	0.0	3	35	36	0.0	0.0	0.0	1	1.123	0.000	D	35	0.0	42.079	44.242	45.365	45.368	0
2	22071913	12	Low	10.0	Precise	1	29	30	26	0.1	0.1	0.0	29	30	26	0.1	0.1	0.0	1	0.940	0.001	L	29	0.1	45.870	46.425	47.365	47.368	0
2	22071913	13	Low	10.0	Precise	1	35	36	32	0.0	0.0	0.0	32	35	36	0.0	0.0	0.0	1	1.644	0.000	D	35	0.0	47.871	48.841	50.485	50.487	0
2	22071913	14	Low	10.0	Vague	2	29	30	6	0.1	0.1	0.0	29	6	30	0.1	0.0	0.1	1	1.951	0.001	L	29	0.1	50.991	51.934	53.885	53.888	0
2	22071913	15	Low	10.0	Precise	1	34	36	28	0.0	0.0	0.0	36	28	34	0.0	0.0	0.0	1	2.344	0.000	R	34	0.0	54.391	56.277	58.621	58.624	0
2	22071913	16	Low	10.0	Precise	1	29	30	24	0.1	0.1	0.0	30	29	24	0.1	0.1	0.0	1	1.496	0.001	D	29	0.1	59.126	61.837	63.333	63.336	0
2	22071913	17	Low	10.0	Precise	1	20	30	19	0.1	0.1	0.0	19	20	30	0.0	0.1	0.1	2	1.220	0.001	R	30	0.1	63.839	66.417	67.637	67.640	0
2	22071913	18	Low	10.0	Precise	1	34	29	26	0.0	0.1	0.0	34	29	26	0.0	0.1	0.0	1	1.110	0.001	L	34	0.0	68.143	69.695	70.805	70.808	0
2	22071913	19	Low	10.0	Precise	1	36	20	26	0.0	0.1	0.0	36	20	26	0.0	0.1	0.0	3	1.519	0.000	R	26	0.0	71.310	72.983	74.501	74.504	0
2	22071913	20	Low	10.0	Precise	1	20	30	22	0.1	0.1	0.0	20	22	30	0.1	0.0	0.1	2	1.213	0.000	R	30	0.1	75.006	76.120	77.333	77.336	0
2	22071913	21	Low	10.0	Vague	2	35	30	10	0.0	0.1	0.0	35	30	10	0.0	0.1	0.0	1	0.715	0.001	L	35	0.0	77.838	79.322	80.038	80.040	0
2	22071913	22	Low	10.0	Vague	2	35	29	13	0.0	0.1	0.0	13	29	35	0.0	0.1	0.0	1	1.027	0.001	R	35	0.0	80.543	83.498	84.525	84.528	0
2	22071913	23	Low	10.0	Precise	1	35	30	22	0.0	0.1	0.0	22	30	35	0.0	0.1	0.0	1	0.943	0.001	R	35	0.0	85.030	87.599	88.541	88.544	0
2	22071913	24	Low	10.0	Vague	2	29	30	13	0.1	0.1	0.0	13	30	29	0.0	0.1	0.1	1	1.339	0.000	R	29	0.1	89.047	90.386	91.725	91.728	0
2	22071913	25	Low	10.0	Vague	2	29	30	3	0.1	0.1	0.0	29	3	30	0.1	0.0	0.1	1	1.272	0.000	L	29	0.1	92.230	94.110	95.381	95.384	0
2	22071913	26	Low	10.0	Precise	1	35	36	24	0.0	0.0	0.0	35	36	24	0.0	0.0	0.0	1	0.766	0.001	L	35	0.0	95.887	98.336	99.101	99.104	0
2	22071913	27	Low	10.0	Precise	1	36	30	24	0.0	0.1	0.0	36	30	24	0.0	0.1	0.0	2	1.464	0.000	D	30	0.1	99.606	101.757	103.221	103.223	0
2	22071913	28	Low	10.0	Vague	2	36	29	3	0.0	0.1	0.0	3	36	29	0.0	0.0	0.1	2	1.596	0.001	R	29	0.1	103.726	104.233	105.829	105.832	0
2	22071913	29	Low	10.0	Vague	2	34	30	8	0.0	0.1	0.0	34	8	30	0.0	0.0	0.1	1	1.619	0.000	L	34	0.0	106.335	108.835	110.453	110.456	0
2	22071913	30	Low	10.0	Vague	2	34	30	13	0.0	0.1	0.0	34	30	13	0.0	0.1	0.0	1	1.068	0.000	L	34	0.0	110.958	112.649	113.717	113.720	0
2	22071913	31	Low	10.0	Vague	2	36	29	6	0.0	0.1	0.0	36	29	6	0.0	0.1	0.0	2	1.064	0.000	D	29	0.1	114.222	115.517	116.581	116.584	0
2	22071913	32	Low	10.0	Precise	1	34	36	24	0.0	0.0	0.0	24	36	34	0.0	0.0	0.0	1	0.764	0.000	R	34	0.0	117.086	118.233	118.997	119.000	0
2	22071913	33	Low	10.0	Vague	2	34	29	1	0.0	0.1	0.0	1	29	34	0.0	0.1	0.0	2	0.951	0.000	D	29	0.1	119.503	120.358	121.309	121.312	0
2	22071913	34	Low	10.0	Precise	1	29	20	26	0.1	0.1	0.0	26	29	20	0.0	0.1	0.1	1	0.848	0.001	D	29	0.1	121.814	123.029	123.877	123.880	0
2	22071913	35	Low	10.0	Vague	2	34	20	10	0.0	0.1	0.0	20	10	34	0.1	0.0	0.0	1	0.747	0.001	R	34	0.0	124.383	125.675	126.421	126.424	0
2	22071913	36	Low	10.0	Vague	2	34	35	13	0.0	0.0	0.0	13	34	35	0.0	0.0	0.0	2	0.807	0.000	R	35	0.0	126.926	129.918	130.725	130.727	0
2	22071913	37	Low	10.0	Precise	1	29	20	32	0.1	0.1	0.0	29	20	32	0.1	0.1	0.0	1	1.304	0.000	L	29	0.1	131.230	132.941	134.245	134.248	0
2	22071913	38	Low	10.0	Precise	1	34	36	19	0.0	0.0	0.0	36	19	34	0.0	0.0	0.0	1	1.039	0.000	R	34	0.0	134.751	135.727	136.765	136.768	0
2	22071913	39	Low	10.0	Vague	2	36	30	3	0.0	0.1	0.0	36	3	30	0.0	0.0	0.1	2	1.293	0.001	R	30	0.1	137.271	139.296	140.589	140.592	0
2	22071913	40	Low	10.0	Vague	2	29	20	3	0.1	0.1	0.0	29	3	20	0.1	0.0	0.1	1	0.773	0.000	L	29	0.1	141.094	143.424	144.197	144.199	0
2	22071913	41	Low	10.0	Vague	2	34	29	8	0.0	0.1	0.0	34	8	29	0.0	0.0	0.1	1	1.243	0.000	L	34	0.0	144.702	145.882	147.125	147.128	0
2	22071913	42	Low	10.0	Vague	2	34	30	1	0.0	0.1	0.0	34	30	1	0.0	0.1	0.0	1	1.108	0.000	L	34	0.0	147.631	149.761	150.869	150.871	0
2	22071913	43	Low	10.0	Precise	1	36	30	32	0.0	0.1	0.0	30	36	32	0.1	0.0	0.0	2	1.922	0.000	L	30	0.1	151.375	154.036	155.957	155.960	0
2	22071913	44	Low	10.0	Precise	1	35	30	19	0.0	0.1	0.0	19	30	35	0.0	0.1	0.0	1	0.848	0.000	R	35	0.0	156.463	157.621	158.469	158.472	0
2	22071913	45	Low	10.0	Vague	2	34	36	8	0.0	0.0	0.0	8	36	34	0.0	0.0	0.0	1	0.884	0.000	R	34	0.0	158.975	161.458	162.341	162.344	0
2	22071913	46	Low	10.0	Precise	1	34	30	26	0.0	0.1	0.0	30	34	26	0.1	0.0	0.0	1	0.942	0.000	D	34	0.0	162.846	163.359	164.301	164.303	0
2	22071913	47	Low	10.0	Precise	1	34	30	19	0.0	0.1	0.0	34	30	19	0.0	0.1	0.0	1	0.886	0.000	L	34	0.0	164.806	166.119	167.005	167.007	0
2	22071913	48	Low	10.0	Precise	1	36	29	28	0.0	0.1	0.0	29	28	36	0.1	0.0	0.0	2	1.023	0.000	L	29	0.1	167.511	169.350	170.373	170.375	0
2	22071913	49	Low	10.0	Vague	2	36	20	13	0.0	0.1	0.0	20	36	13	0.1	0.0	0.0	1	2.286	0.000	D	36	0.0	170.879	173.367	175.653	175.656	0
2	22071913	50	Low	10.0	Precise	1	34	29	19	0.0	0.1	0.0	19	29	34	0.0	0.1	0.0	2	1.006	0.000	D	29	0.1	176.158	178.704	179.709	179.712	0
2	22071913	51	Low	10.0	Vague	2	34	20	3	0.0	0.1	0.0	3	34	20	0.0	0.0	0.1	1	1.643	0.000	D	34	0.0	180.215	181.698	183.341	183.344	0
2	22071913	52	Low	10.0	Precise	1	36	20	24	0.0	0.1	0.0	24	36	20	0.0	0.0	0.1	1	1.560	0.000	D	36	0.0	183.846	184.933	186.493	186.496	0
2	22071913	53	Low	10.0	Precise	1	36	29	32	0.0	0.1	0.0	29	36	32	0.1	0.0	0.0	2	1.727	0.000	L	29	0.1	186.998	189.702	191.429	191.432	0
2	22071913	54	Low	10.0	Precise	1	20	30	24	0.1	0.1	0.0	30	20	24	0.1	0.1	0.0	2	1.415	0.000	L	30	0.1	191.935	194.638	196.053	196.056	0
2	22071913	55	Low	10.0	Precise	1	36	30	19	0.0	0.1	0.0	30	36	19	0.1	0.0	0.0	2	1.819	0.001	L	30	0.1	196.558	199.363	201.181	201.184	0
2	22071913	56	Low	10.0	Vague	2	34	30	6	0.0	0.1	0.0	6	30	34	0.0	0.1	0.0	1	1.072	0.001	R	34	0.0	201.686	204.493	205.565	205.568	0
2	22071913	57	Low	10.0	Precise	1	20	30	26	0.1	0.1	0.0	26	20	30	0.0	0.1	0.1	2	1.222	0.000	R	30	0.1	206.071	207.399	208.621	208.623	0
2	22071913	58	Low	10.0	Vague	2	35	36	6	0.0	0.0	0.0	35	36	6	0.0	0.0	0.0	1	0.832	0.000	L	35	0.0	209.126	211.533	212.365	212.367	0
2	22071913	59	Low	10.0	Precise	1	36	30	22	0.0	0.1	0.0	36	30	22	0.0	0.1	0.0	2	1.445	0.000	D	30	0.1	212.870	215.304	216.749	216.751	0
2	22071913	60	Low	10.0	Vague	2	35	30	13	0.0	0.1	0.0	35	30	13	0.0	0.1	0.0	1	0.748	0.000	L	35	0.0	217.254	218.529	219.277	219.279	0
2	22071913	61	Low	10.0	Precise	1	34	35	19	0.0	0.0	0.0	34	19	35	0.0	0.0	0.0	2	0.813	0.001	R	35	0.0	227.612	229.776	230.589	230.592	0
2	22071913	62	Low	10.0	Vague	2	36	29	8	0.0	0.1	0.0	36	29	8	0.0	0.1	0.0	1	1.194	0.000	L	36	0.0	231.095	231.916	233.109	233.112	0
2	22071913	63	Low	10.0	Vague	2	34	36	3	0.0	0.0	0.0	34	36	3	0.0	0.0	0.0	1	1.394	0.000	L	34	0.0	233.614	235.587	236.981	236.983	0
2	22071913	64	Low	10.0	Precise	1	34	35	28	0.0	0.0	0.0	28	34	35	0.0	0.0	0.0	1	1.224	0.000	D	34	0.0	237.487	240.086	241.309	241.312	0
2	22071913	65	Low	10.0	Vague	2	34	20	8	0.0	0.1	0.0	8	34	20	0.0	0.0	0.1	1	1.220	0.000	D	34	0.0	241.814	244.153	245.373	245.376	0
2	22071913	66	Low	10.0	Vague	2	36	30	8	0.0	0.1	0.0	30	8	36	0.1	0.0	0.0	2	2.259	0.000	L	30	0.1	245.880	246.753	249.013	249.015	0
2	22071913	67	Low	10.0	Vague	2	34	36	1	0.0	0.0	0.0	1	34	36	0.0	0.0	0.0	1	1.030	0.000	D	34	0.0	249.518	251.519	252.549	252.552	0
2	22071913	68	Low	10.0	Vague	2	36	30	1	0.0	0.1	0.0	1	30	36	0.0	0.1	0.0	2	1.338	0.000	D	30	0.1	253.055	254.691	256.029	256.032	0
2	22071913	69	Low	10.0	Vague	2	20	30	6	0.1	0.1	0.0	6	30	20	0.0	0.1	0.1	2	1.203	0.001	D	30	0.1	256.534	258.362	259.565	259.568	0
2	22071913	70	Low	10.0	Vague	2	34	30	10	0.0	0.1	0.0	30	34	10	0.1	0.0	0.0	1	1.273	0.001	D	34	0.0	260.070	260.788	262.061	262.064	0
2	22071913	71	Low	10.0	Precise	1	34	20	24	0.0	0.1	0.0	24	20	34	0.0	0.1	0.0	1	1.507	0.000	R	34	0.0	262.566	263.762	265.269	265.271	0
2	22071913	72	Low	10.0	Vague	2	35	36	8	0.0	0.0	0.0	8	35	36	0.0	0.0	0.0	1	0.843	0.001	D	35	0.0	265.775	268.611	269.453	269.456	0
2	22071913	73	Low	10.0	Precise	1	36	29	22	0.0	0.1	0.0	22	29	36	0.0	0.1	0.0	2	1.044	0.001	D	29	0.1	269.958	272.586	273.629	273.632	0
2	22071913	74	Low	10.0	Vague	2	35	36	1	0.0	0.0	0.0	35	36	1	0.0	0.0	0.0	1	0.866	0.000	L	35	0.0	274.134	276.011	276.877	276.879	0
2	22071913	75	Low	10.0	Vague	2	34	36	13	0.0	0.0	0.0	34	36	13	0.0	0.0	0.0	1	1.492	0.000	L	34	0.0	277.382	278.361	279.853	279.855	0
2	22071913	76	Low	10.0	Precise	1	36	30	28	0.0	0.1	0.0	28	30	36	0.0	0.1	0.0	2	1.254	0.001	D	30	0.1	280.358	283.023	284.277	284.280	0
2	22071913	77	Low	10.0	Vague	2	35	29	8	0.0	0.1	0.0	8	35	29	0.0	0.0	0.1	1	1.409	0.001	D	35	0.0	284.782	287.388	288.797	288.800	0
2	22071913	78	Low	10.0	Precise	1	29	30	32	0.1	0.1	0.0	30	32	29	0.1	0.0	0.1	1	0.892	0.001	R	29	0.1	289.303	291.370	292.261	292.264	0
2	22071913	79	Low	10.0	Precise	1	35	30	24	0.0	0.1	0.0	30	35	24	0.1	0.0	0.0	2	1.255	0.000	L	30	0.1	292.766	295.510	296.765	296.767	0
2	22071913	80	Low	10.0	Precise	1	36	30	26	0.0	0.1	0.0	26	30	36	0.0	0.1	0.0	2	1.369	0.001	D	30	0.1	297.270	300.061	301.429	301.432	0
2	22071913	81	Low	10.0	Precise	1	34	30	22	0.0	0.1	0.0	34	22	30	0.0	0.0	0.1	1	1.107	0.000	L	34	0.0	301.934	304.370	305.477	305.479	0
2	22071913	82	Low	10.0	Vague	2	35	20	10	0.0	0.1	0.0	35	10	20	0.0	0.0	0.1	1	0.865	0.001	L	35	0.0	305.982	307.644	308.509	308.512	0
2	22071913	83	Low	10.0	Precise	1	35	20	24	0.0	0.1	0.0	20	24	35	0.1	0.0	0.0	1	0.772	0.000	R	35	0.0	309.015	311.761	312.533	312.535	0
2	22071913	84	Low	10.0	Precise	1	35	29	26	0.0	0.1	0.0	26	29	35	0.0	0.1	0.0	1	0.839	0.000	R	35	0.0	313.038	314.038	314.877	314.879	0
2	22071913	85	Low	10.0	Precise	1	35	29	24	0.0	0.1	0.0	29	35	24	0.1	0.0	0.0	1	0.894	0.000	D	35	0.0	315.383	317.343	318.237	318.240	0
2	22071913	86	Low	10.0	Precise	1	34	20	26	0.0	0.1	0.0	20	26	34	0.1	0.0	0.0	1	1.456	0.000	R	34	0.0	318.742	319.357	320.813	320.815	0
2	22071913	87	Low	10.0	Vague	2	36	29	10	0.0	0.1	0.0	10	29	36	0.0	0.1	0.0	2	1.402	0.000	D	29	0.1	321.318	324.259	325.661	325.663	0
2	22071913	88	Low	10.0	Precise	1	34	29	24	0.0	0.1	0.0	24	29	34	0.0	0.1	0.0	1	0.931	0.000	R	34	0.0	326.166	327.522	328.453	328.455	0
2	22071913	89	Low	10.0	Precise	1	34	20	32	0.0	0.1	0.0	34	20	32	0.0	0.1	0.0	1	1.191	0.000	L	34	0.0	328.958	331.206	332.397	332.400	0
2	22071913	90	Low	10.0	Vague	2	29	20	10	0.1	0.1	0.0	20	29	10	0.1	0.1	0.0	1	1.086	0.000	D	29	0.1	332.903	333.791	334.877	334.880	0
2	22071913	91	Low	10.0	Precise	1	36	29	19	0.0	0.1	0.0	19	29	36	0.0	0.1	0.0	2	1.369	0.000	D	29	0.1	335.383	337.164	338.533	338.536	0
2	22071913	92	Low	10.0	Precise	1	35	29	32	0.0	0.1	0.0	29	35	32	0.1	0.0	0.0	2	0.926	0.000	L	29	0.1	339.038	340.111	341.037	341.040	0
2	22071913	93	Low	10.0	Vague	2	35	20	8	0.0	0.1	0.0	20	8	35	0.1	0.0	0.0	1	0.933	0.000	R	35	0.0	341.542	343.496	344.429	344.431	0
2	22071913	94	Low	10.0	Precise	1	35	30	28	0.0	0.1	0.0	28	35	30	0.0	0.0	0.1	1	0.790	0.000	D	35	0.0	344.934	347.255	348.045	348.047	0
2	22071913	95	Low	10.0	Vague	2	35	36	10	0.0	0.0	0.0	10	35	36	0.0	0.0	0.0	1	0.707	0.000	D	35	0.0	348.551	349.522	350.229	350.232	0
2	22071913	96	Low	10.0	Vague	2	35	29	3	0.0	0.1	0.0	29	3	35	0.1	0.0	0.0	1	0.807	0.000	R	35	0.0	350.735	352.334	353.141	353.143	0
2	22071913	97	Low	10.0	Vague	2	34	29	13	0.0	0.1	0.0	34	29	13	0.0	0.1	0.0	1	1.045	0.000	L	34	0.0	353.647	356.048	357.093	357.096	0
2	22071913	98	Low	10.0	Precise	1	35	36	28	0.0	0.0	0.0	35	28	36	0.0	0.0	0.0	1	1.239	0.000	L	35	0.0	357.598	360.310	361.549	361.551	0
2	22071913	99	Low	10.0	Vague	2	29	20	6	0.1	0.1	0.0	29	6	20	0.1	0.0	0.1	1	0.812	0.001	L	29	0.1	362.054	363.537	364.349	364.351	0
2	22071913	100	Low	10.0	Precise	1	35	29	28	0.0	0.1	0.0	29	28	35	0.1	0.0	0.0	2	1.134	0.001	L	29	0.1	364.854	366.720	367.853	367.856	0
2	22071913	101	Low	10.0	Precise	1	34	20	19	0.0	0.1	0.0	34	19	20	0.0	0.0	0.1	1	0.969	0.000	L	34	0.0	368.359	370.140	371.109	371.111	0
2	22071913	102	Low	10.0	Vague	2	20	30	13	0.1	0.1	0.0	13	30	20	0.0	0.1	0.1	2	2.079	0.000	D	30	0.1	371.614	372.239	374.317	374.319	0
2	22071913	103	Low	10.0	Vague	2	35	20	3	0.0	0.1	0.0	3	20	35	0.0	0.1	0.0	1	0.889	0.001	R	35	0.0	374.822	377.028	377.917	377.919	0
2	22071913	104	Low	10.0	Vague	2	34	29	6	0.0	0.1	0.0	34	6	29	0.0	0.0	0.1	2	1.132	0.000	R	29	0.1	378.423	379.817	380.949	380.951	0
2	22071913	105	Low	10.0	Precise	1	29	30	28	0.1	0.1	0.0	28	29	30	0.0	0.1	0.1	1	1.798	0.001	D	29	0.1	381.454	383.839	385.637	385.640	0
2	22071913	106	Low	10.0	Precise	1	35	20	28	0.0	0.1	0.0	35	20	28	0.0	0.1	0.0	1	1.151	0.000	L	35	0.0	386.142	389.054	390.205	390.207	0
2	22071913	107	Low	10.0	Vague	2	36	29	13	0.0	0.1	0.0	36	29	13	0.0	0.1	0.0	2	1.208	0.000	D	29	0.1	390.710	393.061	394.269	394.271	0
2	22071913	108	Low	10.0	Vague	2	35	20	1	0.0	0.1	0.0	20	1	35	0.1	0.0	0.0	1	0.745	0.000	R	35	0.0	394.774	397.740	398.485	398.487	0
2	22071913	109	Low	10.0	Vague	2	20	30	8	0.1	0.1	0.0	20	8	30	0.1	0.0	0.1	2	1.159	0.000	R	30	0.1	398.990	400.566	401.725	401.727	0
2	22071913	110	Low	10.0	Precise	1	35	36	26	0.0	0.0	0.0	36	26	35	0.0	0.0	0.0	1	0.831	0.000	R	35	0.0	402.230	404.318	405.149	405.151	0
2	22071913	111	Low	10.0	Vague	2	36	20	10	0.0	0.1	0.0	36	10	20	0.0	0.0	0.1	1	2.763	0.000	L	36	0.0	405.655	406.562	409.325	409.327	0
2	22071913	112	Low	10.0	Vague	2	36	20	6	0.0	0.1	0.0	36	20	6	0.0	0.1	0.0	1	1.582	0.000	L	36	0.0	409.830	410.599	412.181	412.183	0
2	22071913	113	Low	10.0	Precise	1	34	35	32	0.0	0.0	0.0	35	32	34	0.0	0.0	0.0	2	0.725	0.000	L	35	0.0	412.686	415.488	416.213	416.215	0
2	22071913	114	Low	10.0	Vague	2	36	29	1	0.0	0.1	0.0	29	36	1	0.1	0.0	0.0	2	1.160	0.001	L	29	0.1	416.718	417.621	418.781	418.784	0
2	22071913	115	Low	10.0	Precise	1	36	20	22	0.0	0.1	0.0	20	36	22	0.1	0.0	0.0	1	1.869	0.000	D	36	0.0	419.286	421.360	423.229	423.231	0
2	22071913	116	Low	10.0	Precise	1	20	30	28	0.1	0.1	0.0	30	28	20	0.1	0.0	0.1	2	1.516	0.000	L	30	0.1	423.735	425.665	427.181	427.183	0
2	22071913	117	Low	10.0	Vague	2	36	30	13	0.0	0.1	0.0	13	30	36	0.0	0.1	0.0	2	1.453	0.000	D	30	0.1	427.687	430.192	431.645	431.648	0
2	22071913	118	Low	10.0	Vague	2	29	20	1	0.1	0.1	0.0	20	1	29	0.1	0.0	0.1	1	0.875	0.000	R	29	0.1	432.151	432.786	433.661	433.663	0
2	22071913	119	Low	10.0	Vague	2	36	20	8	0.0	0.1	0.0	36	8	20	0.0	0.0	0.1	1	1.259	0.000	L	36	0.0	434.166	435.362	436.621	436.623	0
2	22071913	120	Low	10.0	Vague	2	35	29	10	0.0	0.1	0.0	29	35	10	0.1	0.0	0.0	1	1.384	0.000	D	35	0.0	437.126	438.774	440.157	440.160	0
2	22071913	121	Low	10.0	Vague	2	20	30	10	0.1	0.1	0.0	30	20	10	0.1	0.1	0.0	2	1.711	0.001	L	30	0.1	448.001	450.270	451.981	451.983	0
2	22071913	122	Low	10.0	Precise	1	35	30	26	0.0	0.1	0.0	26	30	35	0.0	0.1	0.0	1	0.894	0.000	R	35	0.0	452.486	454.511	455.405	455.407	0
2	22071913	123	Low	10.0	Precise	1	35	20	22	0.0	0.1	0.0	35	22	20	0.0	0.0	0.1	1	0.987	0.000	L	35	0.0	455.910	457.874	458.861	458.863	0
2	22071913	124	Low	10.0	Precise	1	34	35	26	0.0	0.0	0.0	34	26	35	0.0	0.0	0.0	2	1.127	0.000	R	35	0.0	459.367	460.654	461.781	461.783	0
2	22071913	125	Low	10.0	Precise	1	36	29	24	0.0	0.1	0.0	36	29	24	0.0	0.1	0.0	1	1.264	0.001	L	36	0.0	462.286	463.045	464.309	464.311	0
2	22071913	126	Low	10.0	Precise	1	36	20	19	0.0	0.1	0.0	36	19	20	0.0	0.0	0.1	1	1.296	0.000	L	36	0.0	464.815	466.804	468.101	468.104	0
2	22071913	127	Low	10.0	Precise	1	35	20	19	0.0	0.1	0.0	35	19	20	0.0	0.0	0.1	1	0.945	0.001	L	35	0.0	468.607	470.700	471.645	471.647	0
2	22071913	128	Low	10.0	Precise	1	34	35	24	0.0	0.0	0.0	24	34	35	0.0	0.0	0.0	2	0.899	0.000	R	35	0.0	472.151	474.274	475.173	475.175	0
2	22071913	129	Low	10.0	Vague	2	35	30	8	0.0	0.1	0.0	8	30	35	0.0	0.1	0.0	1	0.673	0.000	R	35	0.0	475.678	477.212	477.885	477.887	0
2	22071913	130	Low	10.0	Vague	2	34	20	6	0.0	0.1	0.0	34	6	20	0.0	0.0	0.1	1	0.942	0.000	L	34	0.0	478.390	478.983	479.925	479.927	0
2	22071913	131	Low	10.0	Vague	2	35	36	13	0.0	0.0	0.0	13	35	36	0.0	0.0	0.0	1	1.505	0.000	D	35	0.0	480.430	481.068	482.573	482.575	0
2	22071913	132	Low	10.0	Precise	1	29	20	22	0.1	0.1	0.0	29	22	20	0.1	0.0	0.1	1	0.737	0.000	L	29	0.1	483.078	485.764	486.501	486.503	0
2	22071913	133	Low	10.0	Precise	1	36	20	32	0.0	0.1	0.0	32	36	20	0.0	0.0	0.1	3	0.729	0.000	L	32	0.0	487.006	489.884	490.613	490.615	0
2	22071913	134	Low	10.0	Vague	2	35	30	3	0.0	0.1	0.0	30	35	3	0.1	0.0	0.0	2	1.032	0.001	L	30	0.1	491.118	492.133	493.165	493.167	0
2	22071913	135	Low	10.0	Vague	2	35	30	1	0.0	0.1	0.0	30	1	35	0.1	0.0	0.0	1	0.902	0.000	R	35	0.0	493.670	496.255	497.157	497.159	0
2	22071913	136	Low	10.0	Precise	1	20	30	32	0.1	0.1	0.0	20	30	32	0.1	0.1	0.0	2	1.442	0.001	D	30	0.1	497.662	498.267	499.709	499.711	0
2	22071913	137	Low	10.0	Vague	2	34	20	1	0.0	0.1	0.0	34	1	20	0.0	0.0	0.1	1	1.052	0.000	L	34	0.0	500.214	501.193	502.245	502.247	0
2	22071913	138	Low	10.0	Vague	2	29	20	8	0.1	0.1	0.0	29	8	20	0.1	0.0	0.1	1	0.862	0.000	L	29	0.1	502.750	505.103	505.965	505.967	0
2	22071913	139	Low	10.0	Vague	2	34	30	3	0.0	0.1	0.0	3	34	30	0.0	0.0	0.1	1	0.990	0.001	D	34	0.0	506.470	508.583	509.573	509.575	0
2	22071913	140	Low	10.0	Precise	1	34	36	32	0.0	0.0	0.0	36	32	34	0.0	0.0	0.0	1	2.108	0.000	R	34	0.0	510.078	511.208	513.317	513.319	0
2	22071913	141	Low	10.0	Vague	2	34	36	10	0.0	0.0	0.0	34	10	36	0.0	0.0	0.0	1	1.329	0.000	L	34	0.0	513.822	515.300	516.629	516.631	0
2	22071913	142	Low	10.0	Precise	1	29	30	22	0.1	0.1	0.0	22	29	30	0.0	0.1	0.1	1	1.192	0.000	D	29	0.1	517.133	518.717	519.909	519.911	0
2	22071913	143	Low	10.0	Precise	1	34	36	26	0.0	0.0	0.0	36	26	34	0.0	0.0	0.0	1	1.504	0.000	R	34	0.0	520.414	521.749	523.253	523.255	0
2	22071913	144	Low	10.0	Vague	2	34	35	10	0.0	0.0	0.0	35	10	34	0.0	0.0	0.0	2	0.823	0.000	L	35	0.0	523.757	524.469	525.293	525.295	0
2	22071913	145	Low	10.0	Precise	1	35	36	19	0.0	0.0	0.0	36	19	35	0.0	0.0	0.0	1	0.761	0.000	R	35	0.0	525.797	527.724	528.485	528.487	0
2	22071913	146	Low	10.0	Vague	2	34	35	6	0.0	0.0	0.0	34	35	6	0.0	0.0	0.0	2	1.048	0.000	D	35	0.0	528.991	531.245	532.293	532.295	0
2	22071913	147	Low	10.0	Vague	2	36	30	6	0.0	0.1	0.0	6	30	36	0.0	0.1	0.0	2	1.890	0.000	D	30	0.1	532.798	535.011	536.901	536.904	0
2	22071913	148	Low	10.0	Precise	1	34	20	22	0.0	0.1	0.0	22	20	34	0.0	0.1	0.0	1	1.714	0.000	R	34	0.0	537.407	539.146	540.861	540.863	0
2	22071913	149	Low	10.0	Vague	2	34	29	3	0.0	0.1	0.0	34	29	3	0.0	0.1	0.0	2	1.121	0.000	D	29	0.1	541.367	543.532	544.653	544.655	0
2	22071913	150	Low	10.0	Precise	1	34	30	28	0.0	0.1	0.0	28	34	30	0.0	0.0	0.1	1	1.573	0.001	D	34	0.0	545.158	546.992	548.565	548.567	0
2	22071913	151	Low	10.0	Precise	1	29	20	24	0.1	0.1	0.0	24	29	20	0.0	0.1	0.1	1	1.297	0.000	D	29	0.1	549.070	550.299	551.597	551.599	0
2	22071913	152	Low	10.0	Vague	2	29	30	10	0.1	0.1	0.0	29	30	10	0.1	0.1	0.0	1	1.142	0.000	L	29	0.1	552.102	553.102	554.245	554.247	0
2	22071913	153	Low	10.0	Precise	1	35	20	26	0.0	0.1	0.0	20	35	26	0.1	0.0	0.0	1	0.899	0.000	D	35	0.0	554.749	556.410	557.309	557.311	0
2	22071913	154	Low	10.0	Vague	2	34	35	3	0.0	0.0	0.0	34	35	3	0.0	0.0	0.0	2	1.425	0.000	D	35	0.0	557.814	560.100	561.525	561.527	0
2	22071913	155	Low	10.0	Vague	2	34	35	1	0.0	0.0	0.0	34	1	35	0.0	0.0	0.0	2	0.986	0.000	R	35	0.0	562.030	563.235	564.221	564.223	0
2	22071913	156	Low	10.0	Precise	1	34	30	32	0.0	0.1	0.0	32	30	34	0.0	0.1	0.0	1	1.248	0.000	R	34	0.0	564.726	567.053	568.301	568.303	0
2	22071913	157	Low	10.0	Precise	1	34	29	32	0.0	0.1	0.0	29	32	34	0.1	0.0	0.0	2	1.175	0.000	L	29	0.1	568.806	571.046	572.221	572.223	0
2	22071913	158	Low	10.0	Vague	2	29	30	8	0.1	0.1	0.0	29	8	30	0.1	0.0	0.1	1	1.010	0.001	L	29	0.1	572.726	575.595	576.605	576.607	0
2	22071913	159	Low	10.0	Precise	1	35	29	19	0.0	0.1	0.0	19	35	29	0.0	0.0	0.1	2	0.723	0.001	R	29	0.1	577.111	577.778	578.501	578.503	0
2	22071913	160	Low	10.0	Vague	2	29	30	1	0.1	0.1	0.0	30	29	1	0.1	0.1	0.0	1	0.893	0.000	D	29	0.1	579.006	581.840	582.733	582.735	0
2	22071913	161	Low	10.0	Vague	2	36	30	10	0.0	0.1	0.0	30	36	10	0.1	0.0	0.0	2	1.915	0.001	L	30	0.1	583.237	584.466	586.381	586.383	0
2	22071913	162	Low	10.0	Precise	1	29	20	19	0.1	0.1	0.0	20	29	19	0.1	0.1	0.0	1	0.855	0.001	D	29	0.1	586.886	587.470	588.325	588.327	0
2	22071913	163	Low	10.0	Vague	2	35	20	13	0.0	0.1	0.0	13	35	20	0.0	0.0	0.1	1	0.969	0.000	D	35	0.0	588.831	589.924	590.893	590.895	0
2	22071913	164	Low	10.0	Vague	2	35	30	6	0.0	0.1	0.0	30	6	35	0.1	0.0	0.0	1	0.857	0.001	R	35	0.0	591.398	592.028	592.885	592.887	0
2	22071913	165	Low	10.0	Precise	1	34	30	24	0.0	0.1	0.0	34	24	30	0.0	0.0	0.1	1	1.529	0.001	L	34	0.0	593.390	595.220	596.749	596.751	0
2	22071913	166	Low	10.0	Precise	1	36	29	26	0.0	0.1	0.0	26	36	29	0.0	0.0	0.1	2	1.502	0.000	R	29	0.1	597.254	598.334	599.837	599.839	0
2	22071913	167	Low	10.0	Precise	1	34	35	22	0.0	0.0	0.0	35	34	22	0.0	0.0	0.0	2	1.204	0.000	L	35	0.0	600.341	601.208	602.413	602.415	0
2	22071913	168	Low	10.0	Precise	1	29	30	19	0.1	0.1	0.0	29	19	30	0.1	0.0	0.1	1	0.961	0.000	L	29	0.1	602.918	604.523	605.485	605.487	0
2	22071913	169	Low	10.0	Vague	2	35	29	6	0.0	0.1	0.0	29	35	6	0.1	0.0	0.0	2	0.784	0.001	L	29	0.1	605.990	606.789	607.573	607.575	0
2	22071913	170	Low	10.0	Precise	1	35	29	22	0.0	0.1	0.0	35	29	22	0.0	0.1	0.0	1	0.626	0.000	L	35	0.0	608.079	609.715	610.341	610.343	0
2	22071913	171	Low	10.0	Vague	2	36	20	3	0.0	0.1	0.0	36	3	20	0.0	0.0	0.1	1	1.980	0.000	L	36	0.0	610.845	611.456	613.437	613.439	0
2	22071913	172	Low	10.0	Vague	2	34	36	6	0.0	0.0	0.0	6	36	34	0.0	0.0	0.0	1	1.500	0.001	R	34	0.0	613.942	614.817	616.317	616.319	0
2	22071913	173	Low	10.0	Vague	2	20	30	3	0.1	0.1	0.0	3	30	20	0.0	0.1	0.1	2	1.310	0.000	D	30	0.1	616.822	618.815	620.125	620.127	0
2	22071913	174	Low	10.0	Precise	1	34	29	28	0.0	0.1	0.0	34	28	29	0.0	0.0	0.1	2	1.076	0.000	R	29	0.1	620.630	621.904	622.980	622.983	0
2	22071913	175	Low	10.0	Vague	2	34	35	8	0.0	0.0	0.0	8	35	34	0.0	0.0	0.0	2	1.279	0.000	D	35	0.0	623.485	625.494	626.773	626.775	0
2	22071913	176	Low	10.0	Vague	2	20	30	1	0.1	0.1	0.0	1	30	20	0.0	0.1	0.1	2	1.060	0.000	D	30	0.1	627.278	630.168	631.229	631.231	0
2	22071913	177	Low	10.0	Precise	1	35	30	32	0.0	0.1	0.0	32	35	30	0.0	0.0	0.1	1	1.338	0.000	D	35	0.0	631.734	633.602	634.941	634.943	0
2	22071913	178	Low	10.0	Precise	1	34	36	22	0.0	0.0	0.0	22	34	36	0.0	0.0	0.0	1	1.128	0.001	D	34	0.0	635.447	638.269	639.397	639.399	0
2	22071913	179	Low	10.0	Precise	1	34	20	28	0.0	0.1	0.0	20	34	28	0.1	0.0	0.0	1	1.193	0.000	D	34	0.0	639.902	641.740	642.933	642.935	0
2	22071913	180	Low	10.0	Vague	2	35	20	6	0.0	0.1	0.0	20	6	35	0.1	0.0	0.0	1	1.095	0.000	R	35	0.0	643.438	646.390	647.485	647.488	0
2	22071913	181	High	1.5	Precise	1	36	29	25	0.0	0.1	0.0	29	25	36	0.1	0.0	0.0	2	0.686	0.001	L	29	0.1	665.087	666.599	667.285	667.287	0
2	22071913	182	High	1.5	Vague	2	36	29	2	0.0	0.1	0.0	36	2	29	0.0	0.0	0.1	2	0.613	0.001	R	29	0.1	667.790	670.135	670.749	670.751	0
2	22071913	183	High	1.5	Vague	2	34	30	12	0.0	0.1	0.0	34	12	30	0.0	0.0	0.1	1	0.683	0.001	L	34	0.0	671.255	672.410	673.093	673.096	0
2	22071913	184	High	1.5	Precise	1	34	36	21	0.0	0.0	0.0	34	21	36	0.0	0.0	0.0	2	0.561	0.000	R	36	0.0	673.599	676.420	676.981	676.983	0
2	22071913	185	High	1.5	Precise	1	20	30	27	0.1	0.1	0.0	20	27	30	0.1	0.0	0.1	2	0.768	0.000	R	30	0.1	677.485	680.205	680.972	680.975	0
2	22071913	186	High	1.5	Precise	1	29	20	31	0.1	0.1	0.0	29	31	20	0.1	0.0	0.1	1	0.668	0.001	L	29	0.1	681.478	682.313	682.981	682.983	0
2	22071913	187	High	1.5	Precise	1	34	20	23	0.0	0.1	0.0	23	34	20	0.0	0.0	0.1	1	0.918	0.000	D	34	0.0	683.486	684.102	685.021	685.023	0
2	22071913	188	High	1.5	Precise	1	36	30	21	0.0	0.1	0.0	21	36	30	0.0	0.0	0.1	2	0.778	0.000	R	30	0.1	685.526	686.323	687.101	687.103	0
2	22071913	189	High	1.5	Vague	2	36	30	12	0.0	0.1	0.0	36	12	30	0.0	0.0	0.1	2	0.810	0.001	R	30	0.1	687.606	690.586	691.397	691.399	0
2	22071913	190	High	1.5	Vague	2	29	20	9	0.1	0.1	0.0	9	29	20	0.0	0.1	0.1	1	0.693	0.001	D	29	0.1	691.902	694.784	695.477	695.479	0
2	22071913	191	High	1.5	Vague	2	35	30	9	0.0	0.1	0.0	9	35	30	0.0	0.0	0.1	2	0.781	0.000	R	30	0.1	695.983	698.383	699.164	699.167	0
2	22071913	192	High	1.5	Vague	2	36	20	7	0.0	0.1	0.0	36	7	20	0.0	0.0	0.1	3	0.666	0.000	D	7	0.0	699.670	700.250	700.916	700.919	0
2	22071913	193	High	1.5	Vague	2	36	20	5	0.0	0.1	0.0	5	36	20	0.0	0.0	0.1	1	1.297	0.000	D	36	0.0	701.421	701.996	703.293	703.295	0
2	22071913	194	High	1.5	Precise	1	36	29	33	0.0	0.1	0.0	29	36	33	0.1	0.0	0.0	2	0.615	0.000	L	29	0.1	703.798	705.886	706.501	706.503	0
2	22071913	195	High	1.5	Vague	2	29	20	12	0.1	0.1	0.0	20	12	29	0.1	0.0	0.1	1	0.583	0.001	R	29	0.1	707.005	707.806	708.389	708.391	0
2	22071913	196	High	1.5	Precise	1	29	20	27	0.1	0.1	0.0	20	29	27	0.1	0.1	0.0	1	0.629	0.000	D	29	0.1	708.894	710.720	711.349	711.351	0
2	22071913	197	High	1.5	Precise	1	20	30	21	0.1	0.1	0.0	30	21	20	0.1	0.0	0.1	2	1.099	0.001	L	30	0.1	711.854	714.674	715.773	715.775	0
2	22071913	198	High	1.5	Precise	1	34	20	31	0.0	0.1	0.0	34	20	31	0.0	0.1	0.0	1	1.379	0.000	L	34	0.0	716.278	717.170	718.549	718.551	0
2	22071913	199	High	1.5	Vague	2	34	20	7	0.0	0.1	0.0	34	20	7	0.0	0.1	0.0	1	0.990	0.000	L	34	0.0	719.053	721.198	722.188	722.191	0
2	22071913	200	High	1.5	Vague	2	29	30	12	0.1	0.1	0.0	30	12	29	0.1	0.0	0.1	1	0.679	0.000	R	29	0.1	722.693	725.246	725.924	725.927	0
2	22071913	201	High	1.5	Precise	1	35	20	21	0.0	0.1	0.0	35	21	20	0.0	0.0	0.1	1	0.869	0.000	L	35	0.0	726.430	727.920	728.789	728.791	0
2	22071913	202	High	1.5	Vague	2	34	35	9	0.0	0.0	0.0	9	34	35	0.0	0.0	0.0	2	0.577	0.000	R	35	0.0	729.295	731.443	732.021	732.023	0
2	22071913	203	High	1.5	Precise	1	29	20	33	0.1	0.1	0.0	33	20	29	0.0	0.1	0.1	1	0.663	0.001	R	29	0.1	732.526	734.126	734.789	734.791	0
2	22071913	204	High	1.5	Vague	2	34	20	12	0.0	0.1	0.0	20	34	12	0.1	0.0	0.0	1	0.884	0.000	D	34	0.0	735.294	736.193	737.077	737.079	0
2	22071913	205	High	1.5	Vague	2	35	29	7	0.0	0.1	0.0	29	7	35	0.1	0.0	0.0	2	1.370	0.001	L	29	0.1	737.582	738.603	739.973	739.976	0
2	22071913	206	High	1.5	Vague	2	36	30	2	0.0	0.1	0.0	36	2	30	0.0	0.0	0.1	2	0.847	0.000	R	30	0.1	740.478	742.741	743.589	743.591	0
2	22071913	207	High	1.5	Vague	2	29	20	14	0.1	0.1	0.0	14	29	20	0.0	0.1	0.1	1	0.850	0.001	D	29	0.1	744.093	745.187	746.037	746.039	0
2	22071913	208	High	1.5	Vague	2	35	30	5	0.0	0.1	0.0	35	5	30	0.0	0.0	0.1	1	1.161	0.000	L	35	0.0	746.542	748.036	749.196	749.199	0
2	22071913	209	High	1.5	Precise	1	34	29	21	0.0	0.1	0.0	21	34	29	0.0	0.0	0.1	2	0.706	0.000	R	29	0.1	749.702	751.954	752.661	752.663	0
2	22071913	210	High	1.5	Vague	2	35	36	7	0.0	0.0	0.0	7	36	35	0.0	0.0	0.0	1	1.034	0.000	R	35	0.0	753.166	755.738	756.773	756.775	0
2	22071913	211	High	1.5	Precise	1	34	36	25	0.0	0.0	0.0	34	25	36	0.0	0.0	0.0	1	1.411	0.000	L	34	0.0	757.279	758.601	760.013	760.015	0
2	22071913	212	High	1.5	Precise	1	29	30	27	0.1	0.1	0.0	29	30	27	0.1	0.1	0.0	1	0.788	0.001	L	29	0.1	760.518	763.121	763.909	763.911	0
2	22071913	213	High	1.5	Vague	2	34	29	9	0.0	0.1	0.0	29	9	34	0.1	0.0	0.0	2	0.736	0.000	L	29	0.1	764.414	765.485	766.221	766.223	0
2	22071913	214	High	1.5	Precise	1	35	30	27	0.0	0.1	0.0	35	30	27	0.0	0.1	0.0	1	0.727	0.001	L	35	0.0	766.726	769.358	770.085	770.087	0
2	22071913	215	High	1.5	Vague	2	20	30	5	0.1	0.1	0.0	5	20	30	0.0	0.1	0.1	NaN	NaN	NaN	NaN	NaN	NaN	770.590	771.579	NaN	773.069	1
2	22071913	216	High	1.5	Precise	1	36	30	23	0.0	0.1	0.0	23	30	36	0.0	0.1	0.0	2	1.023	0.001	D	30	0.1	775.074	776.213	777.237	777.241	0
2	22071913	217	High	1.5	Vague	2	36	30	9	0.0	0.1	0.0	30	9	36	0.1	0.0	0.0	2	0.837	0.000	L	30	0.1	777.744	779.064	779.901	779.903	0
2	22071913	218	High	1.5	Precise	1	34	20	25	0.0	0.1	0.0	34	20	25	0.0	0.1	0.0	3	0.647	0.001	R	25	0.0	780.407	782.366	783.013	783.015	0
2	22071913	219	High	1.5	Precise	1	36	20	21	0.0	0.1	0.0	21	36	20	0.0	0.0	0.1	1	0.625	0.001	D	36	0.0	783.518	784.500	785.125	785.127	0
2	22071913	220	High	1.5	Precise	1	29	30	23	0.1	0.1	0.0	30	29	23	0.1	0.1	0.0	2	0.639	0.001	L	30	0.1	785.630	786.669	787.309	787.311	0
2	22071913	221	High	1.5	Precise	1	36	30	25	0.0	0.1	0.0	25	30	36	0.0	0.1	0.0	1	0.824	0.000	R	36	0.0	787.814	788.309	789.132	789.135	0
2	22071913	222	High	1.5	Vague	2	35	29	12	0.0	0.1	0.0	35	29	12	0.0	0.1	0.0	2	0.515	0.000	D	29	0.1	789.638	792.594	793.109	793.111	0
2	22071913	223	High	1.5	Vague	2	36	30	5	0.0	0.1	0.0	5	30	36	0.0	0.1	0.0	3	0.649	0.000	L	5	0.0	793.613	795.900	796.549	796.551	0
2	22071913	224	High	1.5	Vague	2	35	29	2	0.0	0.1	0.0	35	2	29	0.0	0.0	0.1	1	0.756	0.001	L	35	0.0	797.053	797.897	798.653	798.655	0
2	22071913	225	High	1.5	Precise	1	34	30	25	0.0	0.1	0.0	25	34	30	0.0	0.0	0.1	2	0.751	0.001	R	30	0.1	799.158	801.014	801.765	801.767	0
2	22071913	226	High	1.5	Vague	2	36	20	14	0.0	0.1	0.0	20	14	36	0.1	0.0	0.0	1	1.008	0.000	R	36	0.0	802.270	804.645	805.653	805.655	0
2	22071913	227	High	1.5	Vague	2	35	20	2	0.0	0.1	0.0	20	35	2	0.1	0.0	0.0	1	0.773	0.001	D	35	0.0	806.157	808.808	809.581	809.583	0
2	22071913	228	High	1.5	Precise	1	35	30	33	0.0	0.1	0.0	30	33	35	0.1	0.0	0.0	1	0.747	0.000	R	35	0.0	810.086	812.626	813.372	813.375	0
2	22071913	229	High	1.5	Precise	1	34	29	27	0.0	0.1	0.0	29	27	34	0.1	0.0	0.0	2	0.614	0.001	L	29	0.1	813.878	816.439	817.053	817.055	0
2	22071913	230	High	1.5	Vague	2	34	20	2	0.0	0.1	0.0	20	34	2	0.1	0.0	0.0	1	0.639	0.000	D	34	0.0	817.558	819.598	820.237	820.239	0
2	22071913	231	High	1.5	Precise	1	34	29	31	0.0	0.1	0.0	34	29	31	0.0	0.1	0.0	1	0.817	0.001	L	34	0.0	820.742	823.316	824.133	824.135	0
2	22071913	232	High	1.5	Precise	1	29	30	31	0.1	0.1	0.0	31	29	30	0.0	0.1	0.1	1	0.601	0.001	D	29	0.1	824.638	825.404	826.005	826.007	0
2	22071913	233	High	1.5	Precise	1	36	30	31	0.0	0.1	0.0	36	31	30	0.0	0.0	0.1	2	1.183	0.000	R	30	0.1	826.509	827.542	828.725	828.727	0
2	22071913	234	High	1.5	Precise	1	35	29	31	0.0	0.1	0.0	31	35	29	0.0	0.0	0.1	2	0.527	0.001	R	29	0.1	829.230	830.918	831.445	831.447	0
2	22071913	235	High	1.5	Precise	1	34	36	23	0.0	0.0	0.0	34	36	23	0.0	0.0	0.0	2	0.954	0.000	D	36	0.0	831.950	833.539	834.493	834.496	0
2	22071913	236	High	1.5	Vague	2	20	30	14	0.1	0.1	0.0	20	14	30	0.1	0.0	0.1	2	0.920	0.001	R	30	0.1	834.999	836.205	837.125	837.127	0
2	22071913	237	High	1.5	Precise	1	20	30	33	0.1	0.1	0.0	33	30	20	0.0	0.1	0.1	2	0.848	0.000	D	30	0.1	837.630	838.437	839.285	839.287	0
2	22071913	238	High	1.5	Vague	2	29	30	9	0.1	0.1	0.0	30	9	29	0.1	0.0	0.1	1	0.731	0.000	R	29	0.1	839.790	842.753	843.485	843.487	0
2	22071913	239	High	1.5	Vague	2	20	30	12	0.1	0.1	0.0	20	12	30	0.1	0.0	0.1	2	0.632	0.000	R	30	0.1	843.990	846.229	846.860	846.863	0
2	22071913	240	High	1.5	Precise	1	35	36	25	0.0	0.0	0.0	35	25	36	0.0	0.0	0.0	1	0.598	0.000	L	35	0.0	847.366	849.255	849.853	849.855	0
2	22071913	241	High	1.5	Precise	1	35	36	33	0.0	0.0	0.0	35	36	33	0.0	0.0	0.0	1	0.555	0.001	L	35	0.0	857.684	859.497	860.053	860.055	0
2	22071913	242	High	1.5	Vague	2	35	30	12	0.0	0.1	0.0	30	12	35	0.1	0.0	0.0	1	0.491	0.000	R	35	0.0	860.558	862.217	862.708	862.711	0
2	22071913	243	High	1.5	Precise	1	34	30	31	0.0	0.1	0.0	30	34	31	0.1	0.0	0.0	2	0.541	0.000	L	30	0.1	863.214	865.192	865.733	865.735	0
2	22071913	244	High	1.5	Vague	2	36	30	14	0.0	0.1	0.0	30	14	36	0.1	0.0	0.0	2	0.909	0.001	L	30	0.1	866.238	868.208	869.117	869.119	0
2	22071913	245	High	1.5	Precise	1	29	20	23	0.1	0.1	0.0	29	20	23	0.1	0.1	0.0	1	0.614	0.000	L	29	0.1	869.622	870.510	871.124	871.127	0
2	22071913	246	High	1.5	Precise	1	36	29	27	0.0	0.1	0.0	29	27	36	0.1	0.0	0.0	2	0.647	0.000	L	29	0.1	871.629	872.838	873.485	873.487	0
2	22071913	247	High	1.5	Vague	2	29	30	5	0.1	0.1	0.0	5	30	29	0.0	0.1	0.1	1	0.642	0.000	R	29	0.1	873.990	875.083	875.725	875.727	0
2	22071913	248	High	1.5	Precise	1	36	20	33	0.0	0.1	0.0	36	33	20	0.0	0.0	0.1	1	0.762	0.000	L	36	0.0	876.229	877.403	878.164	878.167	0
2	22071913	249	High	1.5	Vague	2	35	29	14	0.0	0.1	0.0	14	29	35	0.0	0.1	0.0	1	0.511	0.000	R	35	0.0	878.669	881.286	881.796	881.799	0
2	22071913	250	High	1.5	Precise	1	34	35	31	0.0	0.0	0.0	35	31	34	0.0	0.0	0.0	2	0.847	0.000	L	35	0.0	882.302	884.046	884.893	884.895	0
2	22071913	251	High	1.5	Vague	2	34	36	9	0.0	0.0	0.0	34	9	36	0.0	0.0	0.0	2	0.679	0.001	R	36	0.0	885.397	887.598	888.277	888.279	0
2	22071913	252	High	1.5	Precise	1	29	20	21	0.1	0.1	0.0	29	20	21	0.1	0.1	0.0	1	0.487	0.000	L	29	0.1	888.782	891.085	891.572	891.575	0
2	22071913	253	High	1.5	Precise	1	35	20	27	0.0	0.1	0.0	27	35	20	0.0	0.0	0.1	1	0.716	0.000	D	35	0.0	892.077	894.833	895.549	895.551	0
2	22071913	254	High	1.5	Precise	1	29	20	25	0.1	0.1	0.0	29	20	25	0.1	0.1	0.0	1	0.503	0.000	L	29	0.1	896.054	897.941	898.444	898.447	0
2	22071913	255	High	1.5	Vague	2	20	30	2	0.1	0.1	0.0	2	20	30	0.0	0.1	0.1	2	0.534	0.000	R	30	0.1	898.949	901.438	901.972	901.975	0
2	22071913	256	High	1.5	Vague	2	35	36	2	0.0	0.0	0.0	36	2	35	0.0	0.0	0.0	1	0.707	0.001	R	35	0.0	902.478	904.994	905.701	905.703	0
2	22071913	257	High	1.5	Precise	1	35	36	23	0.0	0.0	0.0	23	36	35	0.0	0.0	0.0	1	0.501	0.000	R	35	0.0	906.205	908.680	909.181	909.183	0
2	22071913	258	High	1.5	Precise	1	35	20	25	0.0	0.1	0.0	25	35	20	0.0	0.0	0.1	1	0.555	0.000	D	35	0.0	909.686	911.346	911.901	911.903	0
2	22071913	259	High	1.5	Vague	2	36	20	2	0.0	0.1	0.0	20	2	36	0.1	0.0	0.0	1	0.610	0.000	R	36	0.0	912.406	913.370	913.980	913.983	0
2	22071913	260	High	1.5	Precise	1	34	29	23	0.0	0.1	0.0	34	23	29	0.0	0.0	0.1	2	0.627	0.000	R	29	0.1	914.485	915.570	916.196	916.199	0
2	22071913	261	High	1.5	Vague	2	34	35	5	0.0	0.0	0.0	34	5	35	0.0	0.0	0.0	2	0.586	0.000	R	35	0.0	916.702	917.451	918.036	918.039	0
2	22071913	262	High	1.5	Vague	2	29	20	2	0.1	0.1	0.0	20	2	29	0.1	0.0	0.1	1	0.527	0.001	R	29	0.1	918.541	919.709	920.237	920.239	0
2	22071913	263	High	1.5	Precise	1	34	35	21	0.0	0.0	0.0	34	21	35	0.0	0.0	0.0	2	0.485	0.000	R	35	0.0	920.742	922.071	922.556	922.559	0
2	22071913	264	High	1.5	Precise	1	34	35	27	0.0	0.0	0.0	34	27	35	0.0	0.0	0.0	2	0.618	0.000	R	35	0.0	923.061	926.003	926.621	926.623	0
2	22071913	265	High	1.5	Vague	2	34	35	7	0.0	0.0	0.0	7	34	35	0.0	0.0	0.0	2	0.490	0.000	R	35	0.0	927.126	928.426	928.916	928.919	0
2	22071913	266	High	1.5	Vague	2	29	30	7	0.1	0.1	0.0	7	30	29	0.0	0.1	0.1	1	0.555	0.000	R	29	0.1	929.421	931.945	932.501	932.503	0
2	22071913	267	High	1.5	Vague	2	34	35	12	0.0	0.0	0.0	12	34	35	0.0	0.0	0.0	2	0.429	0.000	R	35	0.0	933.005	935.463	935.893	935.895	0
2	22071913	268	High	1.5	Vague	2	34	30	7	0.0	0.1	0.0	30	7	34	0.1	0.0	0.0	2	0.901	0.001	L	30	0.1	936.398	937.144	938.045	938.047	0
2	22071913	269	High	1.5	Precise	1	36	20	25	0.0	0.1	0.0	20	36	25	0.1	0.0	0.0	1	0.773	0.001	D	36	0.0	938.549	939.352	940.125	940.127	0
2	22071913	270	High	1.5	Precise	1	34	20	21	0.0	0.1	0.0	21	20	34	0.0	0.1	0.0	1	0.543	0.000	R	34	0.0	940.630	942.958	943.501	943.503	0
2	22071913	271	High	1.5	Vague	2	36	29	5	0.0	0.1	0.0	36	5	29	0.0	0.0	0.1	2	0.536	0.000	R	29	0.1	944.006	946.628	947.165	947.167	0
2	22071913	272	High	1.5	Vague	2	35	20	14	0.0	0.1	0.0	35	14	20	0.0	0.0	0.1	1	0.851	0.000	L	35	0.0	947.670	948.298	949.149	949.151	0
2	22071913	273	High	1.5	Vague	2	34	36	14	0.0	0.0	0.0	34	14	36	0.0	0.0	0.0	2	0.667	0.000	R	36	0.0	949.654	951.538	952.205	952.207	0
2	22071913	274	High	1.5	Precise	1	35	36	27	0.0	0.0	0.0	35	27	36	0.0	0.0	0.0	1	0.728	0.000	L	35	0.0	952.711	953.764	954.493	954.495	0
2	22071913	275	High	1.5	Precise	1	35	29	23	0.0	0.1	0.0	29	35	23	0.1	0.0	0.0	2	0.580	0.000	L	29	0.1	954.998	957.808	958.388	958.391	0
2	22071913	276	High	1.5	Vague	2	34	29	2	0.0	0.1	0.0	2	29	34	0.0	0.1	0.0	2	0.574	0.000	D	29	0.1	958.894	959.479	960.053	960.055	0
2	22071913	277	High	1.5	Vague	2	34	30	5	0.0	0.1	0.0	34	5	30	0.0	0.0	0.1	1	0.857	0.000	L	34	0.0	960.558	963.395	964.252	964.255	0
2	22071913	278	High	1.5	Vague	2	34	20	5	0.0	0.1	0.0	5	20	34	0.0	0.1	0.0	3	0.716	0.001	L	5	0.0	964.758	966.808	967.524	967.527	0
2	22071913	279	High	1.5	Precise	1	35	29	33	0.0	0.1	0.0	35	33	29	0.0	0.0	0.1	2	0.560	0.000	R	29	0.1	968.029	968.837	969.397	969.399	0
2	22071913	280	High	1.5	Vague	2	20	30	9	0.1	0.1	0.0	20	30	9	0.1	0.1	0.0	2	1.247	0.000	D	30	0.1	969.902	970.622	971.869	971.871	0
2	22071913	281	High	1.5	Vague	2	35	29	5	0.0	0.1	0.0	29	5	35	0.1	0.0	0.0	1	0.682	0.000	R	35	0.0	972.374	974.051	974.733	974.735	0
2	22071913	282	High	1.5	Precise	1	20	30	31	0.1	0.1	0.0	20	30	31	0.1	0.1	0.0	2	0.956	0.000	D	30	0.1	975.238	975.848	976.804	976.807	0
2	22071913	283	High	1.5	Vague	2	29	30	14	0.1	0.1	0.0	14	29	30	0.0	0.1	0.1	1	1.079	0.000	D	29	0.1	977.310	979.397	980.477	980.479	0
2	22071913	284	High	1.5	Precise	1	35	36	31	0.0	0.0	0.0	36	35	31	0.0	0.0	0.0	1	1.013	0.000	D	35	0.0	980.981	982.296	983.309	983.311	0
2	22071913	285	High	1.5	Vague	2	35	30	7	0.0	0.1	0.0	7	35	30	0.0	0.0	0.1	1	0.653	0.000	D	35	0.0	983.814	986.784	987.437	987.439	0
2	22071913	286	High	1.5	Vague	2	35	36	12	0.0	0.0	0.0	35	36	12	0.0	0.0	0.0	1	0.806	0.000	L	35	0.0	987.942	988.462	989.269	989.271	0
2	22071913	287	High	1.5	Precise	1	36	20	27	0.0	0.1	0.0	20	36	27	0.1	0.0	0.0	1	0.795	0.000	D	36	0.0	989.774	991.561	992.357	992.359	0
2	22071913	288	High	1.5	Precise	1	29	30	25	0.1	0.1	0.0	29	30	25	0.1	0.1	0.0	1	0.677	0.001	L	29	0.1	992.862	995.816	996.493	996.495	0
2	22071913	289	High	1.5	Precise	1	34	30	23	0.0	0.1	0.0	23	34	30	0.0	0.0	0.1	1	0.760	0.000	D	34	0.0	996.997	997.765	998.525	998.527	0
2	22071913	290	High	1.5	Precise	1	36	29	23	0.0	0.1	0.0	36	23	29	0.0	0.0	0.1	2	0.578	0.000	R	29	0.1	999.029	1001.715	1002.293	1002.295	0
2	22071913	291	High	1.5	Precise	1	36	20	23	0.0	0.1	0.0	36	23	20	0.0	0.0	0.1	NaN	NaN	NaN	NaN	NaN	NaN	1002.798	1004.755	NaN	1006.245	1
2	22071913	292	High	1.5	Precise	1	20	30	25	0.1	0.1	0.0	25	30	20	0.0	0.1	0.1	2	0.814	0.000	D	30	0.1	1008.248	1010.599	1011.412	1011.415	0
2	22071913	293	High	1.5	Precise	1	34	29	25	0.0	0.1	0.0	25	34	29	0.0	0.0	0.1	2	0.629	0.001	R	29	0.1	1011.919	1013.240	1013.868	1013.871	0
2	22071913	294	High	1.5	Vague	2	35	20	12	0.0	0.1	0.0	20	12	35	0.1	0.0	0.0	1	0.665	0.001	R	35	0.0	1014.373	1015.371	1016.037	1016.039	0
2	22071913	295	High	1.5	Vague	2	36	29	7	0.0	0.1	0.0	29	36	7	0.1	0.0	0.0	2	0.699	0.000	L	29	0.1	1016.541	1018.338	1019.036	1019.039	0
2	22071913	296	High	1.5	Vague	2	34	36	12	0.0	0.0	0.0	12	34	36	0.0	0.0	0.0	2	0.661	0.001	R	36	0.0	1019.542	1021.151	1021.813	1021.815	0
2	22071913	297	High	1.5	Vague	2	36	29	12	0.0	0.1	0.0	36	12	29	0.0	0.0	0.1	2	0.583	0.000	R	29	0.1	1022.318	1024.669	1025.253	1025.255	0
2	22071913	298	High	1.5	Precise	1	29	30	21	0.1	0.1	0.0	29	30	21	0.1	0.1	0.0	1	0.787	0.000	L	29	0.1	1025.758	1027.025	1027.812	1027.815	0
2	22071913	299	High	1.5	Precise	1	34	35	23	0.0	0.0	0.0	23	34	35	0.0	0.0	0.0	2	0.621	0.000	R	35	0.0	1028.317	1030.719	1031.341	1031.343	0
2	22071913	300	High	1.5	Vague	2	34	36	7	0.0	0.0	0.0	7	36	34	0.0	0.0	0.0	2	0.903	0.000	D	36	0.0	1031.845	1032.653	1033.557	1033.559	0
2	22071913	301	High	1.5	Precise	1	34	29	33	0.0	0.1	0.0	29	33	34	0.1	0.0	0.0	2	0.579	0.000	L	29	0.1	1051.182	1053.617	1054.196	1054.199	0
2	22071913	302	High	1.5	Vague	2	34	30	14	0.0	0.1	0.0	30	34	14	0.1	0.0	0.0	1	0.997	0.000	D	34	0.0	1054.702	1056.983	1057.980	1057.983	0
2	22071913	303	High	1.5	Precise	1	34	30	21	0.0	0.1	0.0	34	21	30	0.0	0.0	0.1	1	0.633	0.000	L	34	0.0	1058.485	1061.284	1061.916	1061.919	0
2	22071913	304	High	1.5	Vague	2	36	29	9	0.0	0.1	0.0	29	36	9	0.1	0.0	0.0	2	0.608	0.000	L	29	0.1	1062.421	1063.228	1063.836	1063.839	0
2	22071913	305	High	1.5	Precise	1	35	30	25	0.0	0.1	0.0	30	35	25	0.1	0.0	0.0	1	0.865	0.000	D	35	0.0	1064.341	1065.939	1066.804	1066.807	0
2	22071913	306	High	1.5	Precise	1	35	36	21	0.0	0.0	0.0	35	36	21	0.0	0.0	0.0	1	0.508	0.000	L	35	0.0	1067.309	1067.848	1068.356	1068.359	0
2	22071913	307	High	1.5	Vague	2	29	20	7	0.1	0.1	0.0	7	20	29	0.0	0.1	0.1	1	0.564	0.000	R	29	0.1	1068.862	1070.264	1070.829	1070.831	0
2	22071913	308	High	1.5	Precise	1	29	30	33	0.1	0.1	0.0	33	30	29	0.0	0.1	0.1	1	0.504	0.001	R	29	0.1	1071.333	1072.220	1072.724	1072.727	0
2	22071913	309	High	1.5	Precise	1	35	20	31	0.0	0.1	0.0	35	31	20	0.0	0.0	0.1	1	0.621	0.000	L	35	0.0	1073.230	1075.607	1076.228	1076.231	0
2	22071913	310	High	1.5	Vague	2	34	29	12	0.0	0.1	0.0	29	12	34	0.1	0.0	0.0	2	0.597	0.000	L	29	0.1	1076.734	1079.471	1080.068	1080.071	0
2	22071913	311	High	1.5	Precise	1	36	29	31	0.0	0.1	0.0	36	29	31	0.0	0.1	0.0	2	0.607	0.001	D	29	0.1	1080.573	1081.438	1082.045	1082.047	0
2	22071913	312	High	1.5	Vague	2	35	36	5	0.0	0.0	0.0	35	36	5	0.0	0.0	0.0	1	0.580	0.000	L	35	0.0	1082.550	1085.161	1085.741	1085.743	0
2	22071913	313	High	1.5	Precise	1	34	20	33	0.0	0.1	0.0	34	20	33	0.0	0.1	0.0	1	0.799	0.000	L	34	0.0	1086.246	1089.157	1089.956	1089.959	0
2	22071913	314	High	1.5	Precise	1	36	29	21	0.0	0.1	0.0	36	21	29	0.0	0.0	0.1	2	0.488	0.000	R	29	0.1	1090.462	1092.820	1093.308	1093.311	0
2	22071913	315	High	1.5	Vague	2	34	29	7	0.0	0.1	0.0	29	34	7	0.1	0.0	0.0	2	0.600	0.000	L	29	0.1	1093.813	1095.804	1096.404	1096.407	0
2	22071913	316	High	1.5	Vague	2	34	20	14	0.0	0.1	0.0	34	20	14	0.0	0.1	0.0	2	0.720	0.000	D	20	0.1	1096.910	1097.941	1098.660	1098.663	0
2	22071913	317	High	1.5	Precise	1	35	20	33	0.0	0.1	0.0	20	33	35	0.1	0.0	0.0	1	0.592	0.000	R	35	0.0	1099.165	1101.396	1101.988	1101.991	0
2	22071913	318	High	1.5	Precise	1	34	35	25	0.0	0.0	0.0	34	35	25	0.0	0.0	0.0	1	0.610	0.001	L	34	0.0	1102.494	1103.907	1104.516	1104.519	0
2	22071913	319	High	1.5	Precise	1	35	30	21	0.0	0.1	0.0	21	35	30	0.0	0.0	0.1	1	0.495	0.000	D	35	0.0	1105.021	1107.398	1107.892	1107.895	0
2	22071913	320	High	1.5	Vague	2	35	30	14	0.0	0.1	0.0	14	30	35	0.0	0.1	0.0	1	0.671	0.001	R	35	0.0	1108.398	1110.693	1111.364	1111.368	0
2	22071913	321	High	1.5	Vague	2	29	20	5	0.1	0.1	0.0	29	20	5	0.1	0.1	0.0	1	0.587	0.000	L	29	0.1	1111.870	1114.025	1114.612	1114.615	0
2	22071913	322	High	1.5	Vague	2	35	36	14	0.0	0.0	0.0	14	35	36	0.0	0.0	0.0	1	0.583	0.000	D	35	0.0	1115.118	1116.294	1116.876	1116.879	0
2	22071913	323	High	1.5	Precise	1	35	30	31	0.0	0.1	0.0	31	30	35	0.0	0.1	0.0	1	0.688	0.000	R	35	0.0	1117.381	1119.836	1120.524	1120.527	0
2	22071913	324	High	1.5	Precise	1	36	30	27	0.0	0.1	0.0	27	36	30	0.0	0.0	0.1	1	0.994	0.000	D	36	0.0	1121.030	1123.202	1124.197	1124.199	0
2	22071913	325	High	1.5	Precise	1	34	30	33	0.0	0.1	0.0	30	34	33	0.1	0.0	0.0	1	0.708	0.000	D	34	0.0	1124.701	1125.952	1126.660	1126.663	0
2	22071913	326	High	1.5	Vague	2	36	30	7	0.0	0.1	0.0	36	30	7	0.0	0.1	0.0	2	1.081	0.000	D	30	0.1	1127.166	1128.196	1129.276	1129.279	0
2	22071913	327	High	1.5	Vague	2	29	30	2	0.1	0.1	0.0	29	2	30	0.1	0.0	0.1	1	0.675	0.000	L	29	0.1	1129.782	1131.145	1131.820	1131.823	0
2	22071913	328	High	1.5	Precise	1	34	36	31	0.0	0.0	0.0	34	36	31	0.0	0.0	0.0	1	0.901	0.000	L	34	0.0	1132.325	1133.272	1134.172	1134.175	0
2	22071913	329	High	1.5	Precise	1	34	20	27	0.0	0.1	0.0	27	20	34	0.0	0.1	0.0	1	0.668	0.001	R	34	0.0	1134.677	1135.537	1136.204	1136.207	0
2	22071913	330	High	1.5	Vague	2	35	36	9	0.0	0.0	0.0	9	35	36	0.0	0.0	0.0	2	0.631	0.001	R	36	0.0	1136.709	1139.533	1140.164	1140.167	0
2	22071913	331	High	1.5	Precise	1	34	35	33	0.0	0.0	0.0	33	34	35	0.0	0.0	0.0	1	0.539	0.000	D	34	0.0	1140.670	1142.354	1142.892	1142.895	0
2	22071913	332	High	1.5	Precise	1	36	20	31	0.0	0.1	0.0	20	31	36	0.1	0.0	0.0	1	0.745	0.001	R	36	0.0	1143.398	1144.627	1145.372	1145.375	0
2	22071913	333	High	1.5	Precise	1	35	29	25	0.0	0.1	0.0	25	35	29	0.0	0.0	0.1	2	0.556	0.000	R	29	0.1	1145.877	1147.824	1148.380	1148.383	0
2	22071913	334	High	1.5	Vague	2	35	20	7	0.0	0.1	0.0	20	7	35	0.1	0.0	0.0	1	0.662	0.000	R	35	0.0	1148.885	1150.935	1151.596	1151.599	0
2	22071913	335	High	1.5	Vague	2	36	29	14	0.0	0.1	0.0	14	36	29	0.0	0.0	0.1	2	0.567	0.001	R	29	0.1	1152.101	1154.782	1155.348	1155.351	0
2	22071913	336	High	1.5	Vague	2	20	30	7	0.1	0.1	0.0	30	20	7	0.1	0.1	0.0	3	0.836	0.000	R	7	0.0	1155.853	1157.945	1158.780	1158.783	0
2	22071913	337	High	1.5	Precise	1	35	20	23	0.0	0.1	0.0	35	23	20	0.0	0.0	0.1	1	0.604	0.000	L	35	0.0	1159.286	1161.185	1161.788	1161.791	0
2	22071913	338	High	1.5	Vague	2	34	36	5	0.0	0.0	0.0	34	36	5	0.0	0.0	0.0	1	1.076	0.001	L	34	0.0	1162.293	1163.073	1164.148	1164.151	0
2	22071913	339	High	1.5	Vague	2	34	35	14	0.0	0.0	0.0	14	34	35	0.0	0.0	0.0	2	0.624	0.000	R	35	0.0	1164.655	1167.364	1167.988	1167.991	0
2	22071913	340	High	1.5	Precise	1	35	30	23	0.0	0.1	0.0	23	30	35	0.0	0.1	0.0	1	0.526	0.001	R	35	0.0	1168.494	1169.966	1170.492	1170.495	0
2	22071913	341	High	1.5	Vague	2	34	35	2	0.0	0.0	0.0	2	35	34	0.0	0.0	0.0	2	0.966	0.000	D	35	0.0	1170.997	1172.334	1173.300	1173.303	0
2	22071913	342	High	1.5	Vague	2	34	20	9	0.0	0.1	0.0	20	9	34	0.1	0.0	0.0	1	0.683	0.001	R	34	0.0	1173.806	1175.346	1176.029	1176.031	0
2	22071913	343	High	1.5	Vague	2	34	30	2	0.0	0.1	0.0	2	34	30	0.0	0.0	0.1	1	0.844	0.001	D	34	0.0	1176.534	1177.776	1178.621	1178.623	0
2	22071913	344	High	1.5	Vague	2	36	20	9	0.0	0.1	0.0	20	36	9	0.1	0.0	0.0	1	1.063	0.000	D	36	0.0	1179.126	1180.501	1181.564	1181.567	0
2	22071913	345	High	1.5	Vague	2	35	20	5	0.0	0.1	0.0	35	5	20	0.0	0.0	0.1	1	0.611	0.001	L	35	0.0	1182.070	1182.882	1183.492	1183.495	0
2	22071913	346	High	1.5	Vague	2	34	29	5	0.0	0.1	0.0	5	29	34	0.0	0.1	0.0	2	0.990	0.000	D	29	0.1	1183.998	1185.607	1186.596	1186.599	0
2	22071913	347	High	1.5	Precise	1	35	29	27	0.0	0.1	0.0	29	27	35	0.1	0.0	0.0	1	0.880	0.001	R	35	0.0	1187.101	1189.261	1190.140	1190.143	0
2	22071913	348	High	1.5	Precise	1	34	30	27	0.0	0.1	0.0	27	34	30	0.0	0.0	0.1	1	0.713	0.001	D	34	0.0	1190.646	1192.299	1193.013	1193.015	0
2	22071913	349	High	1.5	Precise	1	34	36	27	0.0	0.0	0.0	36	34	27	0.0	0.0	0.0	2	0.939	0.000	L	36	0.0	1193.518	1195.105	1196.044	1196.046	0
2	22071913	350	High	1.5	Vague	2	35	30	2	0.0	0.1	0.0	30	35	2	0.1	0.0	0.0	1	0.624	0.001	D	35	0.0	1196.550	1197.829	1198.453	1198.455	0
2	22071913	351	High	1.5	Vague	2	35	29	9	0.0	0.1	0.0	29	35	9	0.1	0.0	0.0	2	0.587	0.000	L	29	0.1	1198.958	1201.489	1202.076	1202.078	0
2	22071913	352	High	1.5	Precise	1	20	30	23	0.1	0.1	0.0	30	20	23	0.1	0.1	0.0	2	1.007	0.001	L	30	0.1	1202.582	1205.165	1206.172	1206.175	0
2	22071913	353	High	1.5	Precise	1	34	36	33	0.0	0.0	0.0	34	36	33	0.0	0.0	0.0	1	0.927	0.000	L	34	0.0	1206.677	1207.310	1208.236	1208.239	0
2	22071913	354	High	1.5	Vague	2	35	20	9	0.0	0.1	0.0	20	35	9	0.1	0.0	0.0	1	0.797	0.001	D	35	0.0	1208.741	1209.383	1210.181	1210.183	0
2	22071913	355	High	1.5	Vague	2	34	30	9	0.0	0.1	0.0	30	34	9	0.1	0.0	0.0	1	1.064	0.000	D	34	0.0	1210.686	1211.356	1212.420	1212.422	0
2	22071913	356	High	1.5	Vague	2	34	29	14	0.0	0.1	0.0	29	14	34	0.1	0.0	0.0	2	0.681	0.000	L	29	0.1	1212.925	1213.859	1214.540	1214.543	0
2	22071913	357	High	1.5	Vague	2	34	36	2	0.0	0.0	0.0	2	34	36	0.0	0.0	0.0	1	0.695	0.001	D	34	0.0	1215.046	1216.558	1217.252	1217.255	0
2	22071913	358	High	1.5	Vague	2	36	20	12	0.0	0.1	0.0	20	12	36	0.1	0.0	0.0	3	1.037	0.001	D	12	0.0	1217.758	1220.424	1221.460	1221.463	0
2	22071913	359	High	1.5	Precise	1	35	29	21	0.0	0.1	0.0	35	29	21	0.0	0.1	0.0	1	0.702	0.001	L	35	0.0	1221.966	1224.190	1224.892	1224.895	0
2	22071913	360	High	1.5	Precise	1	36	30	33	0.0	0.1	0.0	30	36	33	0.1	0.0	0.0	1	0.859	0.001	D	36	0.0	1225.397	1227.882	1228.741	1228.743	0
