Group	subID	trial	TimePressure	TimeConstraint	Vagueness	Vaguenesscode	ID1	ID2	ID3	V1	V2	V3	ID_left	ID_middle	ID_right	Bid_left	Bid_middle	Bid_right	chosenItem	RT	RTvariance	chosenPosition	chosenID	chosenValue	fixation_time	option_time	choice_time	feedback_time	timeout
2	22071910	1	High	1.5	Precise	1	34	35	31	30.2	81.7	7.8	34	31	35	30.2	7.8	81.7	3	1.088	0.000	D	31	7.8	6.120	7.868	8.956	8.959	0
2	22071910	2	High	1.5	Vague	2	35	33	7	81.7	90.0	7.2	7	33	35	7.2	90.0	81.7	1	0.527	0.000	R	35	81.7	9.463	10.477	11.003	11.006	0
2	22071910	3	High	1.5	Precise	1	27	32	24	22.5	28.0	14.3	27	32	24	22.5	28.0	14.3	3	0.967	0.000	R	24	14.3	11.510	14.228	15.195	15.198	0
2	22071910	4	High	1.5	Vague	2	32	26	2	28.0	56.7	2.8	32	26	2	28.0	56.7	2.8	2	0.799	0.001	D	26	56.7	15.702	17.708	18.507	18.510	0
2	22071910	5	High	1.5	Vague	2	32	35	10	28.0	81.7	18.1	35	10	32	81.7	18.1	28.0	2	0.695	0.000	L	35	81.7	19.014	21.076	21.771	21.776	0
2	22071910	6	High	1.5	Vague	2	27	32	2	22.5	28.0	2.8	32	27	2	28.0	22.5	2.8	1	0.974	0.001	D	27	22.5	22.281	23.726	24.700	24.702	0
2	22071910	7	High	1.5	Vague	2	26	33	10	56.7	90.0	18.1	33	26	10	90.0	56.7	18.1	3	0.652	0.001	R	10	18.1	25.205	25.791	26.443	26.446	0
2	22071910	8	High	1.5	Vague	2	32	33	3	28.0	90.0	5.4	3	32	33	5.4	28.0	90.0	1	1.014	0.000	D	32	28.0	26.949	28.822	29.835	29.838	0
2	22071910	9	High	1.5	Precise	1	34	33	31	30.2	90.0	7.8	34	31	33	30.2	7.8	90.0	3	0.814	0.000	D	31	7.8	30.341	30.957	31.771	31.775	0
2	22071910	10	High	1.5	Vague	2	32	26	9	28.0	56.7	10.9	26	9	32	56.7	10.9	28.0	2	0.856	0.001	L	26	56.7	32.277	35.188	36.043	36.046	0
2	22071910	11	High	1.5	Vague	2	27	35	7	22.5	81.7	7.2	35	7	27	81.7	7.2	22.5	2	0.748	0.000	L	35	81.7	36.549	38.896	39.643	39.646	0
2	22071910	12	High	1.5	Precise	1	26	33	31	56.7	90.0	7.8	33	31	26	90.0	7.8	56.7	1	0.794	0.000	R	26	56.7	40.149	41.570	42.363	42.366	0
2	22071910	13	High	1.5	Vague	2	26	33	3	56.7	90.0	5.4	3	33	26	5.4	90.0	56.7	1	0.765	0.000	R	26	56.7	42.869	44.238	45.003	45.006	0
2	22071910	14	High	1.5	Precise	1	26	35	29	56.7	81.7	16.7	29	35	26	16.7	81.7	56.7	1	0.858	0.000	R	26	56.7	45.508	47.746	48.603	48.606	0
2	22071910	15	High	1.5	Vague	2	27	32	14	22.5	28.0	14.3	14	32	27	14.3	28.0	22.5	2	1.032	0.000	D	32	28.0	49.108	51.604	52.636	52.638	0
2	22071910	16	High	1.5	Precise	1	34	26	22	30.2	56.7	11.9	34	22	26	30.2	11.9	56.7	2	0.803	0.000	R	26	56.7	53.140	55.384	56.187	56.190	0
2	22071910	17	High	1.5	Precise	1	34	35	23	30.2	81.7	1.9	35	23	34	81.7	1.9	30.2	2	0.611	0.000	L	35	81.7	56.692	58.376	58.987	58.990	0
2	22071910	18	High	1.5	Precise	1	34	33	19	30.2	90.0	4.8	19	34	33	4.8	30.2	90.0	1	0.635	0.000	D	34	30.2	59.493	61.041	61.676	61.678	0
2	22071910	19	High	1.5	Precise	1	27	35	19	22.5	81.7	4.8	27	35	19	22.5	81.7	4.8	2	0.691	0.001	D	35	81.7	62.181	64.856	65.547	65.550	0
2	22071910	20	High	1.5	Vague	2	27	34	3	22.5	30.2	5.4	3	27	34	5.4	22.5	30.2	1	0.871	0.000	D	27	22.5	66.052	68.052	68.923	68.926	0
2	22071910	21	High	1.5	Vague	2	26	35	14	56.7	81.7	14.3	26	14	35	56.7	14.3	81.7	2	0.689	0.000	R	35	81.7	69.429	70.122	70.811	70.814	0
2	22071910	22	High	1.5	Precise	1	27	33	31	22.5	90.0	7.8	33	31	27	90.0	7.8	22.5	1	0.828	0.000	R	27	22.5	71.316	73.615	74.443	74.446	0
2	22071910	23	High	1.5	Precise	1	34	26	23	30.2	56.7	1.9	26	34	23	56.7	30.2	1.9	2	0.939	0.000	L	26	56.7	74.948	77.648	78.587	78.590	0
2	22071910	24	High	1.5	Precise	1	27	33	22	22.5	90.0	11.9	22	27	33	11.9	22.5	90.0	1	0.675	0.001	D	27	22.5	79.093	80.745	81.420	81.422	0
2	22071910	25	High	1.5	Precise	1	32	26	31	28.0	56.7	7.8	26	32	31	56.7	28.0	7.8	2	0.750	0.000	L	26	56.7	81.925	84.749	85.500	85.502	0
2	22071910	26	High	1.5	Precise	1	27	35	31	22.5	81.7	7.8	27	35	31	22.5	81.7	7.8	2	0.729	0.000	D	35	81.7	86.004	87.794	88.524	88.526	0
2	22071910	27	High	1.5	Vague	2	27	33	10	22.5	90.0	18.1	10	33	27	18.1	90.0	22.5	1	0.871	0.000	R	27	22.5	89.028	90.005	90.875	90.878	0
2	22071910	28	High	1.5	Vague	2	27	35	10	22.5	81.7	18.1	10	35	27	18.1	81.7	22.5	2	0.817	0.001	D	35	81.7	91.381	91.915	92.732	92.734	0
2	22071910	29	High	1.5	Vague	2	27	34	9	22.5	30.2	10.9	27	34	9	22.5	30.2	10.9	3	0.931	0.001	R	9	10.9	93.236	94.312	95.244	95.246	0
2	22071910	30	High	1.5	Vague	2	32	35	7	28.0	81.7	7.2	35	7	32	81.7	7.2	28.0	2	0.585	0.001	L	35	81.7	95.749	98.387	98.972	98.974	0
2	22071910	31	High	1.5	Precise	1	32	35	23	28.0	81.7	1.9	35	32	23	81.7	28.0	1.9	2	0.524	0.001	L	35	81.7	99.477	100.416	100.939	100.942	0
2	22071910	32	High	1.5	Precise	1	27	26	19	22.5	56.7	4.8	26	27	19	56.7	22.5	4.8	2	0.864	0.000	L	26	56.7	101.444	103.852	104.715	104.718	0
2	22071910	33	High	1.5	Vague	2	32	35	2	28.0	81.7	2.8	2	32	35	2.8	28.0	81.7	2	0.464	0.000	R	35	81.7	105.220	107.243	107.707	107.710	0
2	22071910	34	High	1.5	Precise	1	35	33	29	81.7	90.0	16.7	29	33	35	16.7	90.0	81.7	1	0.680	0.000	R	35	81.7	108.212	109.411	110.091	110.094	0
2	22071910	35	High	1.5	Precise	1	27	35	22	22.5	81.7	11.9	27	35	22	22.5	81.7	11.9	2	0.455	0.000	D	35	81.7	110.596	112.101	112.556	112.558	0
2	22071910	36	High	1.5	Vague	2	27	32	10	22.5	28.0	18.1	27	10	32	22.5	18.1	28.0	1	1.196	0.001	L	27	22.5	113.062	114.688	115.884	115.886	0
2	22071910	37	High	1.5	Precise	1	34	33	24	30.2	90.0	14.3	34	33	24	30.2	90.0	14.3	3	1.055	0.000	R	24	14.3	116.389	117.404	118.459	118.462	0
2	22071910	38	High	1.5	Vague	2	34	26	9	30.2	56.7	10.9	34	9	26	30.2	10.9	56.7	2	0.952	0.000	R	26	56.7	118.965	121.891	122.843	122.846	0
2	22071910	39	High	1.5	Vague	2	32	33	10	28.0	90.0	18.1	10	33	32	18.1	90.0	28.0	3	1.000	0.000	L	10	18.1	123.348	126.004	127.003	127.006	0
2	22071910	40	High	1.5	Vague	2	27	34	10	22.5	30.2	18.1	34	27	10	30.2	22.5	18.1	3	1.434	0.000	R	10	18.1	127.509	129.682	131.115	131.118	0
2	22071910	41	High	1.5	Vague	2	32	34	3	28.0	30.2	5.4	3	34	32	5.4	30.2	28.0	2	1.114	0.001	D	34	30.2	131.621	132.641	133.756	133.758	0
2	22071910	42	High	1.5	Vague	2	32	34	10	28.0	30.2	18.1	32	34	10	28.0	30.2	18.1	3	0.949	0.000	R	10	18.1	134.260	135.078	136.027	136.030	0
2	22071910	43	High	1.5	Vague	2	26	35	2	56.7	81.7	2.8	2	26	35	2.8	56.7	81.7	2	0.493	0.000	R	35	81.7	136.533	138.991	139.483	139.486	0
2	22071910	44	High	1.5	Vague	2	34	33	2	30.2	90.0	2.8	33	34	2	90.0	30.2	2.8	1	1.213	0.000	D	34	30.2	139.989	141.454	142.668	142.670	0
2	22071910	45	High	1.5	Precise	1	32	34	23	28.0	30.2	1.9	34	32	23	30.2	28.0	1.9	NaN	NaN	NaN	NaN	NaN	NaN	143.172	144.019	NaN	145.509	1
2	22071910	46	High	1.5	Vague	2	35	33	14	81.7	90.0	14.3	35	14	33	81.7	14.3	90.0	1	0.646	0.000	L	35	81.7	147.514	149.333	149.979	149.983	0
2	22071910	47	High	1.5	Vague	2	32	33	7	28.0	90.0	7.2	33	7	32	90.0	7.2	28.0	1	1.106	0.000	R	32	28.0	150.486	153.177	154.283	154.286	0
2	22071910	48	High	1.5	Vague	2	27	33	9	22.5	90.0	10.9	33	27	9	90.0	22.5	10.9	2	0.888	0.000	L	33	90.0	154.790	156.499	157.387	157.390	0
2	22071910	49	High	1.5	Precise	1	32	26	23	28.0	56.7	1.9	23	32	26	1.9	28.0	56.7	2	1.162	0.001	R	26	56.7	157.893	159.921	161.083	161.086	0
2	22071910	50	High	1.5	Precise	1	34	33	23	30.2	90.0	1.9	34	33	23	30.2	90.0	1.9	2	0.780	0.000	D	33	90.0	161.589	164.191	164.971	164.974	0
2	22071910	51	High	1.5	Precise	1	27	34	22	22.5	30.2	11.9	22	34	27	11.9	30.2	22.5	1	1.075	0.000	R	27	22.5	165.477	166.649	167.724	167.726	0
2	22071910	52	High	1.5	Precise	1	27	26	23	22.5	56.7	1.9	26	27	23	56.7	22.5	1.9	1	1.070	0.000	D	27	22.5	168.229	170.173	171.244	171.246	0
2	22071910	53	High	1.5	Precise	1	26	35	23	56.7	81.7	1.9	26	35	23	56.7	81.7	1.9	2	0.727	0.001	D	35	81.7	171.749	174.357	175.083	175.086	0
2	22071910	54	High	1.5	Precise	1	32	35	31	28.0	81.7	7.8	35	32	31	81.7	28.0	7.8	NaN	NaN	NaN	NaN	NaN	NaN	175.589	176.195	NaN	177.681	1
2	22071910	55	High	1.5	Precise	1	27	34	24	22.5	30.2	14.3	27	34	24	22.5	30.2	14.3	1	1.256	0.000	L	27	22.5	179.684	182.404	183.659	183.662	0
2	22071910	56	High	1.5	Vague	2	27	26	3	22.5	56.7	5.4	27	3	26	22.5	5.4	56.7	2	0.814	0.001	R	26	56.7	184.164	185.150	185.964	185.966	0
2	22071910	57	High	1.5	Precise	1	26	33	19	56.7	90.0	4.8	26	19	33	56.7	4.8	90.0	1	0.851	0.001	L	26	56.7	186.468	187.768	188.619	188.622	0
2	22071910	58	High	1.5	Vague	2	26	35	7	56.7	81.7	7.2	35	26	7	81.7	56.7	7.2	3	0.624	0.001	R	7	7.2	189.125	190.316	190.940	190.942	0
2	22071910	59	High	1.5	Precise	1	32	35	19	28.0	81.7	4.8	19	35	32	4.8	81.7	28.0	2	0.920	0.000	D	35	81.7	191.445	193.428	194.348	194.350	0
2	22071910	60	High	1.5	Precise	1	35	33	24	81.7	90.0	14.3	33	35	24	90.0	81.7	14.3	2	0.680	0.000	L	33	90.0	194.853	197.092	197.772	197.774	0
2	22071910	61	High	1.5	Precise	1	32	26	29	28.0	56.7	16.7	29	32	26	16.7	28.0	56.7	2	1.433	0.000	R	26	56.7	238.476	239.363	240.795	240.798	0
2	22071910	62	High	1.5	Precise	1	32	34	22	28.0	30.2	11.9	32	34	22	28.0	30.2	11.9	2	0.985	0.001	D	34	30.2	241.300	242.691	243.676	243.678	0
2	22071910	63	High	1.5	Vague	2	27	33	2	22.5	90.0	2.8	27	2	33	22.5	2.8	90.0	2	0.710	0.000	R	33	90.0	244.182	246.854	247.564	247.566	0
2	22071910	64	High	1.5	Precise	1	32	33	23	28.0	90.0	1.9	32	33	23	28.0	90.0	1.9	2	0.681	0.000	D	33	90.0	248.068	250.706	251.387	251.390	0
2	22071910	65	High	1.5	Precise	1	32	33	31	28.0	90.0	7.8	31	33	32	7.8	90.0	28.0	2	0.801	0.000	D	33	90.0	251.893	253.818	254.620	254.622	0
2	22071910	66	High	1.5	Precise	1	26	35	19	56.7	81.7	4.8	19	35	26	4.8	81.7	56.7	2	0.922	0.000	D	35	81.7	255.125	256.114	257.035	257.038	0
2	22071910	67	High	1.5	Precise	1	27	34	31	22.5	30.2	7.8	34	31	27	30.2	7.8	22.5	1	0.995	0.000	R	27	22.5	257.540	259.672	260.667	260.670	0
2	22071910	68	High	1.5	Precise	1	35	33	31	81.7	90.0	7.8	33	31	35	90.0	7.8	81.7	2	0.597	0.000	L	33	90.0	261.172	263.334	263.931	263.934	0
2	22071910	69	High	1.5	Vague	2	27	32	3	22.5	28.0	5.4	32	27	3	28.0	22.5	5.4	1	1.341	0.000	D	27	22.5	264.436	265.118	266.459	266.462	0
2	22071910	70	High	1.5	Precise	1	27	33	29	22.5	90.0	16.7	27	29	33	22.5	16.7	90.0	2	0.735	0.000	R	33	90.0	266.964	269.676	270.411	270.414	0
2	22071910	71	High	1.5	Vague	2	32	33	2	28.0	90.0	2.8	32	33	2	28.0	90.0	2.8	2	0.624	0.000	D	33	90.0	270.917	273.772	274.396	274.398	0
2	22071910	72	High	1.5	Precise	1	26	35	31	56.7	81.7	7.8	35	31	26	81.7	7.8	56.7	1	1.066	0.000	R	26	56.7	274.900	277.873	278.939	278.943	0
2	22071910	73	High	1.5	Vague	2	26	35	3	56.7	81.7	5.4	3	26	35	5.4	56.7	81.7	2	0.674	0.000	R	35	81.7	279.445	282.297	282.971	282.974	0
2	22071910	74	High	1.5	Vague	2	32	34	14	28.0	30.2	14.3	32	14	34	28.0	14.3	30.2	NaN	NaN	NaN	NaN	NaN	NaN	283.477	286.147	NaN	287.637	1
2	22071910	75	High	1.5	Vague	2	34	33	3	30.2	90.0	5.4	3	34	33	5.4	30.2	90.0	2	0.785	0.000	R	33	90.0	289.639	291.931	292.715	292.718	0
2	22071910	76	High	1.5	Precise	1	32	33	29	28.0	90.0	16.7	29	33	32	16.7	90.0	28.0	2	0.581	0.000	D	33	90.0	293.220	295.079	295.660	295.662	0
2	22071910	77	High	1.5	Vague	2	27	34	2	22.5	30.2	2.8	27	2	34	22.5	2.8	30.2	1	0.844	0.000	L	27	22.5	296.165	297.935	298.779	298.782	0
2	22071910	78	High	1.5	Vague	2	27	32	9	22.5	28.0	10.9	32	9	27	28.0	10.9	22.5	2	0.714	0.000	L	32	28.0	299.285	301.522	302.235	302.238	0
2	22071910	79	High	1.5	Precise	1	34	33	22	30.2	90.0	11.9	33	22	34	90.0	11.9	30.2	3	0.791	0.000	D	22	11.9	302.741	303.540	304.331	304.334	0
2	22071910	80	High	1.5	Precise	1	32	34	19	28.0	30.2	4.8	34	19	32	30.2	4.8	28.0	2	1.313	0.000	L	34	30.2	304.837	306.107	307.420	307.422	0
2	22071910	81	High	1.5	Vague	2	35	33	3	81.7	90.0	5.4	35	33	3	81.7	90.0	5.4	1	0.572	0.000	L	35	81.7	307.925	308.671	309.243	309.246	0
2	22071910	82	High	1.5	Vague	2	32	26	14	28.0	56.7	14.3	26	14	32	56.7	14.3	28.0	1	0.623	0.000	R	32	28.0	309.748	311.421	312.043	312.046	0
2	22071910	83	High	1.5	Precise	1	35	33	19	81.7	90.0	4.8	33	19	35	90.0	4.8	81.7	1	0.682	0.000	R	35	81.7	312.549	313.937	314.619	314.622	0
2	22071910	84	High	1.5	Precise	1	27	35	23	22.5	81.7	1.9	23	27	35	1.9	22.5	81.7	2	0.658	0.000	R	35	81.7	315.124	316.073	316.731	316.734	0
2	22071910	85	High	1.5	Vague	2	27	33	3	22.5	90.0	5.4	3	27	33	5.4	22.5	90.0	2	0.737	0.001	R	33	90.0	317.237	318.427	319.164	319.167	0
2	22071910	86	High	1.5	Vague	2	32	34	7	28.0	30.2	7.2	34	32	7	30.2	28.0	7.2	3	0.470	0.001	R	7	7.2	319.669	322.182	322.652	322.654	0
2	22071910	87	High	1.5	Precise	1	27	35	24	22.5	81.7	14.3	24	27	35	14.3	22.5	81.7	2	0.712	0.000	R	35	81.7	323.157	326.020	326.731	326.734	0
2	22071910	88	High	1.5	Precise	1	34	26	29	30.2	56.7	16.7	29	26	34	16.7	56.7	30.2	2	0.940	0.000	D	26	56.7	327.236	329.759	330.699	330.702	0
2	22071910	89	High	1.5	Vague	2	32	33	9	28.0	90.0	10.9	9	33	32	10.9	90.0	28.0	2	1.178	0.000	D	33	90.0	331.205	332.481	333.659	333.662	0
2	22071910	90	High	1.5	Precise	1	27	32	19	22.5	28.0	4.8	27	32	19	22.5	28.0	4.8	1	1.330	0.000	L	27	22.5	334.164	336.682	338.011	338.014	0
2	22071910	91	High	1.5	Precise	1	32	35	24	28.0	81.7	14.3	24	32	35	14.3	28.0	81.7	2	1.197	0.001	R	35	81.7	338.516	339.871	341.068	341.070	0
2	22071910	92	High	1.5	Precise	1	32	35	29	28.0	81.7	16.7	32	29	35	28.0	16.7	81.7	2	0.853	0.000	R	35	81.7	341.572	344.198	345.051	345.054	0
2	22071910	93	High	1.5	Precise	1	27	35	29	22.5	81.7	16.7	29	35	27	16.7	81.7	22.5	1	0.743	0.000	R	27	22.5	345.556	347.844	348.588	348.590	0
2	22071910	94	High	1.5	Precise	1	32	35	22	28.0	81.7	11.9	22	32	35	11.9	28.0	81.7	2	0.706	0.000	R	35	81.7	349.093	350.393	351.099	351.102	0
2	22071910	95	High	1.5	Precise	1	34	26	31	30.2	56.7	7.8	34	31	26	30.2	7.8	56.7	2	0.847	0.001	R	26	56.7	351.604	352.749	353.596	353.598	0
2	22071910	96	High	1.5	Precise	1	26	35	22	56.7	81.7	11.9	35	22	26	81.7	11.9	56.7	2	0.732	0.000	L	35	81.7	354.101	355.071	355.804	355.806	0
2	22071910	97	High	1.5	Precise	1	32	34	31	28.0	30.2	7.8	34	32	31	30.2	28.0	7.8	1	0.941	0.000	D	32	28.0	356.309	357.951	358.892	358.894	0
2	22071910	98	High	1.5	Precise	1	32	34	29	28.0	30.2	16.7	34	29	32	30.2	16.7	28.0	3	1.301	0.001	D	29	16.7	359.396	360.550	361.852	361.854	0
2	22071910	99	High	1.5	Vague	2	27	33	7	22.5	90.0	7.2	27	33	7	22.5	90.0	7.2	1	0.723	0.000	L	27	22.5	362.357	363.240	363.963	363.966	0
2	22071910	100	High	1.5	Precise	1	27	33	24	22.5	90.0	14.3	33	24	27	90.0	14.3	22.5	2	0.795	0.001	L	33	90.0	364.468	365.296	366.091	366.094	0
2	22071910	101	High	1.5	Vague	2	27	34	7	22.5	30.2	7.2	7	27	34	7.2	22.5	30.2	1	1.386	0.000	D	27	22.5	366.597	368.913	370.299	370.302	0
2	22071910	102	High	1.5	Vague	2	27	26	7	22.5	56.7	7.2	27	26	7	22.5	56.7	7.2	1	1.201	0.000	L	27	22.5	370.804	371.994	373.195	373.198	0
2	22071910	103	High	1.5	Vague	2	34	26	10	30.2	56.7	18.1	34	26	10	30.2	56.7	18.1	2	1.014	0.000	D	26	56.7	373.701	375.461	376.475	376.478	0
2	22071910	104	High	1.5	Vague	2	35	33	9	81.7	90.0	10.9	33	9	35	90.0	10.9	81.7	2	0.744	0.000	L	33	90.0	376.981	379.923	380.667	380.670	0
2	22071910	105	High	1.5	Vague	2	35	33	10	81.7	90.0	18.1	35	33	10	81.7	90.0	18.1	2	0.628	0.000	D	33	90.0	381.173	381.911	382.540	382.542	0
2	22071910	106	High	1.5	Precise	1	27	32	29	22.5	28.0	16.7	32	29	27	28.0	16.7	22.5	1	1.378	0.000	R	27	22.5	383.045	384.633	386.011	386.014	0
2	22071910	107	High	1.5	Precise	1	27	33	19	22.5	90.0	4.8	33	27	19	90.0	22.5	4.8	2	0.767	0.000	L	33	90.0	386.517	388.732	389.499	389.502	0
2	22071910	108	High	1.5	Vague	2	27	35	2	22.5	81.7	2.8	27	2	35	22.5	2.8	81.7	1	0.855	0.000	L	27	22.5	390.004	390.613	391.467	391.471	0
2	22071910	109	High	1.5	Precise	1	34	33	29	30.2	90.0	16.7	33	34	29	90.0	30.2	16.7	2	0.763	0.000	L	33	90.0	391.973	393.072	393.836	393.838	0
2	22071910	110	High	1.5	Precise	1	27	32	31	22.5	28.0	7.8	31	27	32	7.8	22.5	28.0	1	1.141	0.000	D	27	22.5	394.341	396.503	397.644	397.646	0
2	22071910	111	High	1.5	Precise	1	34	35	29	30.2	81.7	16.7	29	34	35	16.7	30.2	81.7	2	0.791	0.000	R	35	81.7	398.149	400.997	401.788	401.790	0
2	22071910	112	High	1.5	Precise	1	32	26	19	28.0	56.7	4.8	26	32	19	56.7	28.0	4.8	2	0.896	0.000	L	26	56.7	402.293	404.203	405.099	405.102	0
2	22071910	113	High	1.5	Vague	2	32	34	9	28.0	30.2	10.9	34	9	32	30.2	10.9	28.0	NaN	NaN	NaN	NaN	NaN	NaN	405.605	408.343	NaN	409.829	1
2	22071910	114	High	1.5	Precise	1	27	26	31	22.5	56.7	7.8	31	27	26	7.8	22.5	56.7	2	0.951	0.000	R	26	56.7	411.832	414.180	415.131	415.134	0
2	22071910	115	High	1.5	Vague	2	26	35	9	56.7	81.7	10.9	9	35	26	10.9	81.7	56.7	2	1.201	0.000	D	35	81.7	415.637	418.618	419.820	419.822	0
2	22071910	116	High	1.5	Vague	2	32	26	3	28.0	56.7	5.4	3	26	32	5.4	56.7	28.0	2	1.031	0.000	D	26	56.7	420.325	421.988	423.019	423.022	0
2	22071910	117	High	1.5	Vague	2	34	26	7	30.2	56.7	7.2	34	7	26	30.2	7.2	56.7	2	0.966	0.000	R	26	56.7	423.524	424.613	425.579	425.582	0
2	22071910	118	High	1.5	Precise	1	32	26	22	28.0	56.7	11.9	26	22	32	56.7	11.9	28.0	2	0.920	0.000	L	26	56.7	426.085	428.979	429.900	429.902	0
2	22071910	119	High	1.5	Vague	2	27	34	14	22.5	30.2	14.3	14	34	27	14.3	30.2	22.5	1	0.877	0.000	R	27	22.5	430.405	431.694	432.571	432.574	0
2	22071910	120	High	1.5	Vague	2	34	35	10	30.2	81.7	18.1	35	34	10	81.7	30.2	18.1	2	0.654	0.000	L	35	81.7	433.076	434.110	434.764	434.766	0
2	22071910	121	High	1.5	Vague	2	34	26	14	30.2	56.7	14.3	34	26	14	30.2	56.7	14.3	2	1.077	0.000	D	26	56.7	448.280	450.759	451.836	451.838	0
2	22071910	122	High	1.5	Precise	1	34	26	19	30.2	56.7	4.8	26	19	34	56.7	4.8	30.2	2	1.287	0.000	L	26	56.7	452.341	454.308	455.595	455.598	0
2	22071910	123	High	1.5	Vague	2	26	33	2	56.7	90.0	2.8	33	26	2	90.0	56.7	2.8	2	0.770	0.000	L	33	90.0	456.102	457.993	458.764	458.766	0
2	22071910	124	High	1.5	Precise	1	35	33	22	81.7	90.0	11.9	35	22	33	81.7	11.9	90.0	1	0.671	0.000	L	35	81.7	459.269	460.844	461.515	461.518	0
2	22071910	125	High	1.5	Vague	2	26	33	7	56.7	90.0	7.2	26	7	33	56.7	7.2	90.0	2	0.940	0.001	R	33	90.0	462.020	463.568	464.508	464.510	0
2	22071910	126	High	1.5	Vague	2	27	35	14	22.5	81.7	14.3	27	14	35	22.5	14.3	81.7	2	0.648	0.000	R	35	81.7	465.013	466.755	467.403	467.406	0
2	22071910	127	High	1.5	Precise	1	35	33	23	81.7	90.0	1.9	23	33	35	1.9	90.0	81.7	1	0.626	0.001	R	35	81.7	467.909	470.202	470.828	470.830	0
2	22071910	128	High	1.5	Precise	1	27	34	29	22.5	30.2	16.7	34	27	29	30.2	22.5	16.7	1	1.110	0.001	D	27	22.5	471.333	474.230	475.340	475.342	0
2	22071910	129	High	1.5	Precise	1	34	35	24	30.2	81.7	14.3	24	34	35	14.3	30.2	81.7	2	0.606	0.000	R	35	81.7	475.844	478.589	479.196	479.198	0
2	22071910	130	High	1.5	Vague	2	32	35	3	28.0	81.7	5.4	32	3	35	28.0	5.4	81.7	2	0.574	0.000	R	35	81.7	479.701	481.342	481.916	481.918	0
2	22071910	131	High	1.5	Precise	1	32	26	24	28.0	56.7	14.3	24	26	32	14.3	56.7	28.0	NaN	NaN	NaN	NaN	NaN	NaN	482.420	485.379	NaN	486.870	1
2	22071910	132	High	1.5	Vague	2	34	35	3	30.2	81.7	5.4	35	3	34	81.7	5.4	30.2	2	0.959	0.000	L	35	81.7	488.873	489.549	490.508	490.510	0
2	22071910	133	High	1.5	Vague	2	35	33	2	81.7	90.0	2.8	35	2	33	81.7	2.8	90.0	1	0.591	0.000	L	35	81.7	491.012	491.853	492.444	492.446	0
2	22071910	134	High	1.5	Vague	2	34	26	3	30.2	56.7	5.4	3	26	34	5.4	56.7	30.2	2	1.295	0.001	D	26	56.7	492.949	495.229	496.524	496.526	0
2	22071910	135	High	1.5	Precise	1	27	32	22	22.5	28.0	11.9	27	32	22	22.5	28.0	11.9	1	0.679	0.000	L	27	22.5	497.029	498.948	499.628	499.630	0
2	22071910	136	High	1.5	Vague	2	27	26	10	22.5	56.7	18.1	10	27	26	18.1	22.5	56.7	2	1.001	0.001	R	26	56.7	500.132	501.811	502.812	502.814	0
2	22071910	137	High	1.5	Precise	1	27	26	29	22.5	56.7	16.7	26	29	27	56.7	16.7	22.5	1	0.608	0.000	R	27	22.5	503.317	504.587	505.195	505.198	0
2	22071910	138	High	1.5	Precise	1	27	34	23	22.5	30.2	1.9	27	23	34	22.5	1.9	30.2	1	0.595	0.000	L	27	22.5	505.700	507.833	508.428	508.430	0
2	22071910	139	High	1.5	Vague	2	27	35	9	22.5	81.7	10.9	27	9	35	22.5	10.9	81.7	2	0.833	0.000	R	35	81.7	508.933	511.450	512.283	512.286	0
2	22071910	140	High	1.5	Precise	1	26	33	23	56.7	90.0	1.9	23	33	26	1.9	90.0	56.7	1	0.983	0.000	R	26	56.7	512.789	513.300	514.283	514.286	0
2	22071910	141	High	1.5	Vague	2	32	35	9	28.0	81.7	10.9	35	9	32	81.7	10.9	28.0	1	0.660	0.000	R	32	28.0	514.789	515.543	516.203	516.206	0
2	22071910	142	High	1.5	Precise	1	34	26	24	30.2	56.7	14.3	34	24	26	30.2	14.3	56.7	2	0.766	0.000	R	26	56.7	516.708	519.262	520.027	520.030	0
2	22071910	143	High	1.5	Vague	2	34	35	9	30.2	81.7	10.9	9	35	34	10.9	81.7	30.2	2	1.416	0.000	D	35	81.7	520.532	521.491	522.908	522.910	0
2	22071910	144	High	1.5	Precise	1	32	34	24	28.0	30.2	14.3	34	32	24	30.2	28.0	14.3	3	1.307	0.001	R	24	14.3	523.413	525.424	526.732	526.734	0
2	22071910	145	High	1.5	Precise	1	26	35	24	56.7	81.7	14.3	24	35	26	14.3	81.7	56.7	2	0.769	0.001	D	35	81.7	527.237	528.395	529.163	529.166	0
2	22071910	146	High	1.5	Vague	2	34	35	7	30.2	81.7	7.2	34	35	7	30.2	81.7	7.2	2	0.643	0.000	D	35	81.7	529.669	531.209	531.852	531.854	0
2	22071910	147	High	1.5	Vague	2	26	35	10	56.7	81.7	18.1	26	10	35	56.7	18.1	81.7	2	0.557	0.000	R	35	81.7	532.356	534.414	534.972	534.974	0
2	22071910	148	High	1.5	Vague	2	27	33	14	22.5	90.0	14.3	27	33	14	22.5	90.0	14.3	1	0.844	0.000	L	27	22.5	535.477	538.079	538.924	538.926	0
2	22071910	149	High	1.5	Vague	2	32	34	2	28.0	30.2	2.8	2	32	34	2.8	28.0	30.2	3	1.163	0.000	L	2	2.8	539.428	541.265	542.427	542.430	0
2	22071910	150	High	1.5	Vague	2	26	33	14	56.7	90.0	14.3	26	14	33	56.7	14.3	90.0	2	0.806	0.000	R	33	90.0	542.933	545.622	546.428	546.430	0
2	22071910	151	High	1.5	Vague	2	27	26	14	22.5	56.7	14.3	26	14	27	56.7	14.3	22.5	1	0.786	0.000	R	27	22.5	546.933	548.377	549.163	549.166	0
2	22071910	152	High	1.5	Precise	1	27	34	19	22.5	30.2	4.8	19	27	34	4.8	22.5	30.2	1	0.935	0.000	D	27	22.5	549.668	551.413	552.348	552.350	0
2	22071910	153	High	1.5	Precise	1	32	33	24	28.0	90.0	14.3	33	32	24	90.0	28.0	14.3	2	0.822	0.000	L	33	90.0	552.854	554.597	555.420	555.422	0
2	22071910	154	High	1.5	Precise	1	26	33	22	56.7	90.0	11.9	22	26	33	11.9	56.7	90.0	2	0.606	0.000	R	33	90.0	555.925	556.494	557.100	557.102	0
2	22071910	155	High	1.5	Vague	2	34	33	9	30.2	90.0	10.9	9	33	34	10.9	90.0	30.2	2	0.612	0.001	D	33	90.0	557.605	559.384	559.996	559.998	0
2	22071910	156	High	1.5	Vague	2	32	26	10	28.0	56.7	18.1	10	32	26	18.1	28.0	56.7	2	1.046	0.001	R	26	56.7	560.501	561.334	562.380	562.382	0
2	22071910	157	High	1.5	Precise	1	27	32	23	22.5	28.0	1.9	23	32	27	1.9	28.0	22.5	2	0.644	0.000	D	32	28.0	562.885	564.904	565.547	565.550	0
2	22071910	158	High	1.5	Precise	1	27	26	24	22.5	56.7	14.3	24	27	26	14.3	22.5	56.7	1	1.442	0.001	D	27	22.5	566.052	568.666	570.108	570.110	0
2	22071910	159	High	1.5	Precise	1	27	26	22	22.5	56.7	11.9	27	22	26	22.5	11.9	56.7	2	0.614	0.000	R	26	56.7	570.612	573.077	573.691	573.694	0
2	22071910	160	High	1.5	Vague	2	34	35	2	30.2	81.7	2.8	2	34	35	2.8	30.2	81.7	2	0.579	0.000	R	35	81.7	574.197	575.544	576.124	576.126	0
2	22071910	161	High	1.5	Vague	2	34	35	14	30.2	81.7	14.3	34	14	35	30.2	14.3	81.7	2	0.762	0.000	R	35	81.7	576.628	577.233	577.995	577.998	0
2	22071910	162	High	1.5	Vague	2	27	32	7	22.5	28.0	7.2	27	32	7	22.5	28.0	7.2	NaN	NaN	NaN	NaN	NaN	NaN	578.500	579.055	NaN	580.542	1
2	22071910	163	High	1.5	Vague	2	32	35	14	28.0	81.7	14.3	35	32	14	81.7	28.0	14.3	2	0.683	0.000	L	35	81.7	582.544	584.769	585.451	585.454	0
2	22071910	164	High	1.5	Vague	2	34	26	2	30.2	56.7	2.8	26	2	34	56.7	2.8	30.2	2	0.805	0.000	L	26	56.7	585.956	586.950	587.756	587.758	0
2	22071910	165	High	1.5	Vague	2	27	26	2	22.5	56.7	2.8	27	26	2	22.5	56.7	2.8	1	0.906	0.000	L	27	22.5	588.260	588.882	589.788	589.790	0
2	22071910	166	High	1.5	Vague	2	34	33	14	30.2	90.0	14.3	33	14	34	90.0	14.3	30.2	2	0.961	0.001	L	33	90.0	590.293	591.803	592.764	592.766	0
2	22071910	167	High	1.5	Precise	1	26	33	29	56.7	90.0	16.7	33	29	26	90.0	16.7	56.7	2	0.573	0.000	L	33	90.0	593.268	595.311	595.884	595.886	0
2	22071910	168	High	1.5	Precise	1	32	33	19	28.0	90.0	4.8	32	19	33	28.0	4.8	90.0	2	0.674	0.000	R	33	90.0	596.389	597.145	597.819	597.822	0
2	22071910	169	High	1.5	Precise	1	27	33	23	22.5	90.0	1.9	27	23	33	22.5	1.9	90.0	2	0.477	0.000	R	33	90.0	598.325	599.726	600.203	600.206	0
2	22071910	170	High	1.5	Precise	1	32	33	22	28.0	90.0	11.9	33	22	32	90.0	11.9	28.0	2	0.610	0.000	L	33	90.0	600.709	602.729	603.339	603.342	0
2	22071910	171	High	1.5	Vague	2	27	35	3	22.5	81.7	5.4	27	3	35	22.5	5.4	81.7	3	0.564	0.000	D	3	5.4	603.844	605.751	606.315	606.318	0
2	22071910	172	High	1.5	Vague	2	34	33	10	30.2	90.0	18.1	10	33	34	18.1	90.0	30.2	2	0.799	0.000	D	33	90.0	606.821	607.452	608.252	608.254	0
2	22071910	173	High	1.5	Vague	2	32	33	14	28.0	90.0	14.3	14	33	32	14.3	90.0	28.0	2	0.796	0.000	D	33	90.0	608.756	611.728	612.524	612.526	0
2	22071910	174	High	1.5	Vague	2	27	26	9	22.5	56.7	10.9	27	26	9	22.5	56.7	10.9	2	1.265	0.001	D	26	56.7	613.029	614.682	615.948	615.950	0
2	22071910	175	High	1.5	Precise	1	34	35	22	30.2	81.7	11.9	34	22	35	30.2	11.9	81.7	2	0.974	0.000	R	35	81.7	616.453	617.790	618.764	618.766	0
2	22071910	176	High	1.5	Vague	2	34	33	7	30.2	90.0	7.2	7	33	34	7.2	90.0	30.2	2	0.989	0.000	D	33	90.0	619.268	620.783	621.771	621.774	0
2	22071910	177	High	1.5	Vague	2	26	33	9	56.7	90.0	10.9	9	26	33	10.9	56.7	90.0	2	0.675	0.000	R	33	90.0	622.277	623.736	624.412	624.414	0
2	22071910	178	High	1.5	Precise	1	26	33	24	56.7	90.0	14.3	26	24	33	56.7	14.3	90.0	2	0.718	0.001	R	33	90.0	624.917	625.486	626.204	626.206	0
2	22071910	179	High	1.5	Precise	1	34	35	19	30.2	81.7	4.8	35	19	34	81.7	4.8	30.2	2	1.056	0.000	L	35	81.7	626.709	628.667	629.723	629.726	0
2	22071910	180	High	1.5	Vague	2	32	26	7	28.0	56.7	7.2	32	7	26	28.0	7.2	56.7	NaN	NaN	NaN	NaN	NaN	NaN	630.228	631.464	NaN	632.951	1
2	22071910	181	Low	10.0	Vague	2	27	32	13	22.5	28.0	14.0	13	32	27	14.0	28.0	22.5	1	1.462	0.000	R	27	22.5	652.474	654.214	655.676	655.678	0
2	22071910	182	Low	10.0	Vague	2	27	35	6	22.5	81.7	2.1	35	27	6	81.7	22.5	2.1	2	2.160	0.000	L	35	81.7	656.180	656.828	658.987	658.990	0
2	22071910	183	Low	10.0	Vague	2	34	26	11	30.2	56.7	9.8	11	26	34	9.8	56.7	30.2	2	2.620	0.000	D	26	56.7	659.493	660.720	663.340	663.342	0
2	22071910	184	Low	10.0	Precise	1	27	26	28	22.5	56.7	15.5	26	28	27	56.7	15.5	22.5	2	2.069	0.000	L	26	56.7	663.845	664.647	666.716	666.718	0
2	22071910	185	Low	10.0	Vague	2	27	26	13	22.5	56.7	14.0	13	26	27	14.0	56.7	22.5	2	1.485	0.000	D	26	56.7	667.221	669.406	670.892	670.894	0
2	22071910	186	Low	10.0	Precise	1	27	26	20	22.5	56.7	1.7	27	20	26	22.5	1.7	56.7	2	1.525	0.000	R	26	56.7	671.397	673.526	675.051	675.054	0
2	22071910	187	Low	10.0	Vague	2	34	26	6	30.2	56.7	2.1	6	26	34	2.1	56.7	30.2	2	2.733	0.000	D	26	56.7	675.557	676.079	678.812	678.814	0
2	22071910	188	Low	10.0	Precise	1	32	33	20	28.0	90.0	1.7	32	33	20	28.0	90.0	1.7	2	1.768	0.000	D	33	90.0	679.317	681.043	682.812	682.814	0
2	22071910	189	Low	10.0	Vague	2	32	26	12	28.0	56.7	17.6	32	12	26	28.0	17.6	56.7	2	1.645	0.000	R	26	56.7	683.317	684.831	686.475	686.478	0
2	22071910	190	Low	10.0	Precise	1	32	35	21	28.0	81.7	2.2	32	35	21	28.0	81.7	2.2	2	1.679	0.000	D	35	81.7	686.980	687.549	689.228	689.230	0
2	22071910	191	Low	10.0	Vague	2	32	34	12	28.0	30.2	17.6	12	34	32	17.6	30.2	28.0	2	4.685	0.000	D	34	30.2	689.732	691.839	696.524	696.526	0
2	22071910	192	Low	10.0	Precise	1	32	34	21	28.0	30.2	2.2	34	32	21	30.2	28.0	2.2	2	1.926	0.001	L	34	30.2	697.028	698.309	700.236	700.238	0
2	22071910	193	Low	10.0	Precise	1	27	32	36	22.5	28.0	13.9	32	27	36	28.0	22.5	13.9	1	1.798	0.001	D	27	22.5	700.741	701.253	703.052	703.054	0
2	22071910	194	Low	10.0	Vague	2	27	32	5	22.5	28.0	6.0	5	27	32	6.0	22.5	28.0	1	1.343	0.000	D	27	22.5	703.556	705.356	706.699	706.702	0
2	22071910	195	Low	10.0	Precise	1	26	33	25	56.7	90.0	5.9	25	26	33	5.9	56.7	90.0	2	1.123	0.000	R	33	90.0	707.205	708.217	709.339	709.342	0
2	22071910	196	Low	10.0	Vague	2	27	35	5	22.5	81.7	6.0	35	27	5	81.7	22.5	6.0	2	1.206	0.000	L	35	81.7	709.845	711.701	712.907	712.910	0
2	22071910	197	Low	10.0	Precise	1	27	33	20	22.5	90.0	1.7	27	33	20	22.5	90.0	1.7	2	1.125	0.000	D	33	90.0	713.412	714.567	715.692	715.694	0
2	22071910	198	Low	10.0	Vague	2	27	26	5	22.5	56.7	6.0	26	5	27	56.7	6.0	22.5	2	1.549	0.001	L	26	56.7	716.197	717.407	718.956	718.958	0
2	22071910	199	Low	10.0	Precise	1	26	33	20	56.7	90.0	1.7	20	26	33	1.7	56.7	90.0	2	0.883	0.000	R	33	90.0	719.461	722.312	723.196	723.198	0
2	22071910	200	Low	10.0	Vague	2	32	33	1	28.0	90.0	3.8	32	33	1	28.0	90.0	3.8	2	1.246	0.001	D	33	90.0	723.700	726.302	727.548	727.551	0
2	22071910	201	Low	10.0	Precise	1	27	32	30	22.5	28.0	11.3	32	30	27	28.0	11.3	22.5	1	1.584	0.000	R	27	22.5	728.053	730.908	732.492	732.494	0
2	22071910	202	Low	10.0	Precise	1	27	32	21	22.5	28.0	2.2	32	21	27	28.0	2.2	22.5	1	1.505	0.001	R	27	22.5	732.996	735.867	737.372	737.374	0
2	22071910	203	Low	10.0	Precise	1	34	26	28	30.2	56.7	15.5	28	26	34	15.5	56.7	30.2	2	1.283	0.000	D	26	56.7	737.877	738.857	740.140	740.142	0
2	22071910	204	Low	10.0	Vague	2	32	34	6	28.0	30.2	2.1	34	6	32	30.2	2.1	28.0	2	2.137	0.000	L	34	30.2	740.644	741.474	743.611	743.614	0
2	22071910	205	Low	10.0	Vague	2	35	33	1	81.7	90.0	3.8	33	35	1	90.0	81.7	3.8	2	1.045	0.000	L	33	90.0	744.117	746.278	747.323	747.326	0
2	22071910	206	Low	10.0	Vague	2	34	33	1	30.2	90.0	3.8	34	33	1	30.2	90.0	3.8	2	0.818	0.000	D	33	90.0	747.828	750.457	751.276	751.278	0
2	22071910	207	Low	10.0	Precise	1	32	34	25	28.0	30.2	5.9	34	25	32	30.2	5.9	28.0	2	1.791	0.000	L	34	30.2	751.780	754.284	756.075	756.078	0
2	22071910	208	Low	10.0	Vague	2	32	35	13	28.0	81.7	14.0	13	32	35	14.0	28.0	81.7	2	1.292	0.000	R	35	81.7	756.580	758.192	759.483	759.486	0
2	22071910	209	Low	10.0	Precise	1	32	34	20	28.0	30.2	1.7	20	34	32	1.7	30.2	28.0	2	1.319	0.000	D	34	30.2	759.989	760.901	762.220	762.222	0
2	22071910	210	Low	10.0	Vague	2	27	33	5	22.5	90.0	6.0	5	33	27	6.0	90.0	22.5	2	1.888	0.000	D	33	90.0	762.725	763.308	765.196	765.198	0
2	22071910	211	Low	10.0	Precise	1	27	33	36	22.5	90.0	13.9	33	36	27	90.0	13.9	22.5	2	1.114	0.001	L	33	90.0	765.701	768.290	769.404	769.406	0
2	22071910	212	Low	10.0	Precise	1	35	33	36	81.7	90.0	13.9	35	36	33	81.7	13.9	90.0	2	0.901	0.000	R	33	90.0	769.908	772.311	773.212	773.214	0
2	22071910	213	Low	10.0	Vague	2	27	32	6	22.5	28.0	2.1	32	27	6	28.0	22.5	2.1	1	1.604	0.000	D	27	22.5	773.716	776.503	778.108	778.110	0
2	22071910	214	Low	10.0	Precise	1	26	33	30	56.7	90.0	11.3	30	26	33	11.3	56.7	90.0	2	0.830	0.000	R	33	90.0	778.613	780.813	781.644	781.646	0
2	22071910	215	Low	10.0	Precise	1	27	32	25	22.5	28.0	5.9	32	25	27	28.0	5.9	22.5	1	1.451	0.000	R	27	22.5	782.148	784.721	786.172	786.174	0
2	22071910	216	Low	10.0	Precise	1	27	35	21	22.5	81.7	2.2	21	35	27	2.2	81.7	22.5	2	1.090	0.000	D	35	81.7	786.677	788.490	789.580	789.582	0
2	22071910	217	Low	10.0	Precise	1	32	26	30	28.0	56.7	11.3	32	26	30	28.0	56.7	11.3	2	1.119	0.000	D	26	56.7	790.084	792.749	793.868	793.870	0
2	22071910	218	Low	10.0	Precise	1	34	35	30	30.2	81.7	11.3	34	35	30	30.2	81.7	11.3	2	1.152	0.001	D	35	81.7	794.373	796.507	797.660	797.662	0
2	22071910	219	Low	10.0	Vague	2	32	35	1	28.0	81.7	3.8	1	35	32	3.8	81.7	28.0	2	1.126	0.000	D	35	81.7	798.165	799.750	800.876	800.878	0
2	22071910	220	Low	10.0	Precise	1	34	35	21	30.2	81.7	2.2	21	35	34	2.2	81.7	30.2	2	0.825	0.001	D	35	81.7	801.381	802.595	803.420	803.422	0
2	22071910	221	Low	10.0	Precise	1	27	34	21	22.5	30.2	2.2	21	27	34	2.2	22.5	30.2	1	0.837	0.000	D	27	22.5	803.924	806.423	807.260	807.262	0
2	22071910	222	Low	10.0	Vague	2	26	33	5	56.7	90.0	6.0	26	5	33	56.7	6.0	90.0	2	1.040	0.001	R	33	90.0	807.766	810.588	811.628	811.630	0
2	22071910	223	Low	10.0	Precise	1	27	34	20	22.5	30.2	1.7	20	34	27	1.7	30.2	22.5	1	1.228	0.001	R	27	22.5	812.133	812.864	814.092	814.094	0
2	22071910	224	Low	10.0	Vague	2	32	26	11	28.0	56.7	9.8	26	32	11	56.7	28.0	9.8	3	0.716	0.000	R	11	9.8	814.596	817.392	818.108	818.110	0
2	22071910	225	Low	10.0	Vague	2	35	33	6	81.7	90.0	2.1	33	6	35	90.0	2.1	81.7	2	2.389	0.001	L	33	90.0	818.612	820.951	823.340	823.342	0
2	22071910	226	Low	10.0	Precise	1	27	33	25	22.5	90.0	5.9	27	25	33	22.5	5.9	90.0	2	0.965	0.000	R	33	90.0	823.845	826.487	827.451	827.454	0
2	22071910	227	Low	10.0	Vague	2	35	33	13	81.7	90.0	14.0	33	35	13	90.0	81.7	14.0	2	1.014	0.000	L	33	90.0	827.957	828.598	829.612	829.614	0
2	22071910	228	Low	10.0	Precise	1	26	35	36	56.7	81.7	13.9	26	35	36	56.7	81.7	13.9	2	1.031	0.000	D	35	81.7	830.116	830.757	831.788	831.790	0
2	22071910	229	Low	10.0	Vague	2	26	33	12	56.7	90.0	17.6	33	12	26	90.0	17.6	56.7	2	0.902	0.000	L	33	90.0	832.293	833.877	834.780	834.782	0
2	22071910	230	Low	10.0	Vague	2	27	34	13	22.5	30.2	14.0	13	34	27	14.0	30.2	22.5	1	1.111	0.001	R	27	22.5	835.285	838.053	839.164	839.166	0
2	22071910	231	Low	10.0	Vague	2	34	26	1	30.2	56.7	3.8	1	34	26	3.8	30.2	56.7	2	1.266	0.000	R	26	56.7	839.669	840.729	841.995	841.998	0
2	22071910	232	Low	10.0	Precise	1	27	26	21	22.5	56.7	2.2	26	27	21	56.7	22.5	2.2	2	0.967	0.000	L	26	56.7	842.500	844.084	845.051	845.054	0
2	22071910	233	Low	10.0	Vague	2	32	33	12	28.0	90.0	17.6	32	33	12	28.0	90.0	17.6	2	1.579	0.001	D	33	90.0	845.557	846.112	847.692	847.694	0
2	22071910	234	Low	10.0	Vague	2	34	35	11	30.2	81.7	9.8	11	35	34	9.8	81.7	30.2	2	1.052	0.000	D	35	81.7	848.197	848.864	849.916	849.918	0
2	22071910	235	Low	10.0	Vague	2	32	33	6	28.0	90.0	2.1	33	6	32	90.0	2.1	28.0	2	1.246	0.000	L	33	90.0	850.420	852.558	853.804	853.806	0
2	22071910	236	Low	10.0	Vague	2	35	33	11	81.7	90.0	9.8	33	11	35	90.0	9.8	81.7	2	0.942	0.000	L	33	90.0	854.309	855.726	856.667	856.671	0
2	22071910	237	Low	10.0	Vague	2	27	35	11	22.5	81.7	9.8	35	11	27	81.7	9.8	22.5	2	1.429	0.001	L	35	81.7	857.173	858.631	860.060	860.062	0
2	22071910	238	Low	10.0	Precise	1	27	35	36	22.5	81.7	13.9	35	27	36	81.7	22.5	13.9	2	0.683	0.000	L	35	81.7	860.565	863.136	863.819	863.822	0
2	22071910	239	Low	10.0	Vague	2	27	32	1	22.5	28.0	3.8	32	27	1	28.0	22.5	3.8	1	1.428	0.001	D	27	22.5	864.325	865.368	866.796	866.798	0
2	22071910	240	Low	10.0	Precise	1	35	33	28	81.7	90.0	15.5	35	28	33	81.7	15.5	90.0	2	1.324	0.000	R	33	90.0	867.301	868.319	869.643	869.646	0
2	22071910	241	Low	10.0	Precise	1	35	33	21	81.7	90.0	2.2	21	35	33	2.2	81.7	90.0	2	0.919	0.000	R	33	90.0	884.345	886.772	887.692	887.694	0
2	22071910	242	Low	10.0	Precise	1	34	33	20	30.2	90.0	1.7	20	33	34	1.7	90.0	30.2	2	0.745	0.000	D	33	90.0	888.198	890.627	891.372	891.374	0
2	22071910	243	Low	10.0	Precise	1	32	34	28	28.0	30.2	15.5	32	34	28	28.0	30.2	15.5	2	1.393	0.000	D	34	30.2	891.877	893.483	894.876	894.878	0
2	22071910	244	Low	10.0	Precise	1	26	33	36	56.7	90.0	13.9	36	33	26	13.9	90.0	56.7	2	0.703	0.000	D	33	90.0	895.380	897.628	898.331	898.334	0
2	22071910	245	Low	10.0	Precise	1	35	33	30	81.7	90.0	11.3	35	33	30	81.7	90.0	11.3	2	0.622	0.000	D	33	90.0	898.836	899.597	900.220	900.222	0
2	22071910	246	Low	10.0	Vague	2	32	34	13	28.0	30.2	14.0	13	32	34	14.0	28.0	30.2	1	0.819	0.000	D	32	28.0	900.725	903.481	904.300	904.302	0
2	22071910	247	Low	10.0	Precise	1	32	35	28	28.0	81.7	15.5	28	32	35	15.5	28.0	81.7	2	0.697	0.000	R	35	81.7	904.805	905.779	906.476	906.479	0
2	22071910	248	Low	10.0	Precise	1	34	35	25	30.2	81.7	5.9	35	25	34	81.7	5.9	30.2	2	0.708	0.000	L	35	81.7	906.981	909.832	910.539	910.542	0
2	22071910	249	Low	10.0	Vague	2	26	35	11	56.7	81.7	9.8	35	11	26	81.7	9.8	56.7	2	0.544	0.000	L	35	81.7	911.045	913.275	913.820	913.822	0
2	22071910	250	Low	10.0	Vague	2	32	26	1	28.0	56.7	3.8	1	26	32	3.8	56.7	28.0	2	1.137	0.000	D	26	56.7	914.324	916.570	917.708	917.710	0
2	22071910	251	Low	10.0	Vague	2	27	35	12	22.5	81.7	17.6	12	35	27	17.6	81.7	22.5	2	1.212	0.000	D	35	81.7	918.213	919.839	921.051	921.054	0
2	22071910	252	Low	10.0	Precise	1	34	35	20	30.2	81.7	1.7	35	34	20	81.7	30.2	1.7	2	0.601	0.000	L	35	81.7	921.557	923.554	924.155	924.158	0
2	22071910	253	Low	10.0	Vague	2	34	33	11	30.2	90.0	9.8	34	33	11	30.2	90.0	9.8	2	1.095	0.000	D	33	90.0	924.661	925.189	926.284	926.286	0
2	22071910	254	Low	10.0	Vague	2	32	34	5	28.0	30.2	6.0	34	5	32	30.2	6.0	28.0	2	1.238	0.000	L	34	30.2	926.789	929.493	930.731	930.734	0
2	22071910	255	Low	10.0	Precise	1	32	33	28	28.0	90.0	15.5	33	28	32	90.0	15.5	28.0	2	1.390	0.000	L	33	90.0	931.237	932.173	933.564	933.566	0
2	22071910	256	Low	10.0	Precise	1	27	33	21	22.5	90.0	2.2	33	27	21	90.0	22.5	2.2	2	0.573	0.000	L	33	90.0	934.069	935.166	935.740	935.742	0
2	22071910	257	Low	10.0	Precise	1	27	35	28	22.5	81.7	15.5	35	28	27	81.7	15.5	22.5	2	0.917	0.001	L	35	81.7	936.244	937.863	938.780	938.782	0
2	22071910	258	Low	10.0	Precise	1	34	33	25	30.2	90.0	5.9	33	34	25	90.0	30.2	5.9	2	0.712	0.000	L	33	90.0	939.284	941.332	942.043	942.046	0
2	22071910	259	Low	10.0	Vague	2	32	26	6	28.0	56.7	2.1	26	6	32	56.7	2.1	28.0	2	0.963	0.001	L	26	56.7	942.548	944.520	945.484	945.486	0
2	22071910	260	Low	10.0	Vague	2	27	33	11	22.5	90.0	9.8	33	11	27	90.0	9.8	22.5	2	0.711	0.000	L	33	90.0	945.989	948.757	949.468	949.470	0
2	22071910	261	Low	10.0	Vague	2	34	26	5	30.2	56.7	6.0	5	34	26	6.0	30.2	56.7	2	0.983	0.000	R	26	56.7	949.972	952.453	953.436	953.438	0
2	22071910	262	Low	10.0	Vague	2	27	34	5	22.5	30.2	6.0	34	5	27	30.2	6.0	22.5	1	0.793	0.001	R	27	22.5	953.941	954.739	955.532	955.534	0
2	22071910	263	Low	10.0	Vague	2	34	26	12	30.2	56.7	17.6	12	26	34	17.6	56.7	30.2	2	1.920	0.000	D	26	56.7	956.038	956.588	958.508	958.510	0
2	22071910	264	Low	10.0	Vague	2	32	35	12	28.0	81.7	17.6	12	35	32	17.6	81.7	28.0	2	1.212	0.000	D	35	81.7	959.013	959.824	961.036	961.038	0
2	22071910	265	Low	10.0	Vague	2	32	34	11	28.0	30.2	9.8	32	11	34	28.0	9.8	30.2	2	1.200	0.000	R	34	30.2	961.541	962.604	963.804	963.806	0
2	22071910	266	Low	10.0	Vague	2	27	33	13	22.5	90.0	14.0	33	13	27	90.0	14.0	22.5	1	0.843	0.000	R	27	22.5	964.309	966.657	967.499	967.502	0
2	22071910	267	Low	10.0	Precise	1	34	33	21	30.2	90.0	2.2	21	33	34	2.2	90.0	30.2	2	0.730	0.000	D	33	90.0	968.004	968.610	969.340	969.342	0
2	22071910	268	Low	10.0	Precise	1	34	33	28	30.2	90.0	15.5	33	28	34	90.0	15.5	30.2	2	0.578	0.000	L	33	90.0	969.845	972.074	972.652	972.654	0
2	22071910	269	Low	10.0	Vague	2	34	33	13	30.2	90.0	14.0	34	13	33	30.2	14.0	90.0	2	0.828	0.000	R	33	90.0	973.157	974.335	975.163	975.166	0
2	22071910	270	Low	10.0	Precise	1	32	35	30	28.0	81.7	11.3	35	30	32	81.7	11.3	28.0	2	1.300	0.000	L	35	81.7	975.669	977.304	978.603	978.606	0
2	22071910	271	Low	10.0	Vague	2	32	33	11	28.0	90.0	9.8	33	32	11	90.0	28.0	9.8	3	0.854	0.000	R	11	9.8	979.108	980.022	980.876	980.878	0
2	22071910	272	Low	10.0	Vague	2	34	26	13	30.2	56.7	14.0	13	34	26	14.0	30.2	56.7	2	1.254	0.000	R	26	56.7	981.381	984.086	985.340	985.342	0
2	22071910	273	Low	10.0	Vague	2	34	33	12	30.2	90.0	17.6	34	33	12	30.2	90.0	17.6	2	0.715	0.000	D	33	90.0	985.845	988.689	989.404	989.406	0
2	22071910	274	Low	10.0	Vague	2	27	34	6	22.5	30.2	2.1	27	34	6	22.5	30.2	2.1	1	1.079	0.001	L	27	22.5	989.909	992.004	993.084	993.086	0
2	22071910	275	Low	10.0	Vague	2	27	32	12	22.5	28.0	17.6	27	12	32	22.5	17.6	28.0	1	0.646	0.000	L	27	22.5	993.589	994.886	995.532	995.534	0
2	22071910	276	Low	10.0	Precise	1	32	26	20	28.0	56.7	1.7	20	32	26	1.7	28.0	56.7	2	1.159	0.000	R	26	56.7	996.036	998.532	999.691	999.694	0
2	22071910	277	Low	10.0	Precise	1	32	26	25	28.0	56.7	5.9	32	25	26	28.0	5.9	56.7	2	1.390	0.000	R	26	56.7	1000.197	1002.798	1004.188	1004.190	0
2	22071910	278	Low	10.0	Precise	1	34	35	36	30.2	81.7	13.9	34	36	35	30.2	13.9	81.7	2	0.900	0.000	R	35	81.7	1004.693	1006.328	1007.227	1007.231	0
2	22071910	279	Low	10.0	Vague	2	32	26	5	28.0	56.7	6.0	32	5	26	28.0	6.0	56.7	2	0.839	0.001	R	26	56.7	1007.733	1009.413	1010.252	1010.254	0
2	22071910	280	Low	10.0	Precise	1	27	26	25	22.5	56.7	5.9	25	26	27	5.9	56.7	22.5	1	0.768	0.000	R	27	22.5	1010.757	1013.467	1014.236	1014.238	0
2	22071910	281	Low	10.0	Precise	1	27	26	36	22.5	56.7	13.9	26	27	36	56.7	22.5	13.9	1	1.044	0.001	D	27	22.5	1014.741	1017.575	1018.620	1018.622	0
2	22071910	282	Low	10.0	Precise	1	26	33	28	56.7	90.0	15.5	33	26	28	90.0	56.7	15.5	2	0.739	0.001	L	33	90.0	1019.125	1019.945	1020.684	1020.686	0
2	22071910	283	Low	10.0	Vague	2	32	33	13	28.0	90.0	14.0	13	32	33	14.0	28.0	90.0	2	0.627	0.000	R	33	90.0	1021.189	1023.576	1024.204	1024.206	0
2	22071910	284	Low	10.0	Vague	2	26	33	13	56.7	90.0	14.0	13	33	26	14.0	90.0	56.7	2	0.763	0.000	D	33	90.0	1024.709	1026.448	1027.212	1027.214	0
2	22071910	285	Low	10.0	Vague	2	32	33	5	28.0	90.0	6.0	32	5	33	28.0	6.0	90.0	2	0.617	0.000	R	33	90.0	1027.716	1028.722	1029.340	1029.342	0
2	22071910	286	Low	10.0	Vague	2	26	33	1	56.7	90.0	3.8	1	33	26	3.8	90.0	56.7	2	0.607	0.000	D	33	90.0	1029.845	1030.748	1031.355	1031.358	0
2	22071910	287	Low	10.0	Vague	2	27	34	11	22.5	30.2	9.8	11	34	27	9.8	30.2	22.5	3	0.604	0.000	L	11	9.8	1031.860	1034.448	1035.051	1035.054	0
2	22071910	288	Low	10.0	Vague	2	27	34	12	22.5	30.2	17.6	12	34	27	17.6	30.2	22.5	1	0.655	0.000	R	27	22.5	1035.556	1037.644	1038.299	1038.302	0
2	22071910	289	Low	10.0	Vague	2	26	35	6	56.7	81.7	2.1	6	26	35	2.1	56.7	81.7	2	0.915	0.000	R	35	81.7	1038.805	1040.473	1041.388	1041.390	0
2	22071910	290	Low	10.0	Precise	1	34	26	20	30.2	56.7	1.7	34	26	20	30.2	56.7	1.7	2	0.897	0.001	D	26	56.7	1041.892	1043.115	1044.012	1044.014	0
2	22071910	291	Low	10.0	Vague	2	32	35	5	28.0	81.7	6.0	35	32	5	81.7	28.0	6.0	2	0.704	0.000	L	35	81.7	1044.517	1045.403	1046.107	1046.110	0
2	22071910	292	Low	10.0	Vague	2	27	26	6	22.5	56.7	2.1	6	26	27	2.1	56.7	22.5	2	1.290	0.000	D	26	56.7	1046.612	1047.746	1049.036	1049.038	0
2	22071910	293	Low	10.0	Vague	2	27	26	12	22.5	56.7	17.6	26	12	27	56.7	17.6	22.5	1	1.193	0.000	R	27	22.5	1049.541	1052.002	1053.195	1053.198	0
2	22071910	294	Low	10.0	Vague	2	27	33	1	22.5	90.0	3.8	1	27	33	3.8	22.5	90.0	1	0.840	0.001	D	27	22.5	1053.700	1054.403	1055.244	1055.246	0
2	22071910	295	Low	10.0	Precise	1	26	35	20	56.7	81.7	1.7	26	35	20	56.7	81.7	1.7	2	1.002	0.000	D	35	81.7	1055.749	1057.425	1058.427	1058.430	0
2	22071910	296	Low	10.0	Vague	2	34	35	5	30.2	81.7	6.0	35	5	34	81.7	6.0	30.2	2	0.757	0.000	L	35	81.7	1058.933	1061.814	1062.571	1062.574	0
2	22071910	297	Low	10.0	Precise	1	34	33	36	30.2	90.0	13.9	36	34	33	13.9	30.2	90.0	2	0.644	0.000	R	33	90.0	1063.077	1066.007	1066.652	1066.654	0
2	22071910	298	Low	10.0	Vague	2	26	33	6	56.7	90.0	2.1	6	33	26	2.1	90.0	56.7	2	0.738	0.000	D	33	90.0	1067.157	1067.690	1068.428	1068.431	0
2	22071910	299	Low	10.0	Precise	1	27	34	28	22.5	30.2	15.5	27	28	34	22.5	15.5	30.2	1	1.189	0.001	L	27	22.5	1068.933	1071.463	1072.652	1072.654	0
2	22071910	300	Low	10.0	Precise	1	32	34	36	28.0	30.2	13.9	34	32	36	30.2	28.0	13.9	2	2.000	0.001	L	34	30.2	1073.157	1073.900	1075.900	1075.902	0
2	22071910	301	Low	10.0	Precise	1	27	26	30	22.5	56.7	11.3	30	27	26	11.3	22.5	56.7	2	1.403	0.000	R	26	56.7	1089.619	1091.921	1093.324	1093.326	0
2	22071910	302	Low	10.0	Precise	1	32	35	20	28.0	81.7	1.7	20	35	32	1.7	81.7	28.0	2	0.718	0.000	D	35	81.7	1093.829	1096.254	1096.972	1096.974	0
2	22071910	303	Low	10.0	Vague	2	35	33	12	81.7	90.0	17.6	33	35	12	90.0	81.7	17.6	2	0.599	0.000	L	33	90.0	1097.477	1100.436	1101.035	1101.038	0
2	22071910	304	Low	10.0	Vague	2	34	35	12	30.2	81.7	17.6	34	35	12	30.2	81.7	17.6	2	0.907	0.000	D	35	81.7	1101.541	1104.305	1105.212	1105.214	0
2	22071910	305	Low	10.0	Precise	1	32	33	21	28.0	90.0	2.2	32	21	33	28.0	2.2	90.0	2	0.890	0.001	R	33	90.0	1105.716	1107.393	1108.284	1108.286	0
2	22071910	306	Low	10.0	Precise	1	32	26	28	28.0	56.7	15.5	32	26	28	28.0	56.7	15.5	2	1.195	0.000	D	26	56.7	1108.789	1111.441	1112.636	1112.638	0
2	22071910	307	Low	10.0	Vague	2	27	32	11	22.5	28.0	9.8	11	32	27	9.8	28.0	22.5	1	1.436	0.000	R	27	22.5	1113.141	1115.280	1116.716	1116.718	0
2	22071910	308	Low	10.0	Precise	1	34	35	28	30.2	81.7	15.5	34	35	28	30.2	81.7	15.5	2	0.693	0.000	D	35	81.7	1117.221	1118.406	1119.100	1119.102	0
2	22071910	309	Low	10.0	Precise	1	35	33	25	81.7	90.0	5.9	25	35	33	5.9	81.7	90.0	1	0.671	0.001	D	35	81.7	1119.604	1122.204	1122.876	1122.878	0
2	22071910	310	Low	10.0	Vague	2	34	35	1	30.2	81.7	3.8	34	35	1	30.2	81.7	3.8	2	1.017	0.000	D	35	81.7	1123.381	1123.970	1124.988	1124.990	0
2	22071910	311	Low	10.0	Vague	2	32	34	1	28.0	30.2	3.8	34	1	32	30.2	3.8	28.0	2	1.356	0.000	L	34	30.2	1125.492	1127.039	1128.395	1128.398	0
2	22071910	312	Low	10.0	Vague	2	26	35	13	56.7	81.7	14.0	26	35	13	56.7	81.7	14.0	1	1.021	0.001	L	26	56.7	1128.900	1130.703	1131.724	1131.726	0
2	22071910	313	Low	10.0	Precise	1	34	26	36	30.2	56.7	13.9	34	36	26	30.2	13.9	56.7	2	1.120	0.000	R	26	56.7	1132.228	1133.611	1134.731	1134.734	0
2	22071910	314	Low	10.0	Vague	2	32	35	11	28.0	81.7	9.8	32	11	35	28.0	9.8	81.7	2	0.604	0.000	R	35	81.7	1135.237	1136.944	1137.548	1137.550	0
2	22071910	315	Low	10.0	Vague	2	32	35	6	28.0	81.7	2.1	6	32	35	2.1	28.0	81.7	2	0.571	0.000	R	35	81.7	1138.053	1139.841	1140.411	1140.414	0
2	22071910	316	Low	10.0	Vague	2	27	34	1	22.5	30.2	3.8	27	1	34	22.5	3.8	30.2	1	0.957	0.000	L	27	22.5	1140.916	1142.447	1143.404	1143.406	0
2	22071910	317	Low	10.0	Precise	1	34	26	21	30.2	56.7	2.2	21	26	34	2.2	56.7	30.2	2	1.223	0.001	D	26	56.7	1143.909	1144.837	1146.060	1146.062	0
2	22071910	318	Low	10.0	Vague	2	34	33	5	30.2	90.0	6.0	33	5	34	90.0	6.0	30.2	2	0.809	0.000	L	33	90.0	1146.565	1149.235	1150.043	1150.046	0
2	22071910	319	Low	10.0	Precise	1	34	26	25	30.2	56.7	5.9	25	34	26	5.9	30.2	56.7	2	1.097	0.000	R	26	56.7	1150.549	1152.482	1153.580	1153.582	0
2	22071910	320	Low	10.0	Precise	1	27	34	25	22.5	30.2	5.9	25	34	27	5.9	30.2	22.5	1	1.061	0.000	R	27	22.5	1154.084	1157.030	1158.091	1158.094	0
2	22071910	321	Low	10.0	Precise	1	27	32	20	22.5	28.0	1.7	20	27	32	1.7	22.5	28.0	1	1.111	0.000	D	27	22.5	1158.596	1160.836	1161.948	1161.950	0
2	22071910	322	Low	10.0	Precise	1	32	33	36	28.0	90.0	13.9	32	33	36	28.0	90.0	13.9	2	0.773	0.001	D	33	90.0	1162.453	1164.887	1165.660	1165.662	0
2	22071910	323	Low	10.0	Vague	2	26	35	5	56.7	81.7	6.0	26	5	35	56.7	6.0	81.7	2	0.929	0.000	R	35	81.7	1166.165	1167.994	1168.924	1168.926	0
2	22071910	324	Low	10.0	Vague	2	27	35	1	22.5	81.7	3.8	35	1	27	81.7	3.8	22.5	2	0.711	0.000	L	35	81.7	1169.429	1171.173	1171.883	1171.886	0
2	22071910	325	Low	10.0	Precise	1	27	34	30	22.5	30.2	11.3	30	34	27	11.3	30.2	22.5	1	0.786	0.000	R	27	22.5	1172.389	1173.834	1174.620	1174.622	0
2	22071910	326	Low	10.0	Vague	2	26	35	1	56.7	81.7	3.8	26	35	1	56.7	81.7	3.8	1	1.055	0.000	L	26	56.7	1175.124	1177.517	1178.572	1178.574	0
2	22071910	327	Low	10.0	Vague	2	27	33	12	22.5	90.0	17.6	33	12	27	90.0	17.6	22.5	1	1.119	0.000	R	27	22.5	1179.076	1180.940	1182.059	1182.062	0
2	22071910	328	Low	10.0	Precise	1	34	33	30	30.2	90.0	11.3	30	34	33	11.3	30.2	90.0	2	0.737	0.000	R	33	90.0	1182.565	1184.730	1185.468	1185.470	0
2	22071910	329	Low	10.0	Vague	2	35	33	5	81.7	90.0	6.0	35	5	33	81.7	6.0	90.0	1	0.833	0.000	L	35	81.7	1185.973	1186.922	1187.756	1187.758	0
2	22071910	330	Low	10.0	Precise	1	34	26	30	30.2	56.7	11.3	26	34	30	56.7	30.2	11.3	2	1.103	0.000	L	26	56.7	1188.260	1190.493	1191.595	1191.598	0
2	22071910	331	Low	10.0	Precise	1	26	35	21	56.7	81.7	2.2	35	21	26	81.7	2.2	56.7	2	0.670	0.000	L	35	81.7	1192.101	1194.062	1194.732	1194.734	0
2	22071910	332	Low	10.0	Precise	1	32	33	30	28.0	90.0	11.3	33	30	32	90.0	11.3	28.0	2	0.988	0.000	L	33	90.0	1195.236	1196.047	1197.035	1197.038	0
2	22071910	333	Low	10.0	Vague	2	27	26	1	22.5	56.7	3.8	27	1	26	22.5	3.8	56.7	2	1.179	0.000	R	26	56.7	1197.540	1200.417	1201.596	1201.598	0
2	22071910	334	Low	10.0	Precise	1	32	35	36	28.0	81.7	13.9	35	32	36	81.7	28.0	13.9	2	0.720	0.000	L	35	81.7	1202.101	1205.036	1205.755	1205.758	0
2	22071910	335	Low	10.0	Vague	2	32	26	13	28.0	56.7	14.0	13	26	32	14.0	56.7	28.0	2	1.626	0.001	D	26	56.7	1206.261	1206.978	1208.604	1208.606	0
2	22071910	336	Low	10.0	Vague	2	27	33	6	22.5	90.0	2.1	27	33	6	22.5	90.0	2.1	2	0.774	0.001	D	33	90.0	1209.109	1210.406	1211.180	1211.182	0
2	22071910	337	Low	10.0	Vague	2	26	33	11	56.7	90.0	9.8	33	26	11	90.0	56.7	9.8	2	0.831	0.000	L	33	90.0	1211.685	1212.589	1213.420	1213.422	0
2	22071910	338	Low	10.0	Vague	2	27	26	11	22.5	56.7	9.8	26	27	11	56.7	22.5	9.8	2	1.874	0.001	L	26	56.7	1213.925	1214.922	1216.796	1216.798	0
2	22071910	339	Low	10.0	Precise	1	35	33	20	81.7	90.0	1.7	33	35	20	90.0	81.7	1.7	2	0.669	0.001	L	33	90.0	1217.301	1219.199	1219.868	1219.870	0
2	22071910	340	Low	10.0	Precise	1	27	35	25	22.5	81.7	5.9	25	27	35	5.9	22.5	81.7	2	0.829	0.000	R	35	81.7	1220.373	1222.879	1223.708	1223.710	0
2	22071910	341	Low	10.0	Precise	1	26	35	28	56.7	81.7	15.5	28	26	35	15.5	56.7	81.7	2	0.701	0.000	R	35	81.7	1224.212	1226.254	1226.955	1226.958	0
2	22071910	342	Low	10.0	Precise	1	32	34	30	28.0	30.2	11.3	32	30	34	28.0	11.3	30.2	2	1.635	0.001	R	34	30.2	1227.461	1227.977	1229.612	1229.615	0
2	22071910	343	Low	10.0	Precise	1	32	35	25	28.0	81.7	5.9	25	32	35	5.9	28.0	81.7	2	0.766	0.001	R	35	81.7	1230.117	1232.558	1233.324	1233.326	0
2	22071910	344	Low	10.0	Precise	1	26	35	25	56.7	81.7	5.9	25	26	35	5.9	56.7	81.7	2	0.684	0.001	R	35	81.7	1233.829	1234.352	1235.036	1235.038	0
2	22071910	345	Low	10.0	Precise	1	32	26	21	28.0	56.7	2.2	32	21	26	28.0	2.2	56.7	2	0.745	0.000	R	26	56.7	1235.541	1236.883	1237.628	1237.630	0
2	22071910	346	Low	10.0	Precise	1	26	35	30	56.7	81.7	11.3	26	30	35	56.7	11.3	81.7	2	0.575	0.000	R	35	81.7	1238.133	1240.636	1241.212	1241.214	0
2	22071910	347	Low	10.0	Precise	1	27	33	28	22.5	90.0	15.5	27	28	33	22.5	15.5	90.0	1	0.789	0.001	L	27	22.5	1241.716	1243.383	1244.172	1244.174	0
2	22071910	348	Low	10.0	Precise	1	27	35	30	22.5	81.7	11.3	35	27	30	81.7	22.5	11.3	2	0.900	0.000	L	35	81.7	1244.677	1247.079	1247.980	1247.982	0
2	22071910	349	Low	10.0	Precise	1	32	26	36	28.0	56.7	13.9	32	36	26	28.0	13.9	56.7	2	1.212	0.000	R	26	56.7	1248.485	1250.960	1252.172	1252.174	0
2	22071910	350	Low	10.0	Vague	2	26	35	12	56.7	81.7	17.6	12	26	35	17.6	56.7	81.7	2	0.577	0.000	R	35	81.7	1252.678	1254.938	1255.515	1255.518	0
2	22071910	351	Low	10.0	Precise	1	27	33	30	22.5	90.0	11.3	33	30	27	90.0	11.3	22.5	2	0.656	0.000	L	33	90.0	1256.020	1258.347	1259.004	1259.006	0
2	22071910	352	Low	10.0	Precise	1	26	33	21	56.7	90.0	2.2	26	33	21	56.7	90.0	2.2	2	0.820	0.000	D	33	90.0	1259.508	1260.776	1261.596	1261.598	0
2	22071910	353	Low	10.0	Precise	1	27	32	28	22.5	28.0	15.5	27	28	32	22.5	15.5	28.0	1	1.087	0.000	L	27	22.5	1262.100	1262.893	1263.979	1263.982	0
2	22071910	354	Low	10.0	Vague	2	34	35	6	30.2	81.7	2.1	6	35	34	2.1	81.7	30.2	2	1.089	0.000	D	35	81.7	1264.485	1265.882	1266.971	1266.974	0
2	22071910	355	Low	10.0	Vague	2	27	35	13	22.5	81.7	14.0	35	27	13	81.7	22.5	14.0	2	0.645	0.000	L	35	81.7	1267.476	1269.447	1270.092	1270.094	0
2	22071910	356	Low	10.0	Precise	1	32	33	25	28.0	90.0	5.9	33	25	32	90.0	5.9	28.0	2	0.650	0.000	L	33	90.0	1270.596	1272.641	1273.292	1273.294	0
2	22071910	357	Low	10.0	Precise	1	27	35	20	22.5	81.7	1.7	27	35	20	22.5	81.7	1.7	2	1.231	0.001	D	35	81.7	1273.797	1276.108	1277.340	1277.342	0
2	22071910	358	Low	10.0	Precise	1	27	34	36	22.5	30.2	13.9	27	36	34	22.5	13.9	30.2	1	0.733	0.000	L	27	22.5	1277.845	1278.351	1279.084	1279.087	0
2	22071910	359	Low	10.0	Vague	2	34	33	6	30.2	90.0	2.1	34	33	6	30.2	90.0	2.1	2	0.818	0.000	D	33	90.0	1279.589	1280.618	1281.436	1281.438	0
2	22071910	360	Low	10.0	Vague	2	34	35	13	30.2	81.7	14.0	13	34	35	14.0	30.2	81.7	2	0.728	0.000	R	35	81.7	1281.941	1283.700	1284.428	1284.430	0
