Group,subID,trial,TimePressure,TimeConstraint,Vagueness,Vaguenesscode,ID1,ID2,ID3,V1,V2,V3,ID_left,ID_middle,ID_right,Bid_left,Bid_middle,Bid_right,chosenItem,RT,RTvariance,chosenPosition,chosenID,chosenValue,fixation_time,option_time,choice_time,feedback_time,timeout,Definitive,sdV1,sdV2,sdV3
2,22071401,1,Low,10,Vague,1,26,33,14,5.6,6.6,3.2,33,14,26,6.6,3.2,5.6,2,2.563,0,L,33,6.6,4.923,6.253,8.815,8.82,0,0,2.66333124739176,0.802080627701065,0.450924975282289
2,22071401,2,Low,10,Vague,1,26,33,13,5.6,6.6,2.8,13,26,33,2.8,5.6,6.6,1,2.085,0,D,26,5.6,9.325,11.827,13.912,13.915,0,0,2.66333124739176,0.802080627701065,0.450924975282289
2,22071401,3,Low,10,Vague,1,32,35,7,4.1,5.1,0,35,32,7,5.1,4.1,0,2,2.215,0,L,35,5.1,14.419,15.001,17.216,17.218,0,0,1.05039675043925,0.871779788708135,0
2,22071401,4,Low,10,Precise,0,34,33,28,6.2,6.6,3.9,34,33,28,6.2,6.6,3.9,1,1.038,0.001,L,34,6.2,17.722,20.378,21.416,21.419,0,1,1.45028732785381,0.802080627701065,0.871779788708135
2,22071401,5,Low,10,Vague,1,35,26,2,5.1,5.6,0,35,2,26,5.1,0,5.6,1,1.572,0.001,L,35,5.1,21.922,23.532,25.104,25.108,0,0,0.871779788708135,2.66333124739176,0
2,22071401,6,Low,10,Vague,1,32,34,13,4.1,6.2,2.8,34,13,32,6.2,2.8,4.1,1,2.33,0,R,32,4.1,25.614,27.757,30.088,30.091,0,0,1.05039675043925,1.45028732785381,0.450924975282289
2,22071401,7,Low,10,Precise,0,26,33,19,5.6,6.6,0,26,19,33,5.6,0,6.6,2,1.704,0.001,R,33,6.6,30.593,32.879,34.584,34.586,0,1,2.66333124739176,0.802080627701065,0
2,22071401,8,Low,10,Vague,1,32,26,13,4.1,5.6,2.8,26,13,32,5.6,2.8,4.1,2,1.131,0,L,26,5.6,35.089,37.045,38.176,38.178,0,0,1.05039675043925,2.66333124739176,0.450924975282289
2,22071401,9,Low,10,Precise,0,34,36,19,6.2,7.9,0,34,19,36,6.2,0,7.9,2,1.423,0,R,36,7.9,38.682,40.041,41.464,41.467,0,1,1.45028732785381,0.635085296108589,0
2,22071401,10,Low,10,Vague,1,35,26,7,5.1,5.6,0,26,35,7,5.6,5.1,0,1,1.486,0,D,35,5.1,41.97,43.282,44.768,44.77,0,0,0.871779788708135,2.66333124739176,0
2,22071401,11,Low,10,Vague,1,32,34,6,4.1,6.2,1.4,6,32,34,1.4,4.1,6.2,2,0.997,0,R,34,6.2,45.273,45.867,46.863,46.866,0,0,1.05039675043925,1.45028732785381,0.251661147842358
2,22071401,12,Low,10,Precise,0,32,36,19,4.1,7.9,0,32,19,36,4.1,0,7.9,2,1.577,0,R,36,7.9,47.368,48.999,50.575,50.578,0,1,1.05039675043925,0.635085296108589,0
2,22071401,13,Low,10,Precise,0,35,34,19,5.1,6.2,0,35,19,34,5.1,0,6.2,1,1.683,0,L,35,5.1,51.081,53.925,55.608,55.61,0,1,0.871779788708135,1.45028732785381,0
2,22071401,14,Low,10,Precise,0,33,36,23,6.6,7.9,0,23,33,36,0,6.6,7.9,2,1.256,0,R,36,7.9,56.113,57.999,59.255,59.258,0,1,0.802080627701065,0.635085296108589,0
2,22071401,15,Low,10,Vague,1,34,33,9,6.2,6.6,3.7,33,9,34,6.6,3.7,6.2,2,1.991,0,L,33,6.6,59.76,62.072,64.063,64.066,0,0,1.45028732785381,0.802080627701065,0.404145188432738
2,22071401,16,Low,10,Precise,0,34,33,24,6.2,6.6,2.2,24,34,33,2.2,6.2,6.6,2,1.376,0,R,33,6.6,64.569,66.992,68.368,68.37,0,1,1.45028732785381,0.802080627701065,0.416333199893227
2,22071401,17,Low,10,Vague,1,26,36,14,5.6,7.9,3.2,14,26,36,3.2,5.6,7.9,2,1.819,0.001,R,36,7.9,68.873,69.844,71.664,71.666,0,0,2.66333124739176,0.635085296108589,0.450924975282289
2,22071401,18,Low,10,Precise,0,26,36,19,5.6,7.9,0,26,36,19,5.6,7.9,0,2,1.444,0,D,36,7.9,72.169,74.227,75.672,75.674,0,1,2.66333124739176,0.635085296108589,0
2,22071401,19,Low,10,Vague,1,35,33,14,5.1,6.6,3.2,14,35,33,3.2,5.1,6.6,2,1.431,0,R,33,6.6,76.177,76.929,78.36,78.362,0,0,0.871779788708135,0.802080627701065,0.450924975282289
2,22071401,20,Low,10,Precise,0,35,36,19,5.1,7.9,0,19,36,35,0,7.9,5.1,2,1.194,0.001,D,36,7.9,78.865,80.278,81.472,81.474,0,1,0.871779788708135,0.635085296108589,0
2,22071401,21,Low,10,Precise,0,32,34,21,4.1,6.2,0,34,32,21,6.2,4.1,0,1,1.526,0.001,D,32,4.1,81.977,83.714,85.24,85.242,0,1,1.05039675043925,1.45028732785381,0
2,22071401,22,Low,10,Precise,0,35,36,29,5.1,7.9,3.5,35,36,29,5.1,7.9,3.5,2,1.588,0.001,D,36,7.9,85.746,87.876,89.464,89.466,0,1,0.871779788708135,0.635085296108589,0.346410161513776
2,22071401,23,Low,10,Vague,1,34,36,13,6.2,7.9,2.8,36,34,13,7.9,6.2,2.8,2,1.17,0,L,36,7.9,89.969,92.174,93.343,93.346,0,0,1.45028732785381,0.635085296108589,0.450924975282289
2,22071401,24,Low,10,Vague,1,33,36,13,6.6,7.9,2.8,36,13,33,7.9,2.8,6.6,2,1.098,0,L,36,7.9,93.849,96.422,97.52,97.522,0,0,0.802080627701065,0.635085296108589,0.450924975282289
2,22071401,25,Low,10,Precise,0,26,36,21,5.6,7.9,0,36,26,21,7.9,5.6,0,2,0.931,0,L,36,7.9,98.025,100.116,101.047,101.05,0,1,2.66333124739176,0.635085296108589,0
2,22071401,26,Low,10,Precise,0,26,36,29,5.6,7.9,3.5,29,36,26,3.5,7.9,5.6,2,1.573,0,D,36,7.9,101.552,104.475,106.048,106.05,0,1,2.66333124739176,0.635085296108589,0.346410161513776
2,22071401,27,Low,10,Vague,1,32,33,13,4.1,6.6,2.8,33,13,32,6.6,2.8,4.1,2,1.702,0,L,33,6.6,106.554,107.738,109.44,109.442,0,0,1.05039675043925,0.802080627701065,0.450924975282289
2,22071401,28,Low,10,Precise,0,35,34,24,5.1,6.2,2.2,24,35,34,2.2,5.1,6.2,1,1.672,0,D,35,5.1,109.945,111.143,112.816,112.818,0,1,0.871779788708135,1.45028732785381,0.416333199893227
2,22071401,29,Low,10,Precise,0,32,33,21,4.1,6.6,0,32,33,21,4.1,6.6,0,2,1.423,0,D,33,6.6,113.321,114.608,116.031,116.034,0,1,1.05039675043925,0.802080627701065,0
2,22071401,30,Low,10,Precise,0,35,36,24,5.1,7.9,2.2,36,24,35,7.9,2.2,5.1,2,0.93,0,L,36,7.9,116.536,118.286,119.216,119.218,0,1,0.871779788708135,0.635085296108589,0.416333199893227
2,22071401,31,Low,10,Precise,0,32,33,29,4.1,6.6,3.5,33,29,32,6.6,3.5,4.1,2,1.347,0,L,33,6.6,119.721,121.028,122.375,122.378,0,1,1.05039675043925,0.802080627701065,0.346410161513776
2,22071401,32,Low,10,Vague,1,32,36,9,4.1,7.9,3.7,9,32,36,3.7,4.1,7.9,2,1.308,0.001,R,36,7.9,122.881,124.676,125.984,125.986,0,0,1.05039675043925,0.635085296108589,0.404145188432738
2,22071401,33,Low,10,Vague,1,32,36,2,4.1,7.9,0,32,2,36,4.1,0,7.9,2,0.825,0.001,R,36,7.9,126.488,129.207,130.032,130.034,0,0,1.05039675043925,0.635085296108589,0
2,22071401,34,Low,10,Precise,0,33,36,24,6.6,7.9,2.2,24,36,33,2.2,7.9,6.6,2,0.965,0,D,36,7.9,130.537,131.243,132.207,132.21,0,1,0.802080627701065,0.635085296108589,0.416333199893227
2,22071401,35,Low,10,Vague,1,34,36,14,6.2,7.9,3.2,36,14,34,7.9,3.2,6.2,2,0.827,0,L,36,7.9,132.713,133.46,134.288,134.29,0,0,1.45028732785381,0.635085296108589,0.450924975282289
2,22071401,36,Low,10,Precise,0,26,34,29,5.6,6.2,3.5,34,29,26,6.2,3.5,5.6,1,1.95,0.001,R,26,5.6,134.793,135.362,137.312,137.314,0,1,2.66333124739176,1.45028732785381,0.346410161513776
2,22071401,37,Low,10,Precise,0,26,34,28,5.6,6.2,3.9,28,34,26,3.9,6.2,5.6,1,1.633,0,R,26,5.6,137.817,138.655,140.288,140.29,0,1,2.66333124739176,1.45028732785381,0.871779788708135
2,22071401,38,Low,10,Precise,0,26,36,23,5.6,7.9,0,23,36,26,0,7.9,5.6,2,1.203,0.001,D,36,7.9,140.793,142.876,144.08,144.082,0,1,2.66333124739176,0.635085296108589,0
2,22071401,39,Low,10,Vague,1,26,33,9,5.6,6.6,3.7,9,26,33,3.7,5.6,6.6,2,1.89,0.001,R,33,6.6,144.584,146.669,148.56,148.562,0,0,2.66333124739176,0.802080627701065,0.404145188432738
2,22071401,40,Low,10,Vague,1,35,33,9,5.1,6.6,3.7,9,35,33,3.7,5.1,6.6,2,2.377,0,R,33,6.6,149.065,151.847,154.224,154.226,0,0,0.871779788708135,0.802080627701065,0.404145188432738
2,22071401,41,Low,10,Precise,0,35,34,29,5.1,6.2,3.5,35,29,34,5.1,3.5,6.2,1,1.473,0.001,L,35,5.1,154.73,156.967,158.44,158.443,0,1,0.871779788708135,1.45028732785381,0.346410161513776
2,22071401,42,Low,10,Precise,0,32,36,28,4.1,7.9,3.9,28,32,36,3.9,4.1,7.9,2,1.268,0,R,36,7.9,158.946,161.092,162.359,162.362,0,1,1.05039675043925,0.635085296108589,0.871779788708135
2,22071401,43,Low,10,Vague,1,32,35,6,4.1,5.1,1.4,32,35,6,4.1,5.1,1.4,1,1.258,0,L,32,4.1,162.864,164.678,165.936,165.938,0,0,1.05039675043925,0.871779788708135,0.251661147842358
2,22071401,44,Low,10,Precise,0,26,33,28,5.6,6.6,3.9,26,28,33,5.6,3.9,6.6,2,1.761,0,R,33,6.6,166.441,168.287,170.048,170.05,0,1,2.66333124739176,0.802080627701065,0.871779788708135
2,22071401,45,Low,10,Precise,0,33,36,21,6.6,7.9,0,33,21,36,6.6,0,7.9,2,0.729,0.001,R,36,7.9,170.554,172.751,173.48,173.483,0,1,0.802080627701065,0.635085296108589,0
2,22071401,46,Low,10,Precise,0,34,33,21,6.2,6.6,0,21,33,34,0,6.6,6.2,2,1.564,0.001,D,33,6.6,173.985,174.548,176.112,176.114,0,1,1.45028732785381,0.802080627701065,0
2,22071401,47,Low,10,Precise,0,32,34,24,4.1,6.2,2.2,32,34,24,4.1,6.2,2.2,2,1.463,0,D,34,6.2,176.617,179.137,180.6,180.602,0,1,1.05039675043925,1.45028732785381,0.416333199893227
2,22071401,48,Low,10,Vague,1,26,34,6,5.6,6.2,1.4,34,6,26,6.2,1.4,5.6,1,1.697,0,R,26,5.6,181.106,183.95,185.647,185.65,0,0,2.66333124739176,1.45028732785381,0.251661147842358
2,22071401,49,Low,10,Precise,0,32,26,19,4.1,5.6,0,26,19,32,5.6,0,4.1,1,1.764,0,R,32,4.1,186.153,187.539,189.304,189.306,0,1,1.05039675043925,2.66333124739176,0
2,22071401,50,Low,10,Precise,0,32,35,21,4.1,5.1,0,21,35,32,0,5.1,4.1,2,1.498,0,D,35,5.1,189.809,192.718,194.216,194.218,0,1,1.05039675043925,0.871779788708135,0
2,22071401,51,Low,10,Vague,1,34,36,9,6.2,7.9,3.7,9,34,36,3.7,6.2,7.9,2,1.999,0,R,36,7.9,194.721,195.969,197.968,197.97,0,0,1.45028732785381,0.635085296108589,0.404145188432738
2,22071401,52,Low,10,Precise,0,32,34,23,4.1,6.2,0,32,34,23,4.1,6.2,0,1,2.455,0,L,32,4.1,198.472,201.04,203.495,203.498,0,1,1.05039675043925,1.45028732785381,0
2,22071401,53,Low,10,Precise,0,32,26,28,4.1,5.6,3.9,32,26,28,4.1,5.6,3.9,1,1.368,0,L,32,4.1,204.001,205.823,207.191,207.194,0,1,1.05039675043925,2.66333124739176,0.871779788708135
2,22071401,54,Low,10,Precise,0,34,36,21,6.2,7.9,0,34,21,36,6.2,0,7.9,2,0.892,0,R,36,7.9,207.698,209.876,210.768,210.77,0,1,1.45028732785381,0.635085296108589,0
2,22071401,55,Low,10,Precise,0,32,35,23,4.1,5.1,0,23,32,35,0,4.1,5.1,2,1.557,0,R,35,5.1,211.273,211.874,213.431,213.434,0,1,1.05039675043925,0.871779788708135,0
2,22071401,56,Low,10,Vague,1,26,33,7,5.6,6.6,0,26,33,7,5.6,6.6,0,2,1.859,0,D,33,6.6,213.937,215.109,216.968,216.97,0,0,2.66333124739176,0.802080627701065,0
2,22071401,57,Low,10,Precise,0,26,33,29,5.6,6.6,3.5,29,26,33,3.5,5.6,6.6,2,1.208,0,R,33,6.6,217.473,219.08,220.288,220.29,0,1,2.66333124739176,0.802080627701065,0.346410161513776
2,22071401,58,Low,10,Vague,1,35,36,6,5.1,7.9,1.4,6,35,36,1.4,5.1,7.9,2,0.812,0,R,36,7.9,220.793,223.643,224.455,224.458,0,0,0.871779788708135,0.635085296108589,0.251661147842358
2,22071401,59,Low,10,Vague,1,35,26,9,5.1,5.6,3.7,26,35,9,5.6,5.1,3.7,1,1.224,0,D,35,5.1,224.96,227.368,228.591,228.594,0,0,0.871779788708135,2.66333124739176,0.404145188432738
2,22071401,60,Low,10,Precise,0,34,33,29,6.2,6.6,3.5,33,34,29,6.6,6.2,3.5,2,1.971,0,L,33,6.6,229.096,229.684,231.655,231.658,0,1,1.45028732785381,0.802080627701065,0.346410161513776
2,22071401,61,Low,10,Precise,0,34,33,19,6.2,6.6,0,33,19,34,6.6,0,6.2,2,1.07,0.001,L,33,6.6,253.668,254.858,255.928,255.93,0,1,1.45028732785381,0.802080627701065,0
2,22071401,62,Low,10,Precise,0,32,34,28,4.1,6.2,3.9,28,32,34,3.9,4.1,6.2,1,1.829,0,D,32,4.1,256.433,258.267,260.096,260.099,0,1,1.05039675043925,1.45028732785381,0.871779788708135
2,22071401,63,Low,10,Vague,1,32,36,13,4.1,7.9,2.8,36,32,13,7.9,4.1,2.8,2,1.276,0,L,36,7.9,260.603,262.14,263.416,263.418,0,0,1.05039675043925,0.635085296108589,0.450924975282289
2,22071401,64,Low,10,Vague,1,32,33,2,4.1,6.6,0,33,2,32,6.6,0,4.1,2,0.953,0,L,33,6.6,263.921,266.463,267.415,267.418,0,0,1.05039675043925,0.802080627701065,0
2,22071401,65,Low,10,Precise,0,32,26,29,4.1,5.6,3.5,29,32,26,3.5,4.1,5.6,2,1.675,0,R,26,5.6,267.92,269.956,271.631,271.634,0,1,1.05039675043925,2.66333124739176,0.346410161513776
2,22071401,66,Low,10,Vague,1,32,33,7,4.1,6.6,0,7,32,33,0,4.1,6.6,2,2.088,0.001,R,33,6.6,272.137,275.063,277.152,277.154,0,0,1.05039675043925,0.802080627701065,0
2,22071401,67,Low,10,Vague,1,35,33,7,5.1,6.6,0,35,7,33,5.1,0,6.6,2,1.025,0.001,R,33,6.6,277.658,280.287,281.312,281.314,0,0,0.871779788708135,0.802080627701065,0
2,22071401,68,Low,10,Vague,1,34,33,13,6.2,6.6,2.8,13,33,34,2.8,6.6,6.2,2,1.518,0,D,33,6.6,281.817,283.994,285.512,285.514,0,0,1.45028732785381,0.802080627701065,0.450924975282289
2,22071401,69,Low,10,Precise,0,32,36,21,4.1,7.9,0,36,21,32,7.9,0,4.1,2,1.347,0,L,36,7.9,286.016,287.621,288.968,288.97,0,1,1.05039675043925,0.635085296108589,0
2,22071401,70,Low,10,Precise,0,26,34,21,5.6,6.2,0,34,21,26,6.2,0,5.6,1,1.69,0,R,26,5.6,289.473,290.558,292.247,292.25,0,1,2.66333124739176,1.45028732785381,0
2,22071401,71,Low,10,Precise,0,35,26,28,5.1,5.6,3.9,28,26,35,3.9,5.6,5.1,1,2.237,0,R,35,5.1,292.753,293.514,295.751,295.754,0,1,0.871779788708135,2.66333124739176,0.871779788708135
2,22071401,72,Low,10,Vague,1,32,35,2,4.1,5.1,0,2,32,35,0,4.1,5.1,2,1.202,0.001,R,35,5.1,296.256,296.941,298.144,298.146,0,0,1.05039675043925,0.871779788708135,0
2,22071401,73,Low,10,Precise,0,32,35,19,4.1,5.1,0,32,19,35,4.1,0,5.1,2,1.262,0,R,35,5.1,298.649,300.225,301.488,301.49,0,1,1.05039675043925,0.871779788708135,0
2,22071401,74,Low,10,Precise,0,34,36,23,6.2,7.9,0,23,36,34,0,7.9,6.2,2,0.977,0,D,36,7.9,301.992,302.487,303.463,303.466,0,1,1.45028732785381,0.635085296108589,0
2,22071401,75,Low,10,Precise,0,34,36,28,6.2,7.9,3.9,34,28,36,6.2,3.9,7.9,3,0.295,0,D,28,3.9,303.968,306.76,307.056,307.058,0,1,1.45028732785381,0.635085296108589,0.871779788708135
2,22071401,76,Low,10,Vague,1,26,34,2,5.6,6.2,0,26,34,2,5.6,6.2,0,1,1.311,0,L,26,5.6,307.561,308.337,309.647,309.65,0,0,2.66333124739176,1.45028732785381,0
2,22071401,77,Low,10,Vague,1,35,33,13,5.1,6.6,2.8,35,33,13,5.1,6.6,2.8,1,1.008,0,L,35,5.1,310.152,310.839,311.847,311.85,0,0,0.871779788708135,0.802080627701065,0.450924975282289
2,22071401,78,Low,10,Vague,1,35,26,14,5.1,5.6,3.2,14,26,35,3.2,5.6,5.1,1,1.078,0,R,35,5.1,312.352,313.625,314.703,314.706,0,0,0.871779788708135,2.66333124739176,0.450924975282289
2,22071401,79,Low,10,Precise,0,35,33,24,5.1,6.6,2.2,33,35,24,6.6,5.1,2.2,1,1.087,0,D,35,5.1,315.209,317.185,318.272,318.274,0,1,0.871779788708135,0.802080627701065,0.416333199893227
2,22071401,80,Low,10,Precise,0,26,33,23,5.6,6.6,0,33,23,26,6.6,0,5.6,2,1.52,0,L,33,6.6,318.776,319.703,321.223,321.226,0,1,2.66333124739176,0.802080627701065,0
2,22071401,81,Low,10,Precise,0,26,36,24,5.6,7.9,2.2,36,26,24,7.9,5.6,2.2,2,0.916,0,L,36,7.9,321.729,323.628,324.544,324.546,0,1,2.66333124739176,0.635085296108589,0.416333199893227
2,22071401,82,Low,10,Precise,0,26,34,24,5.6,6.2,2.2,34,26,24,6.2,5.6,2.2,1,1.661,0,D,26,5.6,325.048,325.867,327.528,327.53,0,1,2.66333124739176,1.45028732785381,0.416333199893227
2,22071401,83,Low,10,Vague,1,26,34,14,5.6,6.2,3.2,26,14,34,5.6,3.2,6.2,1,1.369,0,L,26,5.6,328.033,330.75,332.12,332.122,0,0,2.66333124739176,1.45028732785381,0.450924975282289
2,22071401,84,Low,10,Precise,0,35,26,23,5.1,5.6,0,23,35,26,0,5.1,5.6,1,1.173,0,D,35,5.1,332.625,334.891,336.064,336.066,0,1,0.871779788708135,2.66333124739176,0
2,22071401,85,Low,10,Vague,1,35,34,9,5.1,6.2,3.7,9,35,34,3.7,5.1,6.2,2,1.482,0,R,34,6.2,336.568,339.525,341.007,341.01,0,0,0.871779788708135,1.45028732785381,0.404145188432738
2,22071401,86,Low,10,Precise,0,32,35,29,4.1,5.1,3.5,35,32,29,5.1,4.1,3.5,2,1.502,0,L,35,5.1,341.513,342.369,343.872,343.874,0,1,1.05039675043925,0.871779788708135,0.346410161513776
2,22071401,87,Low,10,Vague,1,35,34,13,5.1,6.2,2.8,34,35,13,6.2,5.1,2.8,1,0.329,0.001,D,35,5.1,344.378,346.823,347.152,347.155,0,0,0.871779788708135,1.45028732785381,0.450924975282289
2,22071401,88,Low,10,Vague,1,32,33,6,4.1,6.6,1.4,33,6,32,6.6,1.4,4.1,2,1.495,0,L,33,6.6,347.658,349.441,350.936,350.938,0,0,1.05039675043925,0.802080627701065,0.251661147842358
2,22071401,89,Low,10,Vague,1,32,35,14,4.1,5.1,3.2,14,35,32,3.2,5.1,4.1,2,0.953,0,D,35,5.1,351.441,353.159,354.112,354.114,0,0,1.05039675043925,0.871779788708135,0.450924975282289
2,22071401,90,Low,10,Vague,1,33,36,9,6.6,7.9,3.7,33,9,36,6.6,3.7,7.9,2,0.977,0,R,36,7.9,354.617,357.175,358.151,358.154,0,0,0.802080627701065,0.635085296108589,0.404145188432738
2,22071401,91,Low,10,Vague,1,32,34,2,4.1,6.2,0,2,32,34,0,4.1,6.2,1,2.238,0.001,D,32,4.1,358.656,359.561,361.8,361.802,0,0,1.05039675043925,1.45028732785381,0
2,22071401,92,Low,10,Vague,1,33,36,2,6.6,7.9,0,36,33,2,7.9,6.6,0,2,1.002,0,L,36,7.9,362.304,363.301,364.303,364.306,0,0,0.802080627701065,0.635085296108589,0
2,22071401,93,Low,10,Precise,0,26,36,28,5.6,7.9,3.9,28,36,26,3.9,7.9,5.6,2,0.734,0.001,D,36,7.9,364.808,366.906,367.64,367.643,0,1,2.66333124739176,0.635085296108589,0.871779788708135
2,22071401,94,Low,10,Precise,0,32,26,24,4.1,5.6,2.2,32,26,24,4.1,5.6,2.2,2,1.392,0,D,26,5.6,368.146,370.695,372.088,372.09,0,1,1.05039675043925,2.66333124739176,0.416333199893227
2,22071401,95,Low,10,Vague,1,34,33,7,6.2,6.6,0,7,33,34,0,6.6,6.2,2,1.457,0,D,33,6.6,372.594,374.895,376.352,376.354,0,0,1.45028732785381,0.802080627701065,0
2,22071401,96,Low,10,Vague,1,26,36,2,5.6,7.9,0,26,2,36,5.6,0,7.9,2,0.821,0,R,36,7.9,376.857,379.01,379.831,379.834,0,0,2.66333124739176,0.635085296108589,0
2,22071401,97,Low,10,Precise,0,35,26,24,5.1,5.6,2.2,24,35,26,2.2,5.1,5.6,1,0.995,0.001,D,35,5.1,380.338,381.956,382.952,382.954,0,1,0.871779788708135,2.66333124739176,0.416333199893227
2,22071401,98,Low,10,Vague,1,35,36,2,5.1,7.9,0,36,35,2,7.9,5.1,0,1,0.822,0,D,35,5.1,383.456,384.081,384.904,384.906,0,0,0.871779788708135,0.635085296108589,0
2,22071401,99,Low,10,Vague,1,32,26,2,4.1,5.6,0,2,32,26,0,4.1,5.6,2,1.107,0,R,26,5.6,385.408,386.933,388.039,388.042,0,0,1.05039675043925,2.66333124739176,0
2,22071401,100,Low,10,Precise,0,35,34,23,5.1,6.2,0,23,34,35,0,6.2,5.1,1,1.097,0.001,R,35,5.1,388.544,390.071,391.168,391.17,0,1,0.871779788708135,1.45028732785381,0
2,22071401,101,Low,10,Vague,1,35,33,6,5.1,6.6,1.4,33,35,6,6.6,5.1,1.4,2,1.338,0.001,L,33,6.6,391.673,392.798,394.136,394.138,0,0,0.871779788708135,0.802080627701065,0.251661147842358
2,22071401,102,Low,10,Vague,1,35,26,6,5.1,5.6,1.4,26,6,35,5.6,1.4,5.1,1,2.412,0,R,35,5.1,394.64,396.124,398.536,398.538,0,0,0.871779788708135,2.66333124739176,0.251661147842358
2,22071401,103,Low,10,Vague,1,34,36,7,6.2,7.9,0,7,34,36,0,6.2,7.9,2,0.833,0,R,36,7.9,399.041,399.95,400.783,400.786,0,0,1.45028732785381,0.635085296108589,0
2,22071401,104,Low,10,Vague,1,33,36,14,6.6,7.9,3.2,33,14,36,6.6,3.2,7.9,2,0.652,0,R,36,7.9,401.288,402.076,402.728,402.73,0,0,0.802080627701065,0.635085296108589,0.450924975282289
2,22071401,105,Low,10,Vague,1,32,26,9,4.1,5.6,3.7,9,32,26,3.7,4.1,5.6,1,1.625,0,D,32,4.1,403.233,406.206,407.832,407.834,0,0,1.05039675043925,2.66333124739176,0.404145188432738
2,22071401,106,Low,10,Precise,0,26,34,23,5.6,6.2,0,23,26,34,0,5.6,6.2,1,0.936,0.001,D,26,5.6,408.337,411.168,412.104,412.106,0,1,2.66333124739176,1.45028732785381,0
2,22071401,107,Low,10,Vague,1,32,36,6,4.1,7.9,1.4,32,36,6,4.1,7.9,1.4,2,0.896,0,D,36,7.9,412.61,414.383,415.28,415.282,0,0,1.05039675043925,0.635085296108589,0.251661147842358
2,22071401,108,Low,10,Precise,0,32,33,24,4.1,6.6,2.2,32,24,33,4.1,2.2,6.6,2,1.548,0,R,33,6.6,415.785,418.196,419.744,419.746,0,1,1.05039675043925,0.802080627701065,0.416333199893227
2,22071401,109,Low,10,Precise,0,32,34,29,4.1,6.2,3.5,34,32,29,6.2,4.1,3.5,1,1.69,0,D,32,4.1,420.249,421.269,422.959,422.962,0,1,1.05039675043925,1.45028732785381,0.346410161513776
2,22071401,110,Low,10,Precise,0,34,36,24,6.2,7.9,2.2,36,24,34,7.9,2.2,6.2,2,0.835,0.001,L,36,7.9,423.465,424.613,425.448,425.45,0,1,1.45028732785381,0.635085296108589,0.416333199893227
2,22071401,111,Low,10,Precise,0,34,33,23,6.2,6.6,0,33,23,34,6.6,0,6.2,2,1.004,0,L,33,6.6,425.953,428.276,429.28,429.282,0,1,1.45028732785381,0.802080627701065,0
2,22071401,112,Low,10,Vague,1,34,36,2,6.2,7.9,0,2,36,34,0,7.9,6.2,2,0.932,0.001,D,36,7.9,429.784,431.788,432.72,432.722,0,0,1.45028732785381,0.635085296108589,0
2,22071401,113,Low,10,Precise,0,32,36,23,4.1,7.9,0,36,32,23,7.9,4.1,0,2,0.654,0,L,36,7.9,433.224,434.257,434.911,434.914,0,1,1.05039675043925,0.635085296108589,0
2,22071401,114,Low,10,Vague,1,32,35,13,4.1,5.1,2.8,35,13,32,5.1,2.8,4.1,2,1.024,0.001,L,35,5.1,435.416,437.848,438.872,438.874,0,0,1.05039675043925,0.871779788708135,0.450924975282289
2,22071401,115,Low,10,Vague,1,32,33,14,4.1,6.6,3.2,33,32,14,6.6,4.1,3.2,2,1.032,0,L,33,6.6,439.378,440.696,441.727,441.73,0,0,1.05039675043925,0.802080627701065,0.450924975282289
2,22071401,116,Low,10,Vague,1,32,36,7,4.1,7.9,0,32,36,7,4.1,7.9,0,2,1.04,0.001,D,36,7.9,442.233,444.239,445.28,445.282,0,0,1.05039675043925,0.635085296108589,0
2,22071401,117,Low,10,Precise,0,35,34,28,5.1,6.2,3.9,28,34,35,3.9,6.2,5.1,1,0.984,0.001,R,35,5.1,445.784,448.455,449.44,449.442,0,1,0.871779788708135,1.45028732785381,0.871779788708135
2,22071401,118,Low,10,Precise,0,35,26,29,5.1,5.6,3.5,29,35,26,3.5,5.1,5.6,1,1.497,0.001,D,35,5.1,449.945,451.958,453.456,453.458,0,1,0.871779788708135,2.66333124739176,0.346410161513776
2,22071401,119,Low,10,Vague,1,32,26,7,4.1,5.6,0,32,7,26,4.1,0,5.6,2,0.881,0,R,26,5.6,453.961,455.11,455.991,455.994,0,0,1.05039675043925,2.66333124739176,0
2,22071401,120,Low,10,Vague,1,26,34,13,5.6,6.2,2.8,34,13,26,6.2,2.8,5.6,1,1.521,0.001,R,26,5.6,456.497,457.007,458.528,458.53,0,0,2.66333124739176,1.45028732785381,0.450924975282289
2,22071401,121,Low,10,Vague,1,34,33,2,6.2,6.6,0,33,2,34,6.6,0,6.2,2,1.028,0,L,33,6.6,492.142,494.196,495.223,495.226,0,0,1.45028732785381,0.802080627701065,0
2,22071401,122,Low,10,Precise,0,26,34,19,5.6,6.2,0,34,19,26,6.2,0,5.6,1,1.062,0,R,26,5.6,495.729,497.489,498.551,498.554,0,1,2.66333124739176,1.45028732785381,0
2,22071401,123,Low,10,Precise,0,33,36,19,6.6,7.9,0,19,33,36,0,6.6,7.9,2,0.742,0,R,36,7.9,499.057,499.841,500.583,500.586,0,1,0.802080627701065,0.635085296108589,0
2,22071401,124,Low,10,Vague,1,32,34,7,4.1,6.2,0,7,34,32,0,6.2,4.1,1,1.706,0,R,32,4.1,501.088,502.333,504.039,504.042,0,0,1.05039675043925,1.45028732785381,0
2,22071401,125,Low,10,Vague,1,26,34,9,5.6,6.2,3.7,9,26,34,3.7,5.6,6.2,1,1.344,0.001,D,26,5.6,504.545,505.224,506.567,506.57,0,0,2.66333124739176,1.45028732785381,0.404145188432738
2,22071401,126,Low,10,Vague,1,32,34,9,4.1,6.2,3.7,34,32,9,6.2,4.1,3.7,1,1.552,0.001,D,32,4.1,507.073,508.711,510.263,510.266,0,0,1.05039675043925,1.45028732785381,0.404145188432738
2,22071401,127,Low,10,Precise,0,32,26,21,4.1,5.6,0,26,21,32,5.6,0,4.1,2,1.217,0.001,L,26,5.6,510.769,511.671,512.888,512.89,0,1,1.05039675043925,2.66333124739176,0
2,22071401,128,Low,10,Precise,0,35,33,29,5.1,6.6,3.5,29,33,35,3.5,6.6,5.1,2,1.325,0,D,33,6.6,513.392,516.154,517.479,517.482,0,1,0.871779788708135,0.802080627701065,0.346410161513776
2,22071401,129,Low,10,Precise,0,35,33,28,5.1,6.6,3.9,33,28,35,6.6,3.9,5.1,2,1.359,0,L,33,6.6,517.985,519.368,520.728,520.73,0,1,0.871779788708135,0.802080627701065,0.871779788708135
2,22071401,130,Low,10,Precise,0,32,33,28,4.1,6.6,3.9,32,33,28,4.1,6.6,3.9,2,1.311,0,D,33,6.6,521.233,523.073,524.383,524.386,0,1,1.05039675043925,0.802080627701065,0.871779788708135
2,22071401,131,Low,10,Precise,0,32,35,24,4.1,5.1,2.2,35,24,32,5.1,2.2,4.1,2,1.262,0,L,35,5.1,524.888,526.298,527.56,527.562,0,1,1.05039675043925,0.871779788708135,0.416333199893227
2,22071401,132,Low,10,Vague,1,26,36,9,5.6,7.9,3.7,9,26,36,3.7,5.6,7.9,2,1.064,0,R,36,7.9,528.065,529.567,530.631,530.634,0,0,2.66333124739176,0.635085296108589,0.404145188432738
2,22071401,133,Low,10,Precise,0,32,33,23,4.1,6.6,0,23,32,33,0,4.1,6.6,2,1.27,0,R,33,6.6,531.136,533.865,535.135,535.138,0,1,1.05039675043925,0.802080627701065,0
2,22071401,134,Low,10,Precise,0,32,36,24,4.1,7.9,2.2,24,36,32,2.2,7.9,4.1,2,1,0.001,D,36,7.9,535.64,536.351,537.352,537.355,0,1,1.05039675043925,0.635085296108589,0.416333199893227
2,22071401,135,Low,10,Precise,0,32,36,29,4.1,7.9,3.5,29,36,32,3.5,7.9,4.1,2,1.85,0,D,36,7.9,537.858,538.677,540.527,540.53,0,1,1.05039675043925,0.635085296108589,0.346410161513776
2,22071401,136,Low,10,Vague,1,32,26,6,4.1,5.6,1.4,26,6,32,5.6,1.4,4.1,2,1.69,0,L,26,5.6,541.033,542.021,543.712,543.714,0,0,1.05039675043925,2.66333124739176,0.251661147842358
2,22071401,137,Low,10,Vague,1,35,36,7,5.1,7.9,0,36,7,35,7.9,0,5.1,2,0.902,0.001,L,36,7.9,544.217,546.162,547.063,547.066,0,0,0.871779788708135,0.635085296108589,0
2,22071401,138,Low,10,Vague,1,32,26,14,4.1,5.6,3.2,32,26,14,4.1,5.6,3.2,2,1.151,0.001,D,26,5.6,547.568,550.193,551.344,551.346,0,0,1.05039675043925,2.66333124739176,0.450924975282289
2,22071401,139,Low,10,Precise,0,35,36,28,5.1,7.9,3.9,36,35,28,7.9,5.1,3.9,2,0.741,0,L,36,7.9,551.849,553.539,554.28,554.282,0,1,0.871779788708135,0.635085296108589,0.871779788708135
2,22071401,140,Low,10,Vague,1,35,34,7,5.1,6.2,0,7,34,35,0,6.2,5.1,1,1.076,0.001,R,35,5.1,554.784,556.307,557.383,557.386,0,0,0.871779788708135,1.45028732785381,0
2,22071401,141,Low,10,Precise,0,32,35,28,4.1,5.1,3.9,32,35,28,4.1,5.1,3.9,2,1.183,0.001,D,35,5.1,557.888,559.529,560.712,560.714,0,1,1.05039675043925,0.871779788708135,0.871779788708135
2,22071401,142,Low,10,Precise,0,33,36,28,6.6,7.9,3.9,28,36,33,3.9,7.9,6.6,2,1.076,0,D,36,7.9,561.216,561.851,562.927,562.93,0,1,0.802080627701065,0.635085296108589,0.871779788708135
2,22071401,143,Low,10,Vague,1,33,36,6,6.6,7.9,1.4,33,36,6,6.6,7.9,1.4,2,0.774,0.001,D,36,7.9,563.433,565.21,565.984,565.986,0,0,0.802080627701065,0.635085296108589,0.251661147842358
2,22071401,144,Low,10,Vague,1,26,36,6,5.6,7.9,1.4,6,26,36,1.4,5.6,7.9,2,1.291,0,R,36,7.9,566.489,569.004,570.295,570.298,0,0,2.66333124739176,0.635085296108589,0.251661147842358
2,22071401,145,Low,10,Vague,1,35,34,6,5.1,6.2,1.4,35,34,6,5.1,6.2,1.4,1,1.523,0,L,35,5.1,570.8,571.349,572.872,572.874,0,0,0.871779788708135,1.45028732785381,0.251661147842358
2,22071401,146,Low,10,Vague,1,35,26,13,5.1,5.6,2.8,13,26,35,2.8,5.6,5.1,1,1.536,0,R,35,5.1,573.377,576.136,577.672,577.674,0,0,0.871779788708135,2.66333124739176,0.450924975282289
2,22071401,147,Low,10,Vague,1,34,36,6,6.2,7.9,1.4,34,6,36,6.2,1.4,7.9,2,0.918,0.001,R,36,7.9,578.176,579.209,580.127,580.13,0,0,1.45028732785381,0.635085296108589,0.251661147842358
2,22071401,148,Low,10,Precise,0,35,33,21,5.1,6.6,0,21,35,33,0,5.1,6.6,2,1.442,0,R,33,6.6,580.633,582.445,583.887,583.89,0,1,0.871779788708135,0.802080627701065,0
2,22071401,149,Low,10,Vague,1,33,36,7,6.6,7.9,0,7,36,33,0,7.9,6.6,2,0.912,0,D,36,7.9,584.392,586.447,587.359,587.362,0,0,0.802080627701065,0.635085296108589,0
2,22071401,150,Low,10,Vague,1,35,36,9,5.1,7.9,3.7,9,36,35,3.7,7.9,5.1,2,1.373,0,D,36,7.9,587.865,590.683,592.055,592.058,0,0,0.871779788708135,0.635085296108589,0.404145188432738
2,22071401,151,Low,10,Vague,1,35,34,2,5.1,6.2,0,2,34,35,0,6.2,5.1,1,1.146,0,R,35,5.1,592.56,593.158,594.303,594.306,0,0,0.871779788708135,1.45028732785381,0
2,22071401,152,Low,10,Vague,1,35,36,14,5.1,7.9,3.2,36,14,35,7.9,3.2,5.1,2,2.232,0.001,L,36,7.9,594.809,596.087,598.32,598.322,0,0,0.871779788708135,0.635085296108589,0.450924975282289
2,22071401,153,Low,10,Vague,1,32,33,9,4.1,6.6,3.7,33,9,32,6.6,3.7,4.1,2,1.905,0,L,33,6.6,598.825,599.863,601.767,601.77,0,0,1.05039675043925,0.802080627701065,0.404145188432738
2,22071401,154,Low,10,Vague,1,32,34,14,4.1,6.2,3.2,14,34,32,3.2,6.2,4.1,2,0,3.363,D,34,6.2,602.272,605.13,605.13,605.142,0,0,1.05039675043925,1.45028732785381,0.450924975282289
2,22071401,155,Low,10,Precise,0,32,26,23,4.1,5.6,0,26,23,32,5.6,0,4.1,3,0,1.119,D,23,0,605.645,606.249,606.25,606.263,0,1,1.05039675043925,2.66333124739176,0
2,22071401,156,Low,10,Precise,0,35,33,19,5.1,6.6,0,35,19,33,5.1,0,6.6,1,0.882,0,L,35,5.1,606.767,609.702,610.583,610.586,0,1,0.871779788708135,0.802080627701065,0
2,22071401,157,Low,10,Vague,1,26,36,13,5.6,7.9,2.8,13,36,26,2.8,7.9,5.6,2,1.366,0,D,36,7.9,611.089,612.842,614.208,614.21,0,0,2.66333124739176,0.635085296108589,0.450924975282289
2,22071401,158,Low,10,Precise,0,34,36,29,6.2,7.9,3.5,34,36,29,6.2,7.9,3.5,2,0.943,0,D,36,7.9,614.712,616.36,617.303,617.306,0,1,1.45028732785381,0.635085296108589,0.346410161513776
2,22071401,159,Low,10,Precise,0,32,33,19,4.1,6.6,0,19,33,32,0,6.6,4.1,2,1.278,0,D,33,6.6,617.809,619.617,620.895,620.898,0,1,1.05039675043925,0.802080627701065,0
2,22071401,160,Low,10,Precise,0,35,33,23,5.1,6.6,0,35,23,33,5.1,0,6.6,1,1.136,0,L,35,5.1,621.4,623.191,624.327,624.33,0,1,0.871779788708135,0.802080627701065,0
2,22071401,161,Low,10,Precise,0,35,26,21,5.1,5.6,0,21,26,35,0,5.6,5.1,2,1.136,0.001,D,26,5.6,624.833,626.752,627.888,627.89,0,1,0.871779788708135,2.66333124739176,0
2,22071401,162,Low,10,Precise,0,26,33,24,5.6,6.6,2.2,33,24,26,6.6,2.2,5.6,2,1.175,0.001,L,33,6.6,628.393,629.84,631.015,631.018,0,1,2.66333124739176,0.802080627701065,0.416333199893227
2,22071401,163,Low,10,Vague,1,34,33,14,6.2,6.6,3.2,34,33,14,6.2,6.6,3.2,2,1.739,0.001,D,33,6.6,631.52,633.789,635.527,635.53,0,0,1.45028732785381,0.802080627701065,0.450924975282289
2,22071401,164,Low,10,Precise,0,35,36,21,5.1,7.9,0,21,35,36,0,5.1,7.9,2,0.706,0,R,36,7.9,636.033,638.75,639.455,639.458,0,1,0.871779788708135,0.635085296108589,0
2,22071401,165,Low,10,Vague,1,32,36,14,4.1,7.9,3.2,32,14,36,4.1,3.2,7.9,2,0.848,0.001,R,36,7.9,639.961,641.144,641.991,641.994,0,0,1.05039675043925,0.635085296108589,0.450924975282289
2,22071401,166,Low,10,Vague,1,26,34,7,5.6,6.2,0,34,26,7,6.2,5.6,0,1,1.388,0,D,26,5.6,642.496,644.107,645.495,645.498,0,0,2.66333124739176,1.45028732785381,0
2,22071401,167,Low,10,Vague,1,35,36,13,5.1,7.9,2.8,35,36,13,5.1,7.9,2.8,2,0.892,0,D,36,7.9,646.001,648.891,649.783,649.786,0,0,0.871779788708135,0.635085296108589,0.450924975282289
2,22071401,168,Low,10,Vague,1,35,34,14,5.1,6.2,3.2,35,14,34,5.1,3.2,6.2,1,1.698,0,L,35,5.1,650.289,650.933,652.631,652.633,0,0,0.871779788708135,1.45028732785381,0.450924975282289
2,22071401,169,Low,10,Vague,1,26,33,6,5.6,6.6,1.4,6,33,26,1.4,6.6,5.6,1,2.429,0,R,26,5.6,653.136,654.283,656.711,656.714,0,0,2.66333124739176,0.802080627701065,0.251661147842358
2,22071401,170,Low,10,Vague,1,35,33,2,5.1,6.6,0,2,35,33,0,5.1,6.6,1,1.562,0,D,35,5.1,657.216,659.709,661.272,661.274,0,0,0.871779788708135,0.802080627701065,0
2,22071401,171,Low,10,Precise,0,35,26,19,5.1,5.6,0,26,19,35,5.6,0,5.1,1,1.493,0,R,35,5.1,661.777,664.73,666.223,666.226,0,1,0.871779788708135,2.66333124739176,0
2,22071401,172,Low,10,Precise,0,32,34,19,4.1,6.2,0,32,19,34,4.1,0,6.2,2,1.922,0,R,34,6.2,666.728,668.677,670.599,670.602,0,1,1.05039675043925,1.45028732785381,0
2,22071401,173,Low,10,Vague,1,34,33,6,6.2,6.6,1.4,6,33,34,1.4,6.6,6.2,2,1.327,0,D,33,6.6,671.104,671.92,673.247,673.25,0,0,1.45028732785381,0.802080627701065,0.251661147842358
2,22071401,174,Low,10,Vague,1,26,33,2,5.6,6.6,0,26,33,2,5.6,6.6,0,2,1.954,0.001,D,33,6.6,673.753,674.613,676.567,676.57,0,0,2.66333124739176,0.802080627701065,0
2,22071401,175,Low,10,Vague,1,26,36,7,5.6,7.9,0,7,36,26,0,7.9,5.6,2,0.914,0,D,36,7.9,677.072,677.917,678.831,678.834,0,0,2.66333124739176,0.635085296108589,0
2,22071401,176,Low,10,Precise,0,26,33,21,5.6,6.6,0,21,33,26,0,6.6,5.6,1,1.838,0,R,26,5.6,679.338,681.898,683.735,683.738,0,1,2.66333124739176,0.802080627701065,0
2,22071401,177,Low,10,Vague,1,32,35,9,4.1,5.1,3.7,35,9,32,5.1,3.7,4.1,1,2.277,0,R,32,4.1,684.241,686.21,688.487,688.49,0,0,1.05039675043925,0.871779788708135,0.404145188432738
2,22071401,178,Low,10,Precise,0,33,36,29,6.6,7.9,3.5,36,33,29,7.9,6.6,3.5,2,1.842,0.001,L,36,7.9,688.993,690.118,691.959,691.962,0,1,0.802080627701065,0.635085296108589,0.346410161513776
2,22071401,179,Low,10,Precise,0,35,34,21,5.1,6.2,0,34,21,35,6.2,0,5.1,1,0.834,0,R,35,5.1,692.466,693.718,694.551,694.554,0,1,0.871779788708135,1.45028732785381,0
2,22071401,180,Low,10,Precise,0,35,36,23,5.1,7.9,0,23,35,36,0,5.1,7.9,2,1.347,0,R,36,7.9,695.058,697.268,698.615,698.618,0,1,0.871779788708135,0.635085296108589,0
2,22071401,181,High,1.5,Precise,0,26,36,22,5.6,7.9,0,22,26,36,0,5.6,7.9,2,0.669,0,R,36,7.9,748.557,751.474,752.143,752.146,0,1,2.66333124739176,0.635085296108589,0
2,22071401,182,High,1.5,Vague,1,34,33,4,6.2,6.6,3.6,34,33,4,6.2,6.6,3.6,2,1.25,0,D,33,6.6,752.649,754.862,756.111,756.114,0,0,1.45028732785381,0.802080627701065,0.458257569495584
2,22071401,183,High,1.5,Vague,1,33,36,11,6.6,7.9,3,36,11,33,7.9,3,6.6,2,0.699,0.001,L,36,7.9,756.617,757.893,758.592,758.594,0,0,0.802080627701065,0.635085296108589,0.577350269189626
2,22071401,184,High,1.5,Precise,0,26,36,31,5.6,7.9,3.9,31,26,36,3.9,5.6,7.9,2,0.726,0,R,36,7.9,759.097,760.473,761.199,761.201,0,1,2.66333124739176,0.635085296108589,0.529150262212918
2,22071401,185,High,1.5,Vague,1,35,36,4,5.1,7.9,3.6,35,36,4,5.1,7.9,3.6,2,0.911,0,D,36,7.9,761.705,763.8,764.711,764.714,0,0,0.871779788708135,0.635085296108589,0.458257569495584
2,22071401,186,High,1.5,Vague,1,26,34,1,5.6,6.2,0,26,1,34,5.6,0,6.2,1,1.058,0,L,26,5.6,765.216,766.381,767.439,767.442,0,0,2.66333124739176,1.45028732785381,0
2,22071401,187,High,1.5,Vague,1,26,33,11,5.6,6.6,3,11,26,33,3,5.6,6.6,2,0.936,0,R,33,6.6,767.944,769.279,770.215,770.217,0,0,2.66333124739176,0.802080627701065,0.577350269189626
2,22071401,188,High,1.5,Vague,1,32,34,5,4.1,6.2,0,32,34,5,4.1,6.2,0,1,1.262,0,L,32,4.1,770.72,773.105,774.367,774.37,0,0,1.05039675043925,1.45028732785381,0
2,22071401,189,High,1.5,Vague,1,35,34,3,5.1,6.2,1.5,35,34,3,5.1,6.2,1.5,1,1.021,0,L,35,5.1,774.872,777.154,778.175,778.178,0,0,0.871779788708135,1.45028732785381,0.251661147842358
2,22071401,190,High,1.5,Vague,1,32,36,3,4.1,7.9,1.5,36,3,32,7.9,1.5,4.1,2,0.786,0,L,36,7.9,778.681,780.973,781.759,781.762,0,0,1.05039675043925,0.635085296108589,0.251661147842358
2,22071401,191,High,1.5,Vague,1,35,26,3,5.1,5.6,1.5,26,35,3,5.6,5.1,1.5,1,1.158,0.001,D,35,5.1,782.265,784.233,785.391,785.394,0,0,0.871779788708135,2.66333124739176,0.251661147842358
2,22071401,192,High,1.5,Precise,0,35,33,27,5.1,6.6,0,33,27,35,6.6,0,5.1,1,0.893,0,R,35,5.1,785.896,787.435,788.327,788.33,0,1,0.871779788708135,0.802080627701065,0
2,22071401,194,High,1.5,Vague,1,26,34,8,5.6,6.2,0,26,8,34,5.6,0,6.2,1,0.962,0.001,L,26,5.6,792.933,793.558,794.519,794.523,0,0,2.66333124739176,1.45028732785381,0
2,22071401,195,High,1.5,Vague,1,35,34,11,5.1,6.2,3,35,34,11,5.1,6.2,3,1,0.882,0.001,L,35,5.1,795.027,796.349,797.231,797.234,0,0,0.871779788708135,1.45028732785381,0.577350269189626
2,22071401,196,High,1.5,Vague,1,35,26,11,5.1,5.6,3,26,35,11,5.6,5.1,3,1,0.793,0,D,35,5.1,797.737,799.871,800.663,800.666,0,0,0.871779788708135,2.66333124739176,0.577350269189626
2,22071401,197,High,1.5,Precise,0,32,36,20,4.1,7.9,0,20,36,32,0,7.9,4.1,2,0.937,0,D,36,7.9,801.169,801.991,802.927,802.93,0,1,1.05039675043925,0.635085296108589,0
2,22071401,198,High,1.5,Precise,0,35,36,30,5.1,7.9,3.7,30,35,36,3.7,5.1,7.9,2,0.717,0,R,36,7.9,803.432,805.01,805.727,805.73,0,1,0.871779788708135,0.635085296108589,1.02143689640297
2,22071401,199,High,1.5,Precise,0,34,33,30,6.2,6.6,3.7,34,30,33,6.2,3.7,6.6,1,0.846,0,L,34,6.2,806.233,807.449,808.295,808.298,0,1,1.45028732785381,0.802080627701065,1.02143689640297
2,22071401,200,High,1.5,Vague,1,34,36,8,6.2,7.9,0,8,34,36,0,6.2,7.9,2,0.712,0.001,R,36,7.9,808.801,811.344,812.055,812.058,0,0,1.45028732785381,0.635085296108589,0
2,22071401,201,High,1.5,Vague,1,26,36,1,5.6,7.9,0,1,36,26,0,7.9,5.6,2,0.785,0.001,D,36,7.9,812.56,813.902,814.687,814.69,0,0,2.66333124739176,0.635085296108589,0
2,22071401,202,High,1.5,Precise,0,32,33,22,4.1,6.6,0,33,32,22,6.6,4.1,0,1,0.728,0,D,32,4.1,815.193,816.487,817.215,817.218,0,1,1.05039675043925,0.802080627701065,0
2,22071401,203,High,1.5,Precise,0,35,33,30,5.1,6.6,3.7,35,30,33,5.1,3.7,6.6,2,0.761,0,R,33,6.6,817.721,818.31,819.071,819.074,0,1,0.871779788708135,0.802080627701065,1.02143689640297
2,22071401,204,High,1.5,Vague,1,35,36,8,5.1,7.9,0,36,35,8,7.9,5.1,0,2,0.679,0.001,L,36,7.9,819.576,821.744,822.423,822.426,0,0,0.871779788708135,0.635085296108589,0
2,22071401,205,High,1.5,Vague,1,26,36,3,5.6,7.9,1.5,36,3,26,7.9,1.5,5.6,2,0.566,0,L,36,7.9,822.928,825.217,825.783,825.786,0,0,2.66333124739176,0.635085296108589,0.251661147842358
2,22071401,206,High,1.5,Precise,0,35,26,22,5.1,5.6,0,22,26,35,0,5.6,5.1,2,0.875,0,D,26,5.6,826.288,828.789,829.663,829.666,0,1,0.871779788708135,2.66333124739176,0
2,22071401,207,High,1.5,Vague,1,32,36,4,4.1,7.9,3.6,32,36,4,4.1,7.9,3.6,2,0.851,0.001,D,36,7.9,830.169,833.045,833.895,833.898,0,0,1.05039675043925,0.635085296108589,0.458257569495584
2,22071401,208,High,1.5,Precise,0,32,35,20,4.1,5.1,0,20,32,35,0,4.1,5.1,2,0.995,0,R,35,5.1,834.401,835.98,836.975,836.978,0,1,1.05039675043925,0.871779788708135,0
2,22071401,209,High,1.5,Precise,0,26,36,20,5.6,7.9,0,26,20,36,5.6,0,7.9,2,0.674,0,R,36,7.9,837.48,839.109,839.783,839.786,0,1,2.66333124739176,0.635085296108589,0
2,22071401,210,High,1.5,Precise,0,34,33,22,6.2,6.6,0,34,33,22,6.2,6.6,0,2,1.008,0.001,D,33,6.6,840.289,843.151,844.159,844.162,0,1,1.45028732785381,0.802080627701065,0
2,22071401,211,High,1.5,Precise,0,32,35,31,4.1,5.1,3.9,31,32,35,3.9,4.1,5.1,1,0.929,0,D,32,4.1,844.666,846.502,847.431,847.434,0,1,1.05039675043925,0.871779788708135,0.529150262212918
2,22071401,212,High,1.5,Precise,0,35,33,20,5.1,6.6,0,20,35,33,0,5.1,6.6,1,0.677,0,D,35,5.1,847.936,849.706,850.383,850.386,0,1,0.871779788708135,0.802080627701065,0
2,22071401,213,High,1.5,Precise,0,32,34,27,4.1,6.2,0,27,34,32,0,6.2,4.1,1,1.129,0.001,R,32,4.1,850.888,851.638,852.767,852.77,0,1,1.05039675043925,1.45028732785381,0
2,22071401,214,High,1.5,Precise,0,32,26,20,4.1,5.6,0,32,26,20,4.1,5.6,0,1,0.637,0,L,32,4.1,853.273,853.978,854.615,854.618,0,1,1.05039675043925,2.66333124739176,0
2,22071401,215,High,1.5,Precise,0,32,34,20,4.1,6.2,0,32,34,20,4.1,6.2,0,1,0.653,0,L,32,4.1,855.12,856.098,856.751,856.754,0,1,1.05039675043925,1.45028732785381,0
2,22071401,216,High,1.5,Vague,1,35,34,1,5.1,6.2,0,35,1,34,5.1,0,6.2,1,0.794,0,L,35,5.1,857.257,857.798,858.591,858.594,0,0,0.871779788708135,1.45028732785381,0
2,22071401,217,High,1.5,Precise,0,26,34,25,5.6,6.2,2.2,26,34,25,5.6,6.2,2.2,2,0.995,0,D,34,6.2,859.096,859.62,860.615,860.618,0,1,2.66333124739176,1.45028732785381,0.3
2,22071401,218,High,1.5,Precise,0,33,36,22,6.6,7.9,0,22,36,33,0,7.9,6.6,2,0.729,0,D,36,7.9,861.12,863.631,864.359,864.362,0,1,0.802080627701065,0.635085296108589,0
2,22071401,219,High,1.5,Vague,1,34,33,5,6.2,6.6,0,33,34,5,6.6,6.2,0,1,1.047,0,D,34,6.2,864.865,865.44,866.487,866.49,0,0,1.45028732785381,0.802080627701065,0
2,22071401,220,High,1.5,Precise,0,34,33,27,6.2,6.6,0,27,33,34,0,6.6,6.2,2,1.054,0,D,33,6.6,866.993,868.617,869.671,869.673,0,1,1.45028732785381,0.802080627701065,0
2,22071401,221,High,1.5,Vague,1,33,36,4,6.6,7.9,3.6,36,4,33,7.9,3.6,6.6,2,0.793,0.001,L,36,7.9,870.177,871.43,872.223,872.226,0,0,0.802080627701065,0.635085296108589,0.458257569495584
2,22071401,222,High,1.5,Precise,0,34,36,25,6.2,7.9,2.2,25,34,36,2.2,6.2,7.9,2,0.782,0.001,R,36,7.9,872.729,874.13,874.911,874.914,0,1,1.45028732785381,0.635085296108589,0.3
2,22071401,223,High,1.5,Precise,0,35,33,25,5.1,6.6,2.2,33,25,35,6.6,2.2,5.1,1,1.047,0.001,R,35,5.1,875.417,877.472,878.519,878.522,0,1,0.871779788708135,0.802080627701065,0.3
2,22071401,224,High,1.5,Vague,1,35,33,8,5.1,6.6,0,35,33,8,5.1,6.6,0,1,0.639,0.001,L,35,5.1,879.025,880.856,881.495,881.498,0,0,0.871779788708135,0.802080627701065,0
2,22071401,225,High,1.5,Precise,0,35,26,31,5.1,5.6,3.9,26,31,35,5.6,3.9,5.1,1,1.127,0,R,35,5.1,882,884.168,885.295,885.298,0,1,0.871779788708135,2.66333124739176,0.529150262212918
2,22071401,226,High,1.5,Vague,1,32,35,3,4.1,5.1,1.5,35,32,3,5.1,4.1,1.5,2,0.588,0,L,35,5.1,885.8,888.643,889.231,889.234,0,0,1.05039675043925,0.871779788708135,0.251661147842358
2,22071401,227,High,1.5,Vague,1,35,36,11,5.1,7.9,3,11,35,36,3,5.1,7.9,1,0.803,0,D,35,5.1,889.736,891.868,892.671,892.674,0,0,0.871779788708135,0.635085296108589,0.577350269189626
2,22071401,228,High,1.5,Vague,1,34,36,1,6.2,7.9,0,36,1,34,7.9,0,6.2,2,0.628,0,L,36,7.9,893.176,895.675,896.303,896.305,0,0,1.45028732785381,0.635085296108589,0
2,22071401,229,High,1.5,Precise,0,32,33,30,4.1,6.6,3.7,32,30,33,4.1,3.7,6.6,1,1.178,0,L,32,4.1,896.809,898.653,899.831,899.834,0,1,1.05039675043925,0.802080627701065,1.02143689640297
2,22071401,230,High,1.5,Vague,1,32,35,1,4.1,5.1,0,35,32,1,5.1,4.1,0,1,0.601,0,D,32,4.1,900.336,902.431,903.031,903.034,0,0,1.05039675043925,0.871779788708135,0
2,22071401,231,High,1.5,Vague,1,35,26,8,5.1,5.6,0,26,8,35,5.6,0,5.1,1,1.029,0,R,35,5.1,903.536,904.73,905.759,905.762,0,0,0.871779788708135,2.66333124739176,0
2,22071401,232,High,1.5,Vague,1,33,36,8,6.6,7.9,0,36,33,8,7.9,6.6,0,1,0.276,0,D,33,6.6,906.265,908.987,909.263,909.266,0,0,0.802080627701065,0.635085296108589,0
2,22071401,233,High,1.5,Vague,1,35,36,1,5.1,7.9,0,36,35,1,7.9,5.1,0,2,0.576,0,L,36,7.9,909.768,912.48,913.055,913.058,0,0,0.871779788708135,0.635085296108589,0
2,22071401,234,High,1.5,Vague,1,35,34,5,5.1,6.2,0,5,35,34,0,5.1,6.2,1,0.922,0,D,35,5.1,913.56,916.349,917.271,917.274,0,0,0.871779788708135,1.45028732785381,0
2,22071401,235,High,1.5,Vague,1,32,33,3,4.1,6.6,1.5,3,32,33,1.5,4.1,6.6,1,0.852,0,D,32,4.1,917.776,920.459,921.311,921.313,0,0,1.05039675043925,0.802080627701065,0.251661147842358
2,22071401,236,High,1.5,Vague,1,32,34,3,4.1,6.2,1.5,34,3,32,6.2,1.5,4.1,1,1.024,0,R,32,4.1,921.816,922.727,923.751,923.754,0,0,1.05039675043925,1.45028732785381,0.251661147842358
2,22071401,237,High,1.5,Precise,0,26,33,30,5.6,6.6,3.7,33,26,30,6.6,5.6,3.7,2,1.11,0,L,33,6.6,924.256,926.329,927.439,927.442,0,1,2.66333124739176,0.802080627701065,1.02143689640297
2,22071401,238,High,1.5,Precise,0,32,33,27,4.1,6.6,0,33,27,32,6.6,0,4.1,2,0.775,0,L,33,6.6,927.944,930.489,931.263,931.266,0,1,1.05039675043925,0.802080627701065,0
2,22071401,239,High,1.5,Vague,1,26,34,5,5.6,6.2,0,5,34,26,0,6.2,5.6,1,1.183,0,R,26,5.6,931.768,933.808,934.991,934.994,0,0,2.66333124739176,1.45028732785381,0
2,22071401,240,High,1.5,Precise,0,26,36,25,5.6,7.9,2.2,25,26,36,2.2,5.6,7.9,2,0.652,0,R,36,7.9,935.497,937.539,938.191,938.194,0,1,2.66333124739176,0.635085296108589,0.3
2,22071401,241,High,1.5,Vague,1,35,26,1,5.1,5.6,0,26,35,1,5.6,5.1,0,2,0.785,0,L,26,5.6,964.192,966.615,967.399,967.402,0,0,0.871779788708135,2.66333124739176,0
2,22071401,242,High,1.5,Precise,0,35,34,25,5.1,6.2,2.2,25,34,35,2.2,6.2,5.1,1,0.85,0,R,35,5.1,967.904,970.581,971.431,971.434,0,1,0.871779788708135,1.45028732785381,0.3
2,22071401,243,High,1.5,Vague,1,35,33,5,5.1,6.6,0,33,5,35,6.6,0,5.1,1,0.866,0.001,R,35,5.1,971.936,973.373,974.239,974.242,0,0,0.871779788708135,0.802080627701065,0
2,22071401,244,High,1.5,Precise,0,35,26,30,5.1,5.6,3.7,35,26,30,5.1,5.6,3.7,1,0.634,0.001,L,35,5.1,974.745,977.237,977.871,977.874,0,1,0.871779788708135,2.66333124739176,1.02143689640297
2,22071401,245,High,1.5,Vague,1,35,33,1,5.1,6.6,0,33,35,1,6.6,5.1,0,1,0.858,0,D,35,5.1,978.377,980.533,981.391,981.394,0,0,0.871779788708135,0.802080627701065,0
2,22071401,246,High,1.5,Precise,0,32,33,20,4.1,6.6,0,20,32,33,0,4.1,6.6,2,1.136,0,R,33,6.6,981.897,984.751,985.887,985.89,0,1,1.05039675043925,0.802080627701065,0
2,22071401,247,High,1.5,Vague,1,26,33,1,5.6,6.6,0,1,26,33,0,5.6,6.6,2,0.742,0,R,33,6.6,986.393,987.209,987.951,987.953,0,0,2.66333124739176,0.802080627701065,0
2,22071401,248,High,1.5,Vague,1,32,34,11,4.1,6.2,3,34,11,32,6.2,3,4.1,1,1.286,0,R,32,4.1,988.456,990.449,991.735,991.738,0,0,1.05039675043925,1.45028732785381,0.577350269189626
2,22071401,249,High,1.5,Vague,1,32,33,4,4.1,6.6,3.6,32,33,4,4.1,6.6,3.6,2,1.172,0,D,33,6.6,992.24,993.659,994.831,994.834,0,0,1.05039675043925,0.802080627701065,0.458257569495584
2,22071401,250,High,1.5,Precise,0,26,36,30,5.6,7.9,3.7,30,26,36,3.7,5.6,7.9,2,0.766,0,R,36,7.9,995.337,997.697,998.463,998.465,0,1,2.66333124739176,0.635085296108589,1.02143689640297
2,22071401,251,High,1.5,Precise,0,32,35,22,4.1,5.1,0,35,22,32,5.1,0,4.1,2,1.018,0,L,35,5.1,998.969,1000.229,1001.247,1001.249,0,1,1.05039675043925,0.871779788708135,0
2,22071401,252,High,1.5,Vague,1,34,36,11,6.2,7.9,3,11,34,36,3,6.2,7.9,2,0.884,0,R,36,7.9,1001.752,1003.891,1004.775,1004.777,0,0,1.45028732785381,0.635085296108589,0.577350269189626
2,22071401,253,High,1.5,Vague,1,32,35,4,4.1,5.1,3.6,4,35,32,3.6,5.1,4.1,2,1.045,0.001,D,35,5.1,1005.281,1007.426,1008.471,1008.474,0,0,1.05039675043925,0.871779788708135,0.458257569495584
2,22071401,254,High,1.5,Precise,0,35,36,20,5.1,7.9,0,36,35,20,7.9,5.1,0,1,0.689,0,D,35,5.1,1008.977,1009.727,1010.415,1010.418,0,1,0.871779788708135,0.635085296108589,0
2,22071401,255,High,1.5,Vague,1,34,36,5,6.2,7.9,0,36,5,34,7.9,0,6.2,2,0.721,0,L,36,7.9,1010.92,1013.91,1014.631,1014.634,0,0,1.45028732785381,0.635085296108589,0
2,22071401,256,High,1.5,Precise,0,34,36,20,6.2,7.9,0,36,34,20,7.9,6.2,0,2,0.575,0,L,36,7.9,1015.136,1015.912,1016.487,1016.489,0,1,1.45028732785381,0.635085296108589,0
2,22071401,257,High,1.5,Vague,1,26,34,4,5.6,6.2,3.6,26,4,34,5.6,3.6,6.2,1,1.235,0,L,26,5.6,1016.992,1018.996,1020.231,1020.234,0,0,2.66333124739176,1.45028732785381,0.458257569495584
2,22071401,258,High,1.5,Vague,1,26,33,5,5.6,6.6,0,33,5,26,6.6,0,5.6,2,0.912,0.001,L,33,6.6,1020.737,1022.239,1023.151,1023.154,0,0,2.66333124739176,0.802080627701065,0
2,22071401,259,High,1.5,Precise,0,35,26,20,5.1,5.6,0,26,20,35,5.6,0,5.1,2,0.723,0,L,26,5.6,1023.656,1025.3,1026.023,1026.026,0,1,0.871779788708135,2.66333124739176,0
2,22071401,260,High,1.5,Precise,0,32,26,27,4.1,5.6,0,27,26,32,0,5.6,4.1,1,1.163,0,R,32,4.1,1026.528,1029.228,1030.391,1030.394,0,1,1.05039675043925,2.66333124739176,0
2,22071401,261,High,1.5,Precise,0,35,34,22,5.1,6.2,0,34,35,22,6.2,5.1,0,1,1.015,0,D,35,5.1,1030.897,1032.311,1033.327,1033.329,0,1,0.871779788708135,1.45028732785381,0
2,22071401,262,High,1.5,Precise,0,26,34,22,5.6,6.2,0,22,34,26,0,6.2,5.6,1,1.069,0,R,26,5.6,1033.832,1034.978,1036.047,1036.049,0,1,2.66333124739176,1.45028732785381,0
2,22071401,263,High,1.5,Vague,1,32,34,4,4.1,6.2,3.6,4,32,34,3.6,4.1,6.2,1,1.133,0,D,32,4.1,1036.553,1037.338,1038.471,1038.474,0,0,1.05039675043925,1.45028732785381,0.458257569495584
2,22071401,264,High,1.5,Vague,1,35,26,5,5.1,5.6,0,35,5,26,5.1,0,5.6,1,0.702,0,L,35,5.1,1038.977,1041.361,1042.063,1042.065,0,0,0.871779788708135,2.66333124739176,0
2,22071401,265,High,1.5,Precise,0,33,36,31,6.6,7.9,3.9,36,31,33,7.9,3.9,6.6,2,0.982,0,L,36,7.9,1042.568,1044.425,1045.407,1045.409,0,1,0.802080627701065,0.635085296108589,0.529150262212918
2,22071401,266,High,1.5,Precise,0,35,33,31,5.1,6.6,3.9,33,35,31,6.6,5.1,3.9,1,1.057,0.001,D,35,5.1,1045.912,1046.855,1047.911,1047.914,0,1,0.871779788708135,0.802080627701065,0.529150262212918
2,22071401,267,High,1.5,Vague,1,33,36,5,6.6,7.9,0,5,33,36,0,6.6,7.9,2,0.767,0,R,36,7.9,1048.417,1049.76,1050.527,1050.529,0,0,0.802080627701065,0.635085296108589,0
2,22071401,268,High,1.5,Precise,0,34,33,31,6.2,6.6,3.9,31,33,34,3.9,6.6,6.2,2,1.306,0,D,33,6.6,1051.032,1053.054,1054.359,1054.362,0,1,1.45028732785381,0.802080627701065,0.529150262212918
2,22071401,269,High,1.5,Precise,0,35,34,30,5.1,6.2,3.7,35,30,34,5.1,3.7,6.2,1,0.844,0,L,35,5.1,1054.864,1056.475,1057.319,1057.322,0,1,0.871779788708135,1.45028732785381,1.02143689640297
2,22071401,270,High,1.5,Precise,0,26,34,31,5.6,6.2,3.9,31,26,34,3.9,5.6,6.2,2,1.394,0.001,R,34,6.2,1057.825,1058.349,1059.743,1059.746,0,1,2.66333124739176,1.45028732785381,0.529150262212918
2,22071401,271,High,1.5,Precise,0,32,36,31,4.1,7.9,3.9,32,31,36,4.1,3.9,7.9,2,1.272,0,R,36,7.9,1060.249,1062.72,1063.991,1063.993,0,1,1.05039675043925,0.635085296108589,0.529150262212918
2,22071401,273,High,1.5,Precise,0,34,36,30,6.2,7.9,3.7,34,30,36,6.2,3.7,7.9,2,0.658,0,R,36,7.9,1068.94,1070.405,1071.063,1071.066,0,1,1.45028732785381,0.635085296108589,1.02143689640297
2,22071401,274,High,1.5,Vague,1,32,26,11,4.1,5.6,3,11,32,26,3,4.1,5.6,1,0.962,0,D,32,4.1,1071.568,1072.51,1073.471,1073.474,0,0,1.05039675043925,2.66333124739176,0.577350269189626
2,22071401,275,High,1.5,Precise,0,34,36,22,6.2,7.9,0,22,36,34,0,7.9,6.2,2,1.129,0,D,36,7.9,1073.976,1075.326,1076.455,1076.458,0,1,1.45028732785381,0.635085296108589,0
2,22071401,276,High,1.5,Precise,0,26,34,30,5.6,6.2,3.7,34,26,30,6.2,5.6,3.7,1,0.925,0,D,26,5.6,1076.961,1079.595,1080.519,1080.522,0,1,2.66333124739176,1.45028732785381,1.02143689640297
2,22071401,277,High,1.5,Precise,0,33,36,30,6.6,7.9,3.7,33,36,30,6.6,7.9,3.7,2,0.65,0,D,36,7.9,1081.025,1083.237,1083.887,1083.889,0,1,0.802080627701065,0.635085296108589,1.02143689640297
2,22071401,278,High,1.5,Vague,1,26,33,8,5.6,6.6,0,8,33,26,0,6.6,5.6,1,0.881,0,R,26,5.6,1084.393,1087.158,1088.039,1088.042,0,0,2.66333124739176,0.802080627701065,0
2,22071401,279,High,1.5,Vague,1,34,33,3,6.2,6.6,1.5,3,33,34,1.5,6.6,6.2,2,1.071,0.001,D,33,6.6,1088.545,1090.368,1091.439,1091.442,0,0,1.45028732785381,0.802080627701065,0.251661147842358
2,22071401,280,High,1.5,Vague,1,26,36,5,5.6,7.9,0,36,5,26,7.9,0,5.6,2,0.686,0,L,36,7.9,1091.944,1094.521,1095.207,1095.209,0,0,2.66333124739176,0.635085296108589,0
2,22071401,281,High,1.5,Precise,0,35,34,27,5.1,6.2,0,34,35,27,6.2,5.1,0,1,1.074,0.001,D,35,5.1,1095.712,1096.685,1097.759,1097.762,0,1,0.871779788708135,1.45028732785381,0
2,22071401,282,High,1.5,Precise,0,32,36,27,4.1,7.9,0,32,36,27,4.1,7.9,0,2,0.761,0,D,36,7.9,1098.265,1099.15,1099.911,1099.913,0,1,1.05039675043925,0.635085296108589,0
2,22071401,283,High,1.5,Precise,0,35,36,25,5.1,7.9,2.2,35,25,36,5.1,2.2,7.9,2,1.457,0,R,36,7.9,1100.416,1102.27,1103.727,1103.729,0,1,0.871779788708135,0.635085296108589,0.3
2,22071401,284,High,1.5,Vague,1,32,26,4,4.1,5.6,3.6,32,4,26,4.1,3.6,5.6,1,0.957,0.001,L,32,4.1,1104.232,1105.202,1106.159,1106.162,0,0,1.05039675043925,2.66333124739176,0.458257569495584
2,22071401,285,High,1.5,Vague,1,32,26,3,4.1,5.6,1.5,3,32,26,1.5,4.1,5.6,1,0.95,0.001,D,32,4.1,1106.665,1107.225,1108.175,1108.178,0,0,1.05039675043925,2.66333124739176,0.251661147842358
2,22071401,286,High,1.5,Vague,1,34,36,4,6.2,7.9,3.6,36,34,4,7.9,6.2,3.6,2,0.817,0.001,L,36,7.9,1108.68,1111.022,1111.839,1111.842,0,0,1.45028732785381,0.635085296108589,0.458257569495584
2,22071401,287,High,1.5,Vague,1,35,34,4,5.1,6.2,3.6,34,4,35,6.2,3.6,5.1,1,0.904,0,R,35,5.1,1112.345,1113.911,1114.815,1114.818,0,0,0.871779788708135,1.45028732785381,0.458257569495584
2,22071401,288,High,1.5,Precise,0,35,34,20,5.1,6.2,0,20,35,34,0,5.1,6.2,1,0.873,0,D,35,5.1,1115.32,1116.351,1117.223,1117.226,0,1,0.871779788708135,1.45028732785381,0
2,22071401,289,High,1.5,Precise,0,32,36,25,4.1,7.9,2.2,32,25,36,4.1,2.2,7.9,2,0.788,0,R,36,7.9,1117.729,1118.963,1119.751,1119.754,0,1,1.05039675043925,0.635085296108589,0.3
2,22071401,290,High,1.5,Vague,1,32,36,5,4.1,7.9,0,32,36,5,4.1,7.9,0,2,0.886,0,D,36,7.9,1120.256,1122.321,1123.207,1123.21,0,0,1.05039675043925,0.635085296108589,0
2,22071401,291,High,1.5,Vague,1,26,33,4,5.6,6.6,3.6,33,26,4,6.6,5.6,3.6,2,1.062,0.001,L,33,6.6,1123.713,1125.881,1126.943,1126.945,0,0,2.66333124739176,0.802080627701065,0.458257569495584
2,22071401,292,High,1.5,Vague,1,32,26,8,4.1,5.6,0,8,26,32,0,5.6,4.1,2,1.165,0.001,D,26,5.6,1127.448,1128.082,1129.247,1129.25,0,0,1.05039675043925,2.66333124739176,0
2,22071401,293,High,1.5,Precise,0,34,33,20,6.2,6.6,0,33,20,34,6.6,0,6.2,1,0.897,0.001,R,34,6.2,1129.752,1132.462,1133.359,1133.362,0,1,1.45028732785381,0.802080627701065,0
2,22071401,294,High,1.5,Precise,0,35,26,27,5.1,5.6,0,26,35,27,5.6,5.1,0,1,1.063,0,D,35,5.1,1133.865,1136.632,1137.695,1137.697,0,1,0.871779788708135,2.66333124739176,0
2,22071401,295,High,1.5,Vague,1,35,33,3,5.1,6.6,1.5,3,33,35,1.5,6.6,5.1,1,1.152,0,R,35,5.1,1138.2,1138.911,1140.063,1140.066,0,0,0.871779788708135,0.802080627701065,0.251661147842358
2,22071401,296,High,1.5,Precise,0,33,36,20,6.6,7.9,0,33,20,36,6.6,0,7.9,2,1.284,0,R,36,7.9,1140.569,1142.547,1143.831,1143.833,0,1,0.802080627701065,0.635085296108589,0
2,22071401,297,High,1.5,Vague,1,33,36,3,6.6,7.9,1.5,33,36,3,6.6,7.9,1.5,2,0.763,0,D,36,7.9,1144.336,1144.876,1145.639,1145.641,0,0,0.802080627701065,0.635085296108589,0.251661147842358
2,22071401,298,High,1.5,Vague,1,33,36,1,6.6,7.9,0,36,33,1,7.9,6.6,0,2,0.724,0,L,36,7.9,1146.145,1146.755,1147.479,1147.482,0,0,0.802080627701065,0.635085296108589,0
2,22071401,299,High,1.5,Vague,1,32,33,8,4.1,6.6,0,33,8,32,6.6,0,4.1,1,1.091,0,R,32,4.1,1147.984,1149.524,1150.615,1150.618,0,0,1.05039675043925,0.802080627701065,0
2,22071401,300,High,1.5,Vague,1,35,34,8,5.1,6.2,0,8,34,35,0,6.2,5.1,1,1.027,0,R,35,5.1,1151.121,1153.892,1154.919,1154.922,0,0,0.871779788708135,1.45028732785381,0
2,22071401,301,High,1.5,Vague,1,32,35,8,4.1,5.1,0,32,8,35,4.1,0,5.1,1,0.986,0,L,32,4.1,1175.654,1176.709,1177.695,1177.698,0,0,1.05039675043925,0.871779788708135,0
2,22071401,302,High,1.5,Vague,1,32,26,5,4.1,5.6,0,26,5,32,5.6,0,4.1,1,1.038,0,R,32,4.1,1178.201,1179.321,1180.359,1180.362,0,0,1.05039675043925,2.66333124739176,0
2,22071401,303,High,1.5,Precise,0,32,26,30,4.1,5.6,3.7,32,26,30,4.1,5.6,3.7,1,0.716,0.001,L,32,4.1,1180.864,1181.563,1182.279,1182.282,0,1,1.05039675043925,2.66333124739176,1.02143689640297
2,22071401,304,High,1.5,Precise,0,32,36,22,4.1,7.9,0,32,22,36,4.1,0,7.9,2,0.61,0,R,36,7.9,1182.785,1183.853,1184.463,1184.465,0,1,1.05039675043925,0.635085296108589,0
2,22071401,305,High,1.5,Vague,1,35,33,11,5.1,6.6,3,35,11,33,5.1,3,6.6,1,0.91,0.001,L,35,5.1,1184.968,1187.073,1187.983,1187.986,0,0,0.871779788708135,0.802080627701065,0.577350269189626
2,22071401,306,High,1.5,Vague,1,32,34,1,4.1,6.2,0,32,34,1,4.1,6.2,0,2,0.824,0,D,34,6.2,1188.49,1189.583,1190.407,1190.41,0,0,1.05039675043925,1.45028732785381,0
2,22071401,307,High,1.5,Vague,1,32,34,8,4.1,6.2,0,8,32,34,0,4.1,6.2,1,0.816,0,D,32,4.1,1190.912,1191.783,1192.599,1192.602,0,0,1.05039675043925,1.45028732785381,0
2,22071401,308,High,1.5,Precise,0,26,33,31,5.6,6.6,3.9,26,33,31,5.6,6.6,3.9,1,0.949,0,L,26,5.6,1193.104,1195.603,1196.551,1196.553,0,1,2.66333124739176,0.802080627701065,0.529150262212918
2,22071401,309,High,1.5,Precise,0,32,35,25,4.1,5.1,2.2,35,25,32,5.1,2.2,4.1,1,0.785,0,R,32,4.1,1197.057,1199.039,1199.823,1199.826,0,1,1.05039675043925,0.871779788708135,0.3
2,22071401,310,High,1.5,Vague,1,32,33,1,4.1,6.6,0,1,32,33,0,4.1,6.6,2,1.242,0,R,33,6.6,1200.33,1201.917,1203.159,1203.162,0,0,1.05039675043925,0.802080627701065,0
2,22071401,311,High,1.5,Vague,1,32,36,8,4.1,7.9,0,36,32,8,7.9,4.1,0,2,1.131,0,L,36,7.9,1203.664,1204.244,1205.375,1205.378,0,0,1.05039675043925,0.635085296108589,0
2,22071401,312,High,1.5,Precise,0,34,36,31,6.2,7.9,3.9,31,34,36,3.9,6.2,7.9,2,0.629,0.001,R,36,7.9,1205.881,1208.53,1209.159,1209.162,0,1,1.45028732785381,0.635085296108589,0.529150262212918
2,22071401,313,High,1.5,Precise,0,35,26,25,5.1,5.6,2.2,25,26,35,2.2,5.6,5.1,1,0.903,0.001,R,35,5.1,1209.664,1211.2,1212.103,1212.106,0,1,0.871779788708135,2.66333124739176,0.3
2,22071401,314,High,1.5,Precise,0,33,36,25,6.6,7.9,2.2,33,25,36,6.6,2.2,7.9,2,0.681,0.001,R,36,7.9,1212.609,1213.286,1213.967,1213.969,0,1,0.802080627701065,0.635085296108589,0.3
2,22071401,315,High,1.5,Precise,0,33,36,27,6.6,7.9,0,33,27,36,6.6,0,7.9,2,0.669,0,R,36,7.9,1214.473,1217.234,1217.903,1217.906,0,1,0.802080627701065,0.635085296108589,0
2,22071401,316,High,1.5,Precise,0,26,33,27,5.6,6.6,0,26,27,33,5.6,0,6.6,2,1.091,0,R,33,6.6,1218.408,1220.956,1222.047,1222.049,0,1,2.66333124739176,0.802080627701065,0
2,22071401,317,High,1.5,Precise,0,32,33,25,4.1,6.6,2.2,25,33,32,2.2,6.6,4.1,2,0.745,0,D,33,6.6,1222.552,1223.263,1224.007,1224.01,0,1,1.05039675043925,0.802080627701065,0.3
2,22071401,318,High,1.5,Precise,0,26,36,27,5.6,7.9,0,27,26,36,0,5.6,7.9,2,0.617,0,R,36,7.9,1224.512,1226.685,1227.303,1227.305,0,1,2.66333124739176,0.635085296108589,0
2,22071401,319,High,1.5,Precise,0,32,36,30,4.1,7.9,3.7,30,36,32,3.7,7.9,4.1,2,0.953,0.001,D,36,7.9,1227.808,1228.862,1229.815,1229.817,0,1,1.05039675043925,0.635085296108589,1.02143689640297
2,22071401,320,High,1.5,Vague,1,32,26,1,4.1,5.6,0,1,26,32,0,5.6,4.1,2,0.875,0.001,D,26,5.6,1230.32,1233.101,1233.975,1233.978,0,0,1.05039675043925,2.66333124739176,0
2,22071401,322,High,1.5,Vague,1,34,33,8,6.2,6.6,0,8,34,33,0,6.2,6.6,2,1.046,0,R,33,6.6,1238.625,1240.041,1241.087,1241.09,0,0,1.45028732785381,0.802080627701065,0
2,22071401,323,High,1.5,Precise,0,32,34,31,4.1,6.2,3.9,32,31,34,4.1,3.9,6.2,1,1.286,0,L,32,4.1,1241.593,1242.426,1243.711,1243.714,0,1,1.05039675043925,1.45028732785381,0.529150262212918
2,22071401,324,High,1.5,Vague,1,32,35,5,4.1,5.1,0,32,35,5,4.1,5.1,0,1,0.758,0,L,32,4.1,1244.217,1246.224,1246.983,1246.986,0,0,1.05039675043925,0.871779788708135,0
2,22071401,325,High,1.5,Precise,0,32,26,25,4.1,5.6,2.2,25,26,32,2.2,5.6,4.1,1,0.653,0.001,R,32,4.1,1247.489,1248.891,1249.543,1249.546,0,1,1.05039675043925,2.66333124739176,0.3
2,22071401,326,High,1.5,Vague,1,26,36,8,5.6,7.9,0,26,36,8,5.6,7.9,0,2,1.084,0,D,36,7.9,1250.049,1252.611,1253.695,1253.698,0,0,2.66333124739176,0.635085296108589,0
2,22071401,327,High,1.5,Precise,0,26,34,20,5.6,6.2,0,20,26,34,0,5.6,6.2,1,0.921,0.001,D,26,5.6,1254.201,1255.382,1256.303,1256.305,0,1,2.66333124739176,1.45028732785381,0
2,22071401,328,High,1.5,Precise,0,35,34,31,5.1,6.2,3.9,31,35,34,3.9,5.1,6.2,1,1.094,0,D,35,5.1,1256.808,1259.177,1260.271,1260.273,0,1,0.871779788708135,1.45028732785381,0.529150262212918
2,22071401,329,High,1.5,Precise,0,32,34,30,4.1,6.2,3.7,30,34,32,3.7,6.2,4.1,1,0.808,0.001,R,32,4.1,1260.776,1262.855,1263.663,1263.666,0,1,1.05039675043925,1.45028732785381,1.02143689640297
2,22071401,330,High,1.5,Precise,0,35,33,22,5.1,6.6,0,33,35,22,6.6,5.1,0,2,0.88,0.001,L,33,6.6,1264.168,1265.503,1266.383,1266.386,0,1,0.871779788708135,0.802080627701065,0
2,22071401,331,High,1.5,Precise,0,32,34,25,4.1,6.2,2.2,34,25,32,6.2,2.2,4.1,2,0.836,0,L,34,6.2,1266.889,1269.859,1270.695,1270.698,0,1,1.05039675043925,1.45028732785381,0.3
2,22071401,332,High,1.5,Precise,0,34,33,25,6.2,6.6,2.2,25,33,34,2.2,6.6,6.2,2,0.744,0,D,33,6.6,1271.201,1274.047,1274.791,1274.794,0,1,1.45028732785381,0.802080627701065,0.3
2,22071401,333,High,1.5,Vague,1,34,36,3,6.2,7.9,1.5,34,3,36,6.2,1.5,7.9,2,1.161,0,R,36,7.9,1275.296,1277.077,1278.239,1278.241,0,0,1.45028732785381,0.635085296108589,0.251661147842358
2,22071401,334,High,1.5,Vague,1,26,36,11,5.6,7.9,3,36,26,11,7.9,5.6,3,2,0.694,0,L,36,7.9,1278.744,1279.569,1280.263,1280.265,0,0,2.66333124739176,0.635085296108589,0.577350269189626
2,22071401,335,High,1.5,Precise,0,26,33,20,5.6,6.6,0,33,20,26,6.6,0,5.6,1,0.814,0.001,R,26,5.6,1280.768,1281.921,1282.735,1282.738,0,1,2.66333124739176,0.802080627701065,0
2,22071401,336,High,1.5,Precise,0,32,33,31,4.1,6.6,3.9,32,31,33,4.1,3.9,6.6,3,0.357,0,D,31,3.9,1283.241,1285.994,1286.351,1286.353,0,1,1.05039675043925,0.802080627701065,0.529150262212918
2,22071401,337,High,1.5,Precise,0,35,36,27,5.1,7.9,0,35,36,27,5.1,7.9,0,3,0.807,0,R,27,0,1286.856,1289.656,1290.463,1290.466,0,1,0.871779788708135,0.635085296108589,0
2,22071401,338,High,1.5,Vague,1,26,36,4,5.6,7.9,3.6,4,36,26,3.6,7.9,5.6,2,0.57,0,D,36,7.9,1290.969,1293.501,1294.071,1294.073,0,0,2.66333124739176,0.635085296108589,0.458257569495584
2,22071401,339,High,1.5,Precise,0,35,36,22,5.1,7.9,0,36,22,35,7.9,0,5.1,2,0.745,0,L,36,7.9,1294.577,1296.597,1297.343,1297.345,0,1,0.871779788708135,0.635085296108589,0
2,22071401,340,High,1.5,Precise,0,32,35,30,4.1,5.1,3.7,30,35,32,3.7,5.1,4.1,2,1.081,0,D,35,5.1,1297.848,1298.926,1300.007,1300.009,0,1,1.05039675043925,0.871779788708135,1.02143689640297
2,22071401,341,High,1.5,Precise,0,35,36,31,5.1,7.9,3.9,35,36,31,5.1,7.9,3.9,2,0.571,0,D,36,7.9,1300.512,1302.972,1303.543,1303.545,0,1,0.871779788708135,0.635085296108589,0.529150262212918
2,22071401,342,High,1.5,Vague,1,34,33,11,6.2,6.6,3,33,11,34,6.6,3,6.2,2,1.284,0,L,33,6.6,1304.049,1305.187,1306.471,1306.473,0,0,1.45028732785381,0.802080627701065,0.577350269189626
2,22071401,343,High,1.5,Vague,1,32,36,11,4.1,7.9,3,36,11,32,7.9,3,4.1,2,0.656,0,L,36,7.9,1306.976,1307.991,1308.647,1308.65,0,0,1.05039675043925,0.635085296108589,0.577350269189626
2,22071401,344,High,1.5,Precise,0,26,34,27,5.6,6.2,0,34,26,27,6.2,5.6,0,1,0.909,0,D,26,5.6,1309.152,1310.963,1311.871,1311.874,0,1,2.66333124739176,1.45028732785381,0
2,22071401,345,High,1.5,Vague,1,26,33,3,5.6,6.6,1.5,3,33,26,1.5,6.6,5.6,2,1.111,0,D,33,6.6,1312.376,1313.984,1315.095,1315.098,0,0,2.66333124739176,0.802080627701065,0.251661147842358
2,22071401,346,High,1.5,Precise,0,26,33,22,5.6,6.6,0,26,33,22,5.6,6.6,0,1,0.803,0,L,26,5.6,1315.601,1317.396,1318.199,1318.201,0,1,2.66333124739176,0.802080627701065,0
2,22071401,347,High,1.5,Vague,1,35,33,4,5.1,6.6,3.6,4,33,35,3.6,6.6,5.1,2,0.749,0.001,D,33,6.6,1318.705,1321.051,1321.799,1321.801,0,0,0.871779788708135,0.802080627701065,0.458257569495584
2,22071401,348,High,1.5,Precise,0,26,33,25,5.6,6.6,2.2,26,33,25,5.6,6.6,2.2,2,1.33,0.001,D,33,6.6,1322.305,1324.334,1325.663,1325.666,0,1,2.66333124739176,0.802080627701065,0.3
2,22071401,349,High,1.5,Vague,1,32,33,11,4.1,6.6,3,32,33,11,4.1,6.6,3,2,1.243,0,D,33,6.6,1326.168,1328.444,1329.687,1329.689,0,0,1.05039675043925,0.802080627701065,0.577350269189626
2,22071401,350,High,1.5,Precise,0,32,26,31,4.1,5.6,3.9,32,26,31,4.1,5.6,3.9,1,1.009,0,L,32,4.1,1330.192,1332.245,1333.255,1333.257,0,1,1.05039675043925,2.66333124739176,0.529150262212918
2,22071401,351,High,1.5,Vague,1,34,33,1,6.2,6.6,0,33,1,34,6.6,0,6.2,2,0.98,0,L,33,6.6,1333.76,1334.411,1335.391,1335.393,0,0,1.45028732785381,0.802080627701065,0
2,22071401,352,High,1.5,Vague,1,32,36,1,4.1,7.9,0,36,32,1,7.9,4.1,0,2,0.903,0,L,36,7.9,1335.896,1338.416,1339.319,1339.322,0,0,1.05039675043925,0.635085296108589,0
2,22071401,353,High,1.5,Vague,1,35,36,3,5.1,7.9,1.5,35,36,3,5.1,7.9,1.5,2,0.623,0,D,36,7.9,1339.825,1342.328,1342.951,1342.953,0,0,0.871779788708135,0.635085296108589,0.251661147842358
2,22071401,354,High,1.5,Vague,1,35,36,5,5.1,7.9,0,36,35,5,7.9,5.1,0,2,0.765,0,L,36,7.9,1343.456,1344.146,1344.911,1344.913,0,0,0.871779788708135,0.635085296108589,0
2,22071401,355,High,1.5,Precise,0,32,26,22,4.1,5.6,0,32,22,26,4.1,0,5.6,1,0.827,0.001,L,32,4.1,1345.417,1347.564,1348.391,1348.393,0,1,1.05039675043925,2.66333124739176,0
2,22071401,356,High,1.5,Vague,1,26,34,11,5.6,6.2,3,11,26,34,3,5.6,6.2,1,1.12,0,D,26,5.6,1348.897,1350.887,1352.007,1352.01,0,0,2.66333124739176,1.45028732785381,0.577350269189626
2,22071401,357,High,1.5,Precise,0,32,35,27,4.1,5.1,0,27,35,32,0,5.1,4.1,1,1.036,0,R,32,4.1,1352.514,1355.003,1356.039,1356.042,0,1,1.05039675043925,0.871779788708135,0
2,22071401,358,High,1.5,Precise,0,34,36,27,6.2,7.9,0,34,27,36,6.2,0,7.9,2,0.825,0,R,36,7.9,1356.545,1357.062,1357.887,1357.889,0,1,1.45028732785381,0.635085296108589,0
2,22071401,359,High,1.5,Vague,1,26,34,3,5.6,6.2,1.5,26,34,3,5.6,6.2,1.5,1,1.076,0,L,26,5.6,1358.393,1359.139,1360.215,1360.217,0,0,2.66333124739176,1.45028732785381,0.251661147842358
2,22071402,1,High,1.5,Vague,1,30,34,7,52,89.7,11.2,7,34,30,11.2,89.7,52,2,0.739,0,D,34,89.7,7.818,9.806,10.546,10.55,0,0,5.4884727687521,0.288675134594813,0.737111479583199
2,22071402,2,High,1.5,Precise,0,35,34,25,64,89.7,25.4,25,35,34,25.4,64,89.7,2,0.834,0,R,34,89.7,11.053,13.015,13.85,13.853,0,1,5.58241285944827,0.288675134594813,4.15010040039194
2,22071402,3,High,1.5,Precise,0,26,33,25,67.3,82.1,25.4,33,26,25,82.1,67.3,25.4,1,0.814,0.001,D,26,67.3,14.358,16.708,17.522,17.525,0,1,10.5765463802384,5.69239258425957,4.15010040039194
2,22071402,4,High,1.5,Precise,0,36,33,31,47,82.1,18.7,31,33,36,18.7,82.1,47,2,0.791,0.001,D,33,82.1,18.028,20.507,21.298,21.301,0,1,22.0741930769847,5.69239258425957,3.83014360044111
2,22071402,5,High,1.5,Vague,1,36,26,18,47,67.3,43.2,18,36,26,43.2,47,67.3,2,0.749,0,R,26,67.3,21.805,23.533,24.282,24.286,0,0,22.0741930769847,10.5765463802384,6.48254065419827
2,22071402,6,High,1.5,Precise,0,33,34,28,82.1,89.7,33.1,28,33,34,33.1,82.1,89.7,2,0.678,0.001,R,34,89.7,24.791,26.02,26.698,26.701,0,1,5.69239258425957,0.288675134594813,0.85049005481154
2,22071402,7,High,1.5,Vague,1,30,33,1,52,82.1,7.1,30,1,33,52,7.1,82.1,3,0.662,0.001,D,1,7.1,27.204,29.597,30.258,30.261,0,0,5.4884727687521,5.69239258425957,2.05507501890645
2,22071402,8,High,1.5,Vague,1,36,33,1,47,82.1,7.1,33,1,36,82.1,7.1,47,2,0.876,0.001,L,33,82.1,30.764,31.678,32.554,32.557,0,0,22.0741930769847,5.69239258425957,2.05507501890645
2,22071402,9,High,1.5,Vague,1,30,34,5,52,89.7,40.7,30,5,34,52,40.7,89.7,2,0.547,0,R,34,89.7,33.06,35.798,36.346,36.348,0,0,5.4884727687521,0.288675134594813,8.72028287002969
2,22071402,10,High,1.5,Vague,1,26,34,9,67.3,89.7,21.6,26,9,34,67.3,21.6,89.7,2,0.517,0.001,R,34,89.7,36.851,37.997,38.514,38.517,0,0,10.5765463802384,0.288675134594813,0.230940107675849
2,22071402,11,High,1.5,Vague,1,30,35,18,52,64,43.2,35,30,18,64,52,43.2,2,0.737,0,L,35,64,39.019,41.113,41.85,41.853,0,0,5.4884727687521,5.58241285944827,6.48254065419827
2,22071402,12,High,1.5,Vague,1,35,33,2,64,82.1,2.6,33,35,2,82.1,64,2.6,1,0.904,0,D,35,64,42.355,43.97,44.874,44.877,0,0,5.58241285944827,5.69239258425957,0.611010092660779
2,22071402,13,High,1.5,Vague,1,30,34,9,52,89.7,21.6,30,9,34,52,21.6,89.7,2,0.482,0,R,34,89.7,45.379,47.097,47.578,47.58,0,0,5.4884727687521,0.288675134594813,0.230940107675849
2,22071402,14,High,1.5,Precise,0,36,35,20,47,64,1.7,36,20,35,47,1.7,64,1,0.647,0,L,36,47,48.083,49.867,50.514,50.516,0,1,22.0741930769847,5.58241285944827,0.346410161513776
2,22071402,15,High,1.5,Precise,0,36,33,24,47,82.1,22.4,36,33,24,47,82.1,22.4,1,0.527,0,L,36,47,51.019,53.498,54.026,54.029,0,1,22.0741930769847,5.69239258425957,2.72274371422162
2,22071402,16,High,1.5,Precise,0,26,34,20,67.3,89.7,1.7,20,26,34,1.7,67.3,89.7,2,0.469,0,R,34,89.7,54.532,56.413,56.882,56.884,0,1,10.5765463802384,0.288675134594813,0.346410161513776
2,22071402,17,High,1.5,Precise,0,35,33,28,64,82.1,33.1,28,33,35,33.1,82.1,64,3,0.675,0,L,28,33.1,57.387,59.399,60.074,60.077,0,1,5.58241285944827,5.69239258425957,0.85049005481154
2,22071402,18,High,1.5,Vague,1,36,34,7,47,89.7,11.2,7,34,36,11.2,89.7,47,2,0.815,0,D,34,89.7,60.579,61.979,62.794,62.797,0,0,22.0741930769847,0.288675134594813,0.737111479583199
2,22071402,19,High,1.5,Vague,1,35,34,2,64,89.7,2.6,2,34,35,2.6,89.7,64,2,0.566,0,D,34,89.7,63.299,64.508,65.074,65.076,0,0,5.58241285944827,0.288675134594813,0.611010092660779
2,22071402,20,High,1.5,Vague,1,36,35,5,47,64,40.7,35,36,5,64,47,40.7,3,0.727,0.001,R,5,40.7,65.579,66.468,67.194,67.198,0,0,22.0741930769847,5.58241285944827,8.72028287002969
2,22071402,21,High,1.5,Precise,0,36,26,24,47,67.3,22.4,24,36,26,22.4,47,67.3,2,0.721,0,R,26,67.3,67.7,70.225,70.946,70.948,0,1,22.0741930769847,10.5765463802384,2.72274371422162
2,22071402,22,High,1.5,Vague,1,36,26,9,47,67.3,21.6,26,9,36,67.3,21.6,47,2,0.565,0,L,26,67.3,71.451,73.845,74.41,74.413,0,0,22.0741930769847,10.5765463802384,0.230940107675849
2,22071402,23,High,1.5,Precise,0,35,26,25,64,67.3,25.4,26,35,25,67.3,64,25.4,2,0.51,0,L,26,67.3,74.915,75.948,76.458,76.46,0,1,5.58241285944827,10.5765463802384,4.15010040039194
2,22071402,24,High,1.5,Vague,1,36,33,7,47,82.1,11.2,7,36,33,11.2,47,82.1,1,0.782,0,D,36,47,76.963,79.628,80.41,80.412,0,0,22.0741930769847,5.69239258425957,0.737111479583199
2,22071402,25,High,1.5,Precise,0,36,30,28,47,52,33.1,36,30,28,47,52,33.1,1,0.626,0.001,L,36,47,80.915,81.544,82.17,82.172,0,1,22.0741930769847,5.4884727687521,0.85049005481154
2,22071402,26,High,1.5,Precise,0,36,30,20,47,52,1.7,36,30,20,47,52,1.7,1,0.481,0,L,36,47,82.675,83.833,84.314,84.316,0,1,22.0741930769847,5.4884727687521,0.346410161513776
2,22071402,27,High,1.5,Precise,0,36,33,28,47,82.1,33.1,28,36,33,33.1,47,82.1,1,0.783,0,D,36,47,84.819,85.419,86.202,86.204,0,1,22.0741930769847,5.69239258425957,0.85049005481154
2,22071402,28,High,1.5,Precise,0,35,34,28,64,89.7,33.1,28,35,34,33.1,64,89.7,2,0.549,0,R,34,89.7,86.707,87.261,87.81,87.812,0,1,5.58241285944827,0.288675134594813,0.85049005481154
2,22071402,29,High,1.5,Precise,0,30,33,20,52,82.1,1.7,33,30,20,82.1,52,1.7,2,0.65,0,L,33,82.1,88.315,90.944,91.594,91.596,0,1,5.4884727687521,5.69239258425957,0.346410161513776
2,22071402,30,High,1.5,Precise,0,36,30,23,47,52,2.7,36,30,23,47,52,2.7,1,0.54,0,L,36,47,92.099,94.222,94.762,94.764,0,1,22.0741930769847,5.4884727687521,0.577350269189626
2,22071402,31,High,1.5,Vague,1,36,34,2,47,89.7,2.6,36,34,2,47,89.7,2.6,1,0.514,0,L,36,47,95.267,97.536,98.05,98.052,0,0,22.0741930769847,0.288675134594813,0.611010092660779
2,22071402,32,High,1.5,Precise,0,35,33,24,64,82.1,22.4,35,33,24,64,82.1,22.4,2,0.952,0,D,33,82.1,98.555,101.378,102.33,102.332,0,1,5.58241285944827,5.69239258425957,2.72274371422162
2,22071402,33,High,1.5,Vague,1,30,26,1,52,67.3,7.1,30,1,26,52,7.1,67.3,2,0.817,0.001,R,26,67.3,102.835,104.129,104.946,104.949,0,0,5.4884727687521,10.5765463802384,2.05507501890645
2,22071402,34,High,1.5,Vague,1,30,26,2,52,67.3,2.6,2,30,26,2.6,52,67.3,2,0.616,0,R,26,67.3,105.451,106.393,107.01,107.012,0,0,5.4884727687521,10.5765463802384,0.611010092660779
2,22071402,35,High,1.5,Precise,0,36,26,23,47,67.3,2.7,23,36,26,2.7,47,67.3,2,0.828,0.001,R,26,67.3,107.515,108.142,108.97,108.973,0,1,22.0741930769847,10.5765463802384,0.577350269189626
2,22071402,36,High,1.5,Precise,0,35,34,24,64,89.7,22.4,35,24,34,64,22.4,89.7,2,0.439,0.001,R,34,89.7,109.475,112.051,112.49,112.492,0,1,5.58241285944827,0.288675134594813,2.72274371422162
2,22071402,37,High,1.5,Vague,1,36,26,2,47,67.3,2.6,2,26,36,2.6,67.3,47,2,0.93,0,D,26,67.3,112.995,115.016,115.946,115.948,0,0,22.0741930769847,10.5765463802384,0.611010092660779
2,22071402,38,High,1.5,Vague,1,26,34,7,67.3,89.7,11.2,34,7,26,89.7,11.2,67.3,2,0.601,0.001,L,34,89.7,116.45,118.273,118.874,118.877,0,0,10.5765463802384,0.288675134594813,0.737111479583199
2,22071402,39,High,1.5,Precise,0,36,35,28,47,64,33.1,28,36,35,33.1,47,64,1,0.577,0.001,D,36,47,119.379,122.001,122.578,122.58,0,1,22.0741930769847,5.58241285944827,0.85049005481154
2,22071402,40,High,1.5,Vague,1,33,34,5,82.1,89.7,40.7,34,5,33,89.7,40.7,82.1,2,0.488,0,L,34,89.7,123.083,125.705,126.194,126.196,0,0,5.69239258425957,0.288675134594813,8.72028287002969
2,22071402,41,High,1.5,Precise,0,36,35,31,47,64,18.7,36,35,31,47,64,18.7,1,0.481,0,L,36,47,126.699,127.656,128.138,128.14,0,1,22.0741930769847,5.58241285944827,3.83014360044111
2,22071402,42,High,1.5,Vague,1,36,33,18,47,82.1,43.2,18,33,36,43.2,82.1,47,1,0.538,0.001,R,36,47,128.643,131.336,131.874,131.876,0,0,22.0741930769847,5.69239258425957,6.48254065419827
2,22071402,43,High,1.5,Vague,1,30,26,5,52,67.3,40.7,26,30,5,67.3,52,40.7,2,0.55,0.001,L,26,67.3,132.379,135.324,135.874,135.876,0,0,5.4884727687521,10.5765463802384,8.72028287002969
2,22071402,44,High,1.5,Precise,0,36,34,24,47,89.7,22.4,24,36,34,22.4,47,89.7,2,0.455,0,R,34,89.7,136.379,137.324,137.778,137.78,0,1,22.0741930769847,0.288675134594813,2.72274371422162
2,22071402,45,High,1.5,Vague,1,36,35,7,47,64,11.2,7,36,35,11.2,47,64,1,0.548,0,D,36,47,138.283,140.862,141.41,141.412,0,0,22.0741930769847,5.58241285944827,0.737111479583199
2,22071402,46,High,1.5,Precise,0,30,26,23,52,67.3,2.7,23,26,30,2.7,67.3,52,2,0.545,0,D,26,67.3,141.915,144.257,144.802,144.804,0,1,5.4884727687521,10.5765463802384,0.577350269189626
2,22071402,47,High,1.5,Vague,1,35,33,7,64,82.1,11.2,33,35,7,82.1,64,11.2,3,0.692,0,R,7,11.2,145.307,147.622,148.314,148.316,0,0,5.58241285944827,5.69239258425957,0.737111479583199
2,22071402,48,High,1.5,Precise,0,35,26,31,64,67.3,18.7,35,31,26,64,18.7,67.3,2,0.513,0,R,26,67.3,148.819,151.368,151.882,151.884,0,1,5.58241285944827,10.5765463802384,3.83014360044111
2,22071402,49,High,1.5,Precise,0,33,34,31,82.1,89.7,18.7,33,31,34,82.1,18.7,89.7,2,0.504,0,R,34,89.7,152.386,155.106,155.61,155.612,0,1,5.69239258425957,0.288675134594813,3.83014360044111
2,22071402,50,High,1.5,Vague,1,35,34,5,64,89.7,40.7,34,35,5,89.7,64,40.7,2,0.468,0,L,34,89.7,156.115,158.446,158.914,158.916,0,0,5.58241285944827,0.288675134594813,8.72028287002969
2,22071402,51,High,1.5,Vague,1,36,33,9,47,82.1,21.6,36,9,33,47,21.6,82.1,1,0.758,0,L,36,47,159.419,160.092,160.85,160.852,0,0,22.0741930769847,5.69239258425957,0.230940107675849
2,22071402,52,High,1.5,Vague,1,35,34,18,64,89.7,43.2,18,35,34,43.2,64,89.7,2,0.475,0,R,34,89.7,161.354,163.815,164.29,164.292,0,0,5.58241285944827,0.288675134594813,6.48254065419827
2,22071402,53,High,1.5,Vague,1,30,34,18,52,89.7,43.2,18,34,30,43.2,89.7,52,2,0.572,0,D,34,89.7,164.795,166.862,167.434,167.436,0,0,5.4884727687521,0.288675134594813,6.48254065419827
2,22071402,54,High,1.5,Vague,1,33,34,9,82.1,89.7,21.6,33,9,34,82.1,21.6,89.7,2,0.436,0,R,34,89.7,167.939,170.342,170.778,170.78,0,0,5.69239258425957,0.288675134594813,0.230940107675849
2,22071402,55,High,1.5,Precise,0,36,34,23,47,89.7,2.7,34,23,36,89.7,2.7,47,2,0.448,0,L,34,89.7,171.283,173.482,173.93,173.932,0,1,22.0741930769847,0.288675134594813,0.577350269189626
2,22071402,56,High,1.5,Vague,1,26,33,18,67.3,82.1,43.2,18,33,26,43.2,82.1,67.3,1,0.562,0,R,26,67.3,174.435,175.92,176.482,176.484,0,0,10.5765463802384,5.69239258425957,6.48254065419827
2,22071402,57,High,1.5,Precise,0,36,26,20,47,67.3,1.7,26,36,20,67.3,47,1.7,2,0.499,0,L,26,67.3,176.987,178.159,178.658,178.66,0,1,22.0741930769847,10.5765463802384,0.346410161513776
2,22071402,58,High,1.5,Vague,1,26,33,7,67.3,82.1,11.2,7,33,26,11.2,82.1,67.3,1,0.404,0,R,26,67.3,179.163,181.318,181.722,181.724,0,0,10.5765463802384,5.69239258425957,0.737111479583199
2,22071402,59,High,1.5,Precise,0,26,33,31,67.3,82.1,18.7,31,26,33,18.7,67.3,82.1,1,0.706,0,D,26,67.3,182.227,183.223,183.93,183.932,0,1,10.5765463802384,5.69239258425957,3.83014360044111
2,22071402,60,High,1.5,Vague,1,36,34,5,47,89.7,40.7,34,5,36,89.7,40.7,47,2,0.461,0.001,L,34,89.7,184.435,185.749,186.21,186.212,0,0,22.0741930769847,0.288675134594813,8.72028287002969
2,22071402,61,High,1.5,Precise,0,30,34,31,52,89.7,18.7,34,31,30,89.7,18.7,52,2,0.662,0.001,L,34,89.7,205.074,206.924,207.586,207.588,0,1,5.4884727687521,0.288675134594813,3.83014360044111
2,22071402,62,High,1.5,Vague,1,26,33,1,67.3,82.1,7.1,1,33,26,7.1,82.1,67.3,1,0.662,0,R,26,67.3,208.092,210.124,210.786,210.788,0,0,10.5765463802384,5.69239258425957,2.05507501890645
2,22071402,63,High,1.5,Vague,1,26,33,5,67.3,82.1,40.7,5,33,26,40.7,82.1,67.3,1,0.506,0,R,26,67.3,211.291,213.624,214.13,214.132,0,0,10.5765463802384,5.69239258425957,8.72028287002969
2,22071402,64,High,1.5,Vague,1,30,26,7,52,67.3,11.2,30,7,26,52,11.2,67.3,2,0.485,0,R,26,67.3,214.635,217.533,218.018,218.02,0,0,5.4884727687521,10.5765463802384,0.737111479583199
2,22071402,65,High,1.5,Precise,0,33,34,20,82.1,89.7,1.7,33,20,34,82.1,1.7,89.7,2,0.413,0,R,34,89.7,218.523,221.445,221.858,221.86,0,1,5.69239258425957,0.288675134594813,0.346410161513776
2,22071402,66,High,1.5,Vague,1,36,26,1,47,67.3,7.1,26,36,1,67.3,47,7.1,2,0.664,0,L,26,67.3,222.363,222.881,223.546,223.548,0,0,22.0741930769847,10.5765463802384,2.05507501890645
2,22071402,67,High,1.5,Vague,1,30,33,9,52,82.1,21.6,9,30,33,21.6,52,82.1,3,0.779,0,L,9,21.6,224.051,225.375,226.154,226.156,0,0,5.4884727687521,5.69239258425957,0.230940107675849
2,22071402,68,High,1.5,Vague,1,36,26,5,47,67.3,40.7,26,36,5,67.3,47,40.7,2,0.584,0,L,26,67.3,226.659,227.369,227.954,227.956,0,0,22.0741930769847,10.5765463802384,8.72028287002969
2,22071402,69,High,1.5,Vague,1,26,33,9,67.3,82.1,21.6,26,9,33,67.3,21.6,82.1,1,0.419,0.001,L,26,67.3,228.459,231.231,231.65,231.652,0,0,10.5765463802384,5.69239258425957,0.230940107675849
2,22071402,70,High,1.5,Precise,0,36,30,31,47,52,18.7,36,31,30,47,18.7,52,1,0.476,0.001,L,36,47,232.155,235.062,235.538,235.54,0,1,22.0741930769847,5.4884727687521,3.83014360044111
2,22071402,71,High,1.5,Vague,1,26,34,18,67.3,89.7,43.2,18,34,26,43.2,89.7,67.3,2,0.576,0,D,34,89.7,236.043,238.473,239.05,239.052,0,0,10.5765463802384,0.288675134594813,6.48254065419827
2,22071402,72,High,1.5,Precise,0,36,30,24,47,52,22.4,36,24,30,47,22.4,52,1,0.474,0,L,36,47,239.554,240.968,241.442,241.444,0,1,22.0741930769847,5.4884727687521,2.72274371422162
2,22071402,73,High,1.5,Vague,1,26,34,5,67.3,89.7,40.7,34,5,26,89.7,40.7,67.3,2,0.455,0,L,34,89.7,241.947,244.371,244.826,244.828,0,0,10.5765463802384,0.288675134594813,8.72028287002969
2,22071402,74,High,1.5,Vague,1,35,26,18,64,67.3,43.2,18,35,26,43.2,64,67.3,2,0.487,0.001,R,26,67.3,245.331,247.267,247.754,247.756,0,0,5.58241285944827,10.5765463802384,6.48254065419827
2,22071402,75,High,1.5,Precise,0,35,26,20,64,67.3,1.7,20,26,35,1.7,67.3,64,2,0.654,0.001,D,26,67.3,248.259,251.148,251.802,251.805,0,1,5.58241285944827,10.5765463802384,0.346410161513776
2,22071402,76,High,1.5,Vague,1,36,30,9,47,52,21.6,36,9,30,47,21.6,52,1,0.471,0,L,36,47,252.307,254.171,254.642,254.644,0,0,22.0741930769847,5.4884727687521,0.230940107675849
2,22071402,77,High,1.5,Vague,1,35,34,1,64,89.7,7.1,1,34,35,7.1,89.7,64,2,0.514,0,D,34,89.7,255.147,255.784,256.298,256.3,0,0,5.58241285944827,0.288675134594813,2.05507501890645
2,22071402,78,High,1.5,Precise,0,30,35,25,52,64,25.4,30,25,35,52,25.4,64,1,0.441,0,L,30,52,256.803,258.657,259.098,259.1,0,1,5.4884727687521,5.58241285944827,4.15010040039194
2,22071402,79,High,1.5,Precise,0,36,35,23,47,64,2.7,35,23,36,64,2.7,47,1,0.655,0.001,R,36,47,259.602,262.043,262.698,262.7,0,1,22.0741930769847,5.58241285944827,0.577350269189626
2,22071402,80,High,1.5,Precise,0,26,34,25,67.3,89.7,25.4,34,26,25,89.7,67.3,25.4,2,0.451,0,L,34,89.7,263.203,264.775,265.226,265.228,0,1,10.5765463802384,0.288675134594813,4.15010040039194
2,22071402,81,High,1.5,Precise,0,26,34,23,67.3,89.7,2.7,23,34,26,2.7,89.7,67.3,2,0.531,0.001,D,34,89.7,265.731,267.751,268.282,268.284,0,1,10.5765463802384,0.288675134594813,0.577350269189626
2,22071402,82,High,1.5,Precise,0,36,34,28,47,89.7,33.1,28,34,36,33.1,89.7,47,2,0.524,0,D,34,89.7,268.788,271.398,271.922,271.924,0,1,22.0741930769847,0.288675134594813,0.85049005481154
2,22071402,83,High,1.5,Vague,1,35,34,9,64,89.7,21.6,34,35,9,89.7,64,21.6,2,0.518,0.001,L,34,89.7,272.427,274.9,275.418,275.42,0,0,5.58241285944827,0.288675134594813,0.230940107675849
2,22071402,84,High,1.5,Vague,1,26,33,2,67.3,82.1,2.6,2,26,33,2.6,67.3,82.1,3,1.126,0,L,2,2.6,275.923,276.419,277.546,277.548,0,0,10.5765463802384,5.69239258425957,0.611010092660779
2,22071402,85,High,1.5,Precise,0,36,30,25,47,52,25.4,36,30,25,47,52,25.4,1,0.552,0,L,36,47,278.05,278.658,279.21,279.212,0,1,22.0741930769847,5.4884727687521,4.15010040039194
2,22071402,86,High,1.5,Vague,1,30,33,2,52,82.1,2.6,2,33,30,2.6,82.1,52,3,0.576,0.001,L,2,2.6,279.715,282.681,283.258,283.26,0,0,5.4884727687521,5.69239258425957,0.611010092660779
2,22071402,87,High,1.5,Vague,1,36,33,5,47,82.1,40.7,33,36,5,82.1,47,40.7,1,0.677,0.001,D,36,47,283.763,285.397,286.074,286.077,0,0,22.0741930769847,5.69239258425957,8.72028287002969
2,22071402,88,High,1.5,Precise,0,30,26,20,52,67.3,1.7,20,26,30,1.7,67.3,52,2,0.631,0.001,D,26,67.3,286.579,287.419,288.05,288.052,0,1,5.4884727687521,10.5765463802384,0.346410161513776
2,22071402,89,High,1.5,Vague,1,26,34,2,67.3,89.7,2.6,34,26,2,89.7,67.3,2.6,2,0.464,0.001,L,34,89.7,288.555,290.282,290.746,290.749,0,0,10.5765463802384,0.288675134594813,0.611010092660779
2,22071402,90,High,1.5,Precise,0,30,35,23,52,64,2.7,35,30,23,64,52,2.7,1,0.656,0.001,D,30,52,291.251,292.666,293.322,293.324,0,1,5.4884727687521,5.58241285944827,0.577350269189626
2,22071402,91,High,1.5,Vague,1,30,35,9,52,64,21.6,35,30,9,64,52,21.6,1,0.846,0,D,30,52,293.827,294.388,295.234,295.236,0,0,5.4884727687521,5.58241285944827,0.230940107675849
2,22071402,92,High,1.5,Vague,1,30,35,2,52,64,2.6,2,35,30,2.6,64,52,3,0.492,0,L,2,2.6,295.739,297.758,298.25,298.252,0,0,5.4884727687521,5.58241285944827,0.611010092660779
2,22071402,93,High,1.5,Precise,0,36,33,23,47,82.1,2.7,36,23,33,47,2.7,82.1,1,0.515,0,L,36,47,298.755,300.863,301.378,301.38,0,1,22.0741930769847,5.69239258425957,0.577350269189626
2,22071402,94,High,1.5,Precise,0,35,26,28,64,67.3,33.1,26,35,28,67.3,64,33.1,2,0.428,0,L,26,67.3,301.883,303.517,303.946,303.948,0,1,5.58241285944827,10.5765463802384,0.85049005481154
2,22071402,95,High,1.5,Precise,0,30,26,24,52,67.3,22.4,30,26,24,52,67.3,22.4,2,0.556,0.001,D,26,67.3,304.451,306.414,306.97,306.972,0,1,5.4884727687521,10.5765463802384,2.72274371422162
2,22071402,96,High,1.5,Vague,1,36,34,1,47,89.7,7.1,34,1,36,89.7,7.1,47,2,0.522,0,L,34,89.7,307.475,308.799,309.322,309.324,0,0,22.0741930769847,0.288675134594813,2.05507501890645
2,22071402,97,High,1.5,Vague,1,30,35,1,52,64,7.1,30,1,35,52,7.1,64,3,0.894,0.001,D,1,7.1,309.826,310.724,311.618,311.62,0,0,5.4884727687521,5.58241285944827,2.05507501890645
2,22071402,98,High,1.5,Vague,1,35,26,1,64,67.3,7.1,26,35,1,67.3,64,7.1,2,0.532,0,L,26,67.3,312.123,314.877,315.409,315.412,0,0,5.58241285944827,10.5765463802384,2.05507501890645
2,22071402,99,High,1.5,Precise,0,36,35,25,47,64,25.4,25,35,36,25.4,64,47,1,0.779,0,R,36,47,315.914,317.031,317.81,317.812,0,1,22.0741930769847,5.58241285944827,4.15010040039194
2,22071402,100,High,1.5,Vague,1,30,33,18,52,82.1,43.2,30,33,18,52,82.1,43.2,2,0.762,0.001,D,33,82.1,318.315,319.776,320.538,320.54,0,0,5.4884727687521,5.69239258425957,6.48254065419827
2,22071402,101,High,1.5,Precise,0,35,34,20,64,89.7,1.7,20,35,34,1.7,64,89.7,2,0.511,0,R,34,89.7,321.043,322.995,323.505,323.508,0,1,5.58241285944827,0.288675134594813,0.346410161513776
2,22071402,102,High,1.5,Vague,1,36,34,9,47,89.7,21.6,9,34,36,21.6,89.7,47,3,0.699,0,L,9,21.6,324.011,326.855,327.554,327.556,0,0,22.0741930769847,0.288675134594813,0.230940107675849
2,22071402,103,High,1.5,Precise,0,36,34,25,47,89.7,25.4,36,25,34,47,25.4,89.7,2,0.535,0.001,R,34,89.7,328.058,328.731,329.266,329.268,0,1,22.0741930769847,0.288675134594813,4.15010040039194
2,22071402,104,High,1.5,Precise,0,36,33,25,47,82.1,25.4,33,25,36,82.1,25.4,47,3,0.643,0,D,25,25.4,329.771,332.303,332.946,332.948,0,1,22.0741930769847,5.69239258425957,4.15010040039194
2,22071402,105,High,1.5,Vague,1,30,35,7,52,64,11.2,35,7,30,64,11.2,52,3,0.704,0.001,D,7,11.2,333.45,334.01,334.714,334.716,0,0,5.4884727687521,5.58241285944827,0.737111479583199
2,22071402,106,High,1.5,Precise,0,33,34,23,82.1,89.7,2.7,34,33,23,89.7,82.1,2.7,2,0.432,0.001,L,34,89.7,335.219,337.122,337.554,337.556,0,1,5.69239258425957,0.288675134594813,0.577350269189626
2,22071402,107,High,1.5,Precise,0,30,34,25,52,89.7,25.4,25,34,30,25.4,89.7,52,2,0.548,0,D,34,89.7,338.059,338.974,339.522,339.524,0,1,5.4884727687521,0.288675134594813,4.15010040039194
2,22071402,108,High,1.5,Vague,1,35,26,2,64,67.3,2.6,26,2,35,67.3,2.6,64,2,0.738,0,L,26,67.3,340.027,341.311,342.05,342.052,0,0,5.58241285944827,10.5765463802384,0.611010092660779
2,22071402,109,High,1.5,Precise,0,35,33,31,64,82.1,18.7,35,33,31,64,82.1,18.7,3,0.58,0.001,R,31,18.7,342.555,344.11,344.69,344.692,0,1,5.58241285944827,5.69239258425957,3.83014360044111
2,22071402,110,High,1.5,Vague,1,36,30,5,47,52,40.7,5,30,36,40.7,52,47,1,0.43,0,R,36,47,345.195,346.156,346.586,346.588,0,0,22.0741930769847,5.4884727687521,8.72028287002969
2,22071402,111,High,1.5,Vague,1,36,33,2,47,82.1,2.6,36,33,2,47,82.1,2.6,1,0.522,0.001,L,36,47,347.091,348.096,348.618,348.62,0,0,22.0741930769847,5.69239258425957,0.611010092660779
2,22071402,112,High,1.5,Precise,0,30,35,20,52,64,1.7,30,35,20,52,64,1.7,2,0.717,0.001,D,35,64,349.122,349.989,350.706,350.709,0,1,5.4884727687521,5.58241285944827,0.346410161513776
2,22071402,113,High,1.5,Vague,1,30,35,5,52,64,40.7,30,35,5,52,64,40.7,2,0.637,0,D,35,64,351.211,354.149,354.786,354.788,0,0,5.4884727687521,5.58241285944827,8.72028287002969
2,22071402,114,High,1.5,Vague,1,35,33,18,64,82.1,43.2,35,33,18,64,82.1,43.2,1,0.782,0.001,L,35,64,355.291,355.884,356.666,356.668,0,0,5.58241285944827,5.69239258425957,6.48254065419827
2,22071402,115,High,1.5,Precise,0,30,35,24,52,64,22.4,35,24,30,64,22.4,52,3,0.665,0,D,24,22.4,357.171,360.064,360.73,360.732,0,1,5.4884727687521,5.58241285944827,2.72274371422162
2,22071402,116,High,1.5,Vague,1,30,34,1,52,89.7,7.1,34,1,30,89.7,7.1,52,2,0.557,0.001,L,34,89.7,361.235,362.157,362.714,362.717,0,0,5.4884727687521,0.288675134594813,2.05507501890645
2,22071402,117,High,1.5,Precise,0,36,35,24,47,64,22.4,35,24,36,64,22.4,47,1,0.636,0,R,36,47,363.22,365.07,365.706,365.708,0,1,22.0741930769847,5.58241285944827,2.72274371422162
2,22071402,118,High,1.5,Precise,0,36,33,20,47,82.1,1.7,33,36,20,82.1,47,1.7,1,0.563,0,D,36,47,366.21,368.727,369.29,369.292,0,1,22.0741930769847,5.69239258425957,0.346410161513776
2,22071402,119,High,1.5,Vague,1,35,26,9,64,67.3,21.6,26,35,9,67.3,64,21.6,2,0.535,0,L,26,67.3,369.795,371.827,372.361,372.364,0,0,5.58241285944827,10.5765463802384,0.230940107675849
2,22071402,120,High,1.5,Precise,0,30,35,31,52,64,18.7,35,30,31,64,52,18.7,1,0.587,0,D,30,52,372.866,375.086,375.674,375.676,0,1,5.4884727687521,5.58241285944827,3.83014360044111
2,22071402,121,High,1.5,Precise,0,35,26,24,64,67.3,22.4,24,35,26,22.4,64,67.3,2,0.52,0.001,R,26,67.3,381.803,383.994,384.514,384.517,0,1,5.58241285944827,10.5765463802384,2.72274371422162
2,22071402,122,High,1.5,Precise,0,26,33,28,67.3,82.1,33.1,28,26,33,33.1,67.3,82.1,1,0.686,0,D,26,67.3,385.019,387.467,388.154,388.157,0,1,10.5765463802384,5.69239258425957,0.85049005481154
2,22071402,123,High,1.5,Vague,1,35,34,7,64,89.7,11.2,34,7,35,89.7,11.2,64,2,0.442,0,L,34,89.7,388.659,391.023,391.466,391.468,0,0,5.58241285944827,0.288675134594813,0.737111479583199
2,22071402,124,High,1.5,Vague,1,36,35,9,47,64,21.6,9,35,36,21.6,64,47,1,0.582,0.001,R,36,47,391.971,392.604,393.186,393.188,0,0,22.0741930769847,5.58241285944827,0.230940107675849
2,22071402,125,High,1.5,Precise,0,30,33,24,52,82.1,22.4,30,33,24,52,82.1,22.4,1,0.646,0.001,L,30,52,393.691,394.652,395.298,395.3,0,1,5.4884727687521,5.69239258425957,2.72274371422162
2,22071402,126,High,1.5,Precise,0,26,33,23,67.3,82.1,2.7,23,26,33,2.7,67.3,82.1,1,0.668,0,D,26,67.3,395.803,398.15,398.818,398.82,0,1,10.5765463802384,5.69239258425957,0.577350269189626
2,22071402,127,High,1.5,Vague,1,33,34,18,82.1,89.7,43.2,34,33,18,89.7,82.1,43.2,2,0.552,0,L,34,89.7,399.323,401.354,401.906,401.908,0,0,5.69239258425957,0.288675134594813,6.48254065419827
2,22071402,128,High,1.5,Precise,0,33,34,25,82.1,89.7,25.4,34,33,25,89.7,82.1,25.4,2,0.406,0,L,34,89.7,402.411,405.147,405.553,405.556,0,1,5.69239258425957,0.288675134594813,4.15010040039194
2,22071402,129,High,1.5,Precise,0,26,34,24,67.3,89.7,22.4,24,26,34,22.4,67.3,89.7,2,0.488,0.001,R,34,89.7,406.058,406.754,407.242,407.244,0,1,10.5765463802384,0.288675134594813,2.72274371422162
2,22071402,130,High,1.5,Vague,1,33,34,7,82.1,89.7,11.2,7,34,33,11.2,89.7,82.1,2,0.508,0.001,D,34,89.7,407.747,409.846,410.354,410.356,0,0,5.69239258425957,0.288675134594813,0.737111479583199
2,22071402,131,High,1.5,Precise,0,36,26,25,47,67.3,25.4,36,26,25,47,67.3,25.4,1,0.606,0,L,36,47,410.859,411.476,412.082,412.084,0,1,22.0741930769847,10.5765463802384,4.15010040039194
2,22071402,132,High,1.5,Vague,1,35,33,1,64,82.1,7.1,1,33,35,7.1,82.1,64,2,0.646,0.001,D,33,82.1,412.586,415.388,416.034,416.036,0,0,5.58241285944827,5.69239258425957,2.05507501890645
2,22071402,133,High,1.5,Precise,0,30,35,28,52,64,33.1,28,30,35,33.1,52,64,1,0.58,0.001,D,30,52,416.539,417.558,418.138,418.14,0,1,5.4884727687521,5.58241285944827,0.85049005481154
2,22071402,134,High,1.5,Vague,1,30,34,2,52,89.7,2.6,2,34,30,2.6,89.7,52,2,0.552,0,D,34,89.7,418.643,420.202,420.754,420.756,0,0,5.4884727687521,0.288675134594813,0.611010092660779
2,22071402,135,High,1.5,Precise,0,30,33,25,52,82.1,25.4,33,25,30,82.1,25.4,52,1,0.635,0,R,30,52,421.258,422.735,423.37,423.372,0,1,5.4884727687521,5.69239258425957,4.15010040039194
2,22071402,136,High,1.5,Precise,0,30,26,25,52,67.3,25.4,26,30,25,67.3,52,25.4,2,0.602,0,L,26,67.3,423.875,426.72,427.322,427.324,0,1,5.4884727687521,10.5765463802384,4.15010040039194
2,22071402,137,High,1.5,Precise,0,35,26,23,64,67.3,2.7,23,35,26,2.7,64,67.3,1,0.653,0,D,35,64,427.827,428.605,429.258,429.26,0,1,5.58241285944827,10.5765463802384,0.577350269189626
2,22071402,138,High,1.5,Vague,1,30,33,7,52,82.1,11.2,30,33,7,52,82.1,11.2,3,0.577,0,R,7,11.2,429.763,431.864,432.442,432.444,0,0,5.4884727687521,5.69239258425957,0.737111479583199
2,22071402,139,High,1.5,Vague,1,30,26,18,52,67.3,43.2,18,26,30,43.2,67.3,52,2,0.755,0,D,26,67.3,432.947,434.366,435.122,435.124,0,0,5.4884727687521,10.5765463802384,6.48254065419827
2,22071402,140,High,1.5,Vague,1,26,34,1,67.3,89.7,7.1,1,26,34,7.1,67.3,89.7,2,0.58,0,R,34,89.7,435.627,437.437,438.018,438.02,0,0,10.5765463802384,0.288675134594813,2.05507501890645
2,22071402,141,High,1.5,Precise,0,36,26,31,47,67.3,18.7,26,31,36,67.3,18.7,47,2,0.611,0,L,26,67.3,438.522,439.167,439.778,439.78,0,1,22.0741930769847,10.5765463802384,3.83014360044111
2,22071402,142,High,1.5,Vague,1,33,34,2,82.1,89.7,2.6,34,33,2,89.7,82.1,2.6,2,0.452,0,L,34,89.7,440.283,442.582,443.034,443.036,0,0,5.69239258425957,0.288675134594813,0.611010092660779
2,22071402,143,High,1.5,Precise,0,35,33,25,64,82.1,25.4,25,35,33,25.4,64,82.1,1,0.843,0.001,D,35,64,443.538,445.439,446.282,446.284,0,1,5.58241285944827,5.69239258425957,4.15010040039194
2,22071402,144,High,1.5,Vague,1,35,26,7,64,67.3,11.2,35,26,7,64,67.3,11.2,2,0.731,0.001,D,26,67.3,446.787,449.551,450.282,450.284,0,0,5.58241285944827,10.5765463802384,0.737111479583199
2,22071402,145,High,1.5,Precise,0,26,34,28,67.3,89.7,33.1,34,26,28,89.7,67.3,33.1,2,0.613,0,L,34,89.7,450.787,453.62,454.233,454.236,0,1,10.5765463802384,0.288675134594813,0.85049005481154
2,22071402,146,High,1.5,Vague,1,36,30,2,47,52,2.6,2,30,36,2.6,52,47,2,0.796,0.001,D,30,52,454.738,457.334,458.13,458.132,0,0,22.0741930769847,5.4884727687521,0.611010092660779
2,22071402,147,High,1.5,Vague,1,30,26,9,52,67.3,21.6,26,9,30,67.3,21.6,52,2,0.586,0.001,L,26,67.3,458.635,460.472,461.058,461.06,0,0,5.4884727687521,10.5765463802384,0.230940107675849
2,22071402,148,High,1.5,Precise,0,30,34,23,52,89.7,2.7,34,30,23,89.7,52,2.7,2,0.571,0,L,34,89.7,461.564,462.071,462.642,462.644,0,1,5.4884727687521,0.288675134594813,0.577350269189626
2,22071402,149,High,1.5,Precise,0,26,33,24,67.3,82.1,22.4,24,26,33,22.4,67.3,82.1,3,0.557,0.001,L,24,22.4,463.147,464.324,464.882,464.884,0,1,10.5765463802384,5.69239258425957,2.72274371422162
2,22071402,150,High,1.5,Precise,0,26,34,31,67.3,89.7,18.7,26,34,31,67.3,89.7,18.7,2,0.523,0,D,34,89.7,465.387,466.023,466.546,466.548,0,1,10.5765463802384,0.288675134594813,3.83014360044111
2,22071402,151,High,1.5,Vague,1,36,34,18,47,89.7,43.2,34,36,18,89.7,47,43.2,2,0.464,0.001,L,34,89.7,467.051,468.25,468.714,468.716,0,0,22.0741930769847,0.288675134594813,6.48254065419827
2,22071402,152,High,1.5,Vague,1,36,35,2,47,64,2.6,2,35,36,2.6,64,47,2,0.767,0,D,35,64,469.219,470.867,471.634,471.636,0,0,22.0741930769847,5.58241285944827,0.611010092660779
2,22071402,153,High,1.5,Vague,1,36,30,18,47,52,43.2,30,36,18,52,47,43.2,1,0.589,0.001,D,36,47,472.139,473.029,473.618,473.62,0,0,22.0741930769847,5.4884727687521,6.48254065419827
2,22071402,154,High,1.5,Vague,1,36,35,18,47,64,43.2,35,18,36,64,43.2,47,1,0.744,0.001,R,36,47,474.123,474.666,475.41,475.412,0,0,22.0741930769847,5.58241285944827,6.48254065419827
2,22071402,155,High,1.5,Precise,0,35,33,20,64,82.1,1.7,33,20,35,82.1,1.7,64,3,0.759,0,D,20,1.7,475.915,477.331,478.089,478.092,0,1,5.58241285944827,5.69239258425957,0.346410161513776
2,22071402,156,High,1.5,Precise,0,33,34,24,82.1,89.7,22.4,24,33,34,22.4,82.1,89.7,2,0.577,0,R,34,89.7,478.595,480.977,481.553,481.556,0,1,5.69239258425957,0.288675134594813,2.72274371422162
2,22071402,157,High,1.5,Precise,0,30,34,20,52,89.7,1.7,34,30,20,89.7,52,1.7,2,0.668,0,L,34,89.7,482.058,482.597,483.265,483.268,0,1,5.4884727687521,0.288675134594813,0.346410161513776
2,22071402,158,High,1.5,Vague,1,36,30,1,47,52,7.1,1,30,36,7.1,52,47,1,0.599,0,R,36,47,483.77,486.483,487.082,487.084,0,0,22.0741930769847,5.4884727687521,2.05507501890645
2,22071402,159,High,1.5,Precise,0,26,33,20,67.3,82.1,1.7,26,33,20,67.3,82.1,1.7,1,0.529,0,L,26,67.3,487.587,489.304,489.833,489.836,0,1,10.5765463802384,5.69239258425957,0.346410161513776
2,22071402,160,High,1.5,Precise,0,30,33,23,52,82.1,2.7,23,30,33,2.7,52,82.1,1,0.686,0,D,30,52,490.338,493.075,493.762,493.764,0,1,5.4884727687521,5.69239258425957,0.577350269189626
2,22071402,161,High,1.5,Vague,1,35,26,5,64,67.3,40.7,35,5,26,64,40.7,67.3,2,0.67,0,R,26,67.3,494.267,494.867,495.537,495.54,0,0,5.58241285944827,10.5765463802384,8.72028287002969
2,22071402,162,High,1.5,Vague,1,36,26,7,47,67.3,11.2,7,26,36,11.2,67.3,47,1,0.715,0,R,36,47,496.043,498.886,499.602,499.604,0,0,22.0741930769847,10.5765463802384,0.737111479583199
2,22071402,163,High,1.5,Precise,0,30,34,24,52,89.7,22.4,34,30,24,89.7,52,22.4,2,0.488,0,L,34,89.7,500.106,503.057,503.546,503.548,0,1,5.4884727687521,0.288675134594813,2.72274371422162
2,22071402,164,High,1.5,Vague,1,30,33,5,52,82.1,40.7,30,33,5,52,82.1,40.7,3,0.499,0,R,5,40.7,504.051,505.566,506.065,506.068,0,0,5.4884727687521,5.69239258425957,8.72028287002969
2,22071402,165,High,1.5,Precise,0,30,26,31,52,67.3,18.7,26,31,30,67.3,18.7,52,2,0.443,0,L,26,67.3,506.572,507.911,508.354,508.356,0,1,5.4884727687521,10.5765463802384,3.83014360044111
2,22071402,166,High,1.5,Vague,1,36,35,1,47,64,7.1,1,35,36,7.1,64,47,1,0.526,0,R,36,47,508.859,510.619,511.145,511.148,0,0,22.0741930769847,5.58241285944827,2.05507501890645
2,22071402,167,High,1.5,Vague,1,36,30,7,47,52,11.2,7,36,30,11.2,47,52,1,0.757,0,D,36,47,511.65,514.621,515.378,515.38,0,0,22.0741930769847,5.4884727687521,0.737111479583199
2,22071402,168,High,1.5,Vague,1,35,33,5,64,82.1,40.7,35,33,5,64,82.1,40.7,3,0.754,0,R,5,40.7,515.882,517.632,518.386,518.388,0,0,5.58241285944827,5.69239258425957,8.72028287002969
2,22071402,169,High,1.5,Vague,1,35,33,9,64,82.1,21.6,33,35,9,82.1,64,21.6,3,0.509,0.001,R,9,21.6,518.891,520.516,521.026,521.028,0,0,5.58241285944827,5.69239258425957,0.230940107675849
2,22071402,170,High,1.5,Precise,0,35,34,23,64,89.7,2.7,23,34,35,2.7,89.7,64,2,0.476,0.001,D,34,89.7,521.531,523.342,523.818,523.82,0,1,5.58241285944827,0.288675134594813,0.577350269189626
2,22071402,171,High,1.5,Precise,0,30,33,31,52,82.1,18.7,30,31,33,52,18.7,82.1,3,0.614,0,D,31,18.7,524.323,525.644,526.258,526.26,0,1,5.4884727687521,5.69239258425957,3.83014360044111
2,22071402,172,High,1.5,Precise,0,30,34,28,52,89.7,33.1,28,34,30,33.1,89.7,52,2,0.498,0,D,34,89.7,526.763,528.12,528.618,528.62,0,1,5.4884727687521,0.288675134594813,0.85049005481154
2,22071402,173,High,1.5,Precise,0,35,33,23,64,82.1,2.7,35,23,33,64,2.7,82.1,2,0.668,0.001,R,33,82.1,529.123,530.133,530.802,530.804,0,1,5.58241285944827,5.69239258425957,0.577350269189626
2,22071402,174,High,1.5,Precise,0,36,34,31,47,89.7,18.7,31,34,36,18.7,89.7,47,2,0.45,0,D,34,89.7,531.307,534.023,534.474,534.476,0,1,22.0741930769847,0.288675134594813,3.83014360044111
2,22071402,175,High,1.5,Precise,0,35,34,31,64,89.7,18.7,31,35,34,18.7,64,89.7,2,0.566,0.001,R,34,89.7,534.978,537.452,538.018,538.02,0,1,5.58241285944827,0.288675134594813,3.83014360044111
2,22071402,176,High,1.5,Precise,0,36,26,28,47,67.3,33.1,26,36,28,67.3,47,33.1,1,0.598,0,D,36,47,538.523,541.06,541.657,541.66,0,1,22.0741930769847,10.5765463802384,0.85049005481154
2,22071402,177,High,1.5,Precise,0,36,34,20,47,89.7,1.7,36,34,20,47,89.7,1.7,3,0.488,0,R,20,1.7,542.163,543.866,544.354,544.356,0,1,22.0741930769847,0.288675134594813,0.346410161513776
2,22071402,178,High,1.5,Precise,0,30,26,28,52,67.3,33.1,26,30,28,67.3,52,33.1,2,0.687,0,L,26,67.3,544.859,546.458,547.145,547.148,0,1,5.4884727687521,10.5765463802384,0.85049005481154
2,22071402,179,High,1.5,Vague,1,33,34,1,82.1,89.7,7.1,1,34,33,7.1,89.7,82.1,2,0.455,0.001,D,34,89.7,547.651,548.995,549.45,549.452,0,0,5.69239258425957,0.288675134594813,2.05507501890645
2,22071402,180,High,1.5,Precise,0,30,33,28,52,82.1,33.1,30,33,28,52,82.1,33.1,3,0.766,0.001,R,28,33.1,549.955,552.772,553.538,553.54,0,1,5.4884727687521,5.69239258425957,0.85049005481154
2,22071402,181,Low,10,Vague,1,35,33,14,64,82.1,18,14,33,35,18,82.1,64,3,1.028,0.001,L,14,18,562.79,564.278,565.306,565.308,0,0,5.58241285944827,5.69239258425957,0.901849950564578
2,22071402,182,Low,10,Vague,1,26,33,11,67.3,82.1,23.9,33,11,26,82.1,23.9,67.3,1,0.652,0,R,26,67.3,565.811,567.853,568.506,568.508,0,0,10.5765463802384,5.69239258425957,2.11266025033211
2,22071402,183,Low,10,Precise,0,36,33,22,47,82.1,20.9,33,36,22,82.1,47,20.9,1,1.519,0.001,D,36,47,569.01,571.483,573.002,573.005,0,1,22.0741930769847,5.69239258425957,3.21455025366432
2,22071402,184,Low,10,Precise,0,26,33,22,67.3,82.1,20.9,26,33,22,67.3,82.1,20.9,1,0.73,0,L,26,67.3,573.507,575.16,575.89,575.892,0,1,10.5765463802384,5.69239258425957,3.21455025366432
2,22071402,185,Low,10,Precise,0,30,34,27,52,89.7,30.1,30,27,34,52,30.1,89.7,2,1.199,0,R,34,89.7,576.395,577.939,579.137,579.14,0,1,5.4884727687521,0.288675134594813,2.55408170059874
2,22071402,186,Low,10,Vague,1,36,35,11,47,64,23.9,11,35,36,23.9,64,47,1,1.499,0,R,36,47,579.643,582.278,583.778,583.78,0,0,22.0741930769847,5.58241285944827,2.11266025033211
2,22071402,187,Low,10,Vague,1,36,30,14,47,52,18,14,36,30,18,47,52,3,0.609,0.001,L,14,18,584.282,586.521,587.13,587.132,0,0,22.0741930769847,5.4884727687521,0.901849950564578
2,22071402,188,Low,10,Precise,0,35,26,32,64,67.3,22.5,32,35,26,22.5,64,67.3,2,1.216,0,R,26,67.3,587.635,589.481,590.697,590.7,0,1,5.58241285944827,10.5765463802384,2.05182845286832
2,22071402,189,Low,10,Vague,1,30,33,14,52,82.1,18,33,14,30,82.1,18,52,2,1.399,0,L,33,82.1,591.202,593.147,594.546,594.548,0,0,5.4884727687521,5.69239258425957,0.901849950564578
2,22071402,190,Low,10,Precise,0,30,35,22,52,64,20.9,30,35,22,52,64,20.9,3,0.517,0,R,22,20.9,595.051,596.956,597.474,597.476,0,1,5.4884727687521,5.58241285944827,3.21455025366432
2,22071402,191,Low,10,Vague,1,33,34,6,82.1,89.7,3,6,34,33,3,89.7,82.1,2,0.735,0.001,D,34,89.7,597.978,598.706,599.442,599.444,0,0,5.69239258425957,0.288675134594813,0.503322295684717
2,22071402,192,Low,10,Precise,0,35,26,19,64,67.3,2.8,19,35,26,2.8,64,67.3,2,0.596,0,R,26,67.3,599.947,600.829,601.425,601.428,0,1,5.58241285944827,10.5765463802384,0.305505046330389
2,22071402,193,Low,10,Vague,1,30,34,14,52,89.7,18,30,14,34,52,18,89.7,2,0.498,0,R,34,89.7,601.93,603.727,604.225,604.228,0,0,5.4884727687521,0.288675134594813,0.901849950564578
2,22071402,194,Low,10,Precise,0,26,33,29,67.3,82.1,35.9,29,26,33,35.9,67.3,82.1,1,0.733,0.001,D,26,67.3,604.73,607.46,608.194,608.196,0,1,10.5765463802384,5.69239258425957,6.27880031003801
2,22071402,195,Low,10,Precise,0,35,34,32,64,89.7,22.5,32,35,34,22.5,64,89.7,2,0.963,0,R,34,89.7,608.699,609.198,610.162,610.164,0,1,5.58241285944827,0.288675134594813,2.05182845286832
2,22071402,196,Low,10,Precise,0,33,34,27,82.1,89.7,30.1,27,33,34,30.1,82.1,89.7,2,0.64,0,R,34,89.7,610.667,613.298,613.937,613.94,0,1,5.69239258425957,0.288675134594813,2.55408170059874
2,22071402,197,Low,10,Precise,0,36,33,29,47,82.1,35.9,33,36,29,82.1,47,35.9,1,0.607,0.001,D,36,47,614.442,616.162,616.77,616.772,0,1,22.0741930769847,5.69239258425957,6.27880031003801
2,22071402,198,Low,10,Vague,1,35,33,3,64,82.1,8.1,3,33,35,8.1,82.1,64,1,2.253,0.001,R,35,64,617.275,618.132,620.386,620.388,0,0,5.58241285944827,5.69239258425957,0.529150262212918
2,22071402,199,Low,10,Vague,1,36,33,8,47,82.1,43.8,33,8,36,82.1,43.8,47,3,1.762,0.001,D,8,43.8,620.89,622.264,624.026,624.028,0,0,22.0741930769847,5.69239258425957,4.96621921921831
2,22071402,200,Low,10,Precise,0,35,33,27,64,82.1,30.1,35,27,33,64,30.1,82.1,3,1.131,0.001,D,27,30.1,624.531,626.927,628.058,628.06,0,1,5.58241285944827,5.69239258425957,2.55408170059874
2,22071402,201,Low,10,Precise,0,35,34,29,64,89.7,35.9,35,34,29,64,89.7,35.9,2,1.336,0.001,D,34,89.7,628.563,630.818,632.154,632.156,0,1,5.58241285944827,0.288675134594813,6.27880031003801
2,22071402,202,Low,10,Precise,0,36,30,19,47,52,2.8,30,36,19,52,47,2.8,1,1.319,0,D,36,47,632.659,633.611,634.93,634.932,0,1,22.0741930769847,5.4884727687521,0.305505046330389
2,22071402,203,Low,10,Vague,1,36,33,3,47,82.1,8.1,36,3,33,47,8.1,82.1,1,0.658,0.001,L,36,47,635.435,637.096,637.754,637.756,0,0,22.0741930769847,5.69239258425957,0.529150262212918
2,22071402,204,Low,10,Vague,1,33,34,11,82.1,89.7,23.9,34,33,11,89.7,82.1,23.9,2,0.501,0,L,34,89.7,638.258,640.42,640.921,640.924,0,0,5.69239258425957,0.288675134594813,2.11266025033211
2,22071402,205,Low,10,Vague,1,33,34,14,82.1,89.7,18,33,34,14,82.1,89.7,18,2,0.546,0,D,34,89.7,641.427,643.096,643.641,643.644,0,0,5.69239258425957,0.288675134594813,0.901849950564578
2,22071402,206,Low,10,Precise,0,26,34,22,67.3,89.7,20.9,26,22,34,67.3,20.9,89.7,2,0.636,0,R,34,89.7,644.146,645.861,646.498,646.5,0,1,10.5765463802384,0.288675134594813,3.21455025366432
2,22071402,207,Low,10,Vague,1,30,33,4,52,82.1,42.6,33,4,30,82.1,42.6,52,3,1.094,0,D,4,42.6,647.003,648.684,649.777,649.78,0,0,5.4884727687521,5.69239258425957,5.78388566046506
2,22071402,208,Low,10,Precise,0,30,34,19,52,89.7,2.8,19,30,34,2.8,52,89.7,2,0.573,0,R,34,89.7,650.282,652.26,652.833,652.836,0,1,5.4884727687521,0.288675134594813,0.305505046330389
2,22071402,209,Low,10,Vague,1,26,33,6,67.3,82.1,3,6,26,33,3,67.3,82.1,3,0.626,0,L,6,3,653.339,656.015,656.641,656.644,0,0,10.5765463802384,5.69239258425957,0.503322295684717
2,22071402,210,Low,10,Vague,1,26,34,3,67.3,89.7,8.1,26,3,34,67.3,8.1,89.7,2,0.575,0,R,34,89.7,657.146,659.266,659.842,659.844,0,0,10.5765463802384,0.288675134594813,0.529150262212918
2,22071402,211,Low,10,Vague,1,30,35,11,52,64,23.9,35,30,11,64,52,23.9,1,1.028,0,D,30,52,660.347,660.934,661.962,661.964,0,0,5.4884727687521,5.58241285944827,2.11266025033211
